event_id,seq,ts_ms,ax,ay,az,gx,gy,gz
32,0,2075010,-108,-16416,916,17,-22,2
32,1,2075015,-157,-16418,927,21,-28,2
32,2,2075020,-183,-16412,836,14,-27,-1
32,3,2075025,-182,-16421,775,12,-23,-3
32,4,2075030,-181,-16448,745,14,-24,-2
32,5,2075035,-218,-16452,762,13,-26,-3
32,6,2075040,-213,-16478,715,12,-24,-2
32,7,2075045,-162,-16472,651,10,-24,-2
32,8,2075050,-72,-16435,646,9,-20,-6
32,9,2075055,-32,-16454,690,14,-17,-7
32,10,2075060,28,-16474,714,13,-17,-7
32,11,2075065,62,-16495,723,11,-19,-4
32,12,2075070,74,-16509,722,12,-18,-3
32,13,2075075,51,-16535,706,13,-16,-1
32,14,2075080,38,-16552,739,11,-15,-1
32,15,2075085,72,-16532,761,11,-15,-2
32,16,2075090,119,-16509,762,9,-17,-6
32,17,2075095,143,-16490,776,6,-15,-2
32,18,2075100,101,-16528,805,8,-13,0
32,19,2075105,37,-16528,879,8,-9,2
32,20,2075110,-4,-16542,809,8,-9,3
32,21,2075115,30,-16522,768,6,-8,0
32,22,2075120,8,-16453,752,2,-6,-2
32,23,2075125,108,-16419,720,3,-4,-1
32,24,2075130,120,-16403,701,4,1,0
32,25,2075135,115,-16392,700,5,2,3
32,26,2075140,88,-16417,737,4,5,5
32,27,2075145,3,-16445,821,3,9,2
32,28,2075150,-34,-16423,826,2,7,1
32,29,2075155,-30,-16420,829,4,6,-2
32,30,2075160,-62,-16405,809,2,6,2
32,31,2075165,-88,-16438,790,-1,13,3
32,32,2075170,-136,-16444,753,-1,16,4
32,33,2075175,-179,-16432,754,-1,19,6
32,34,2075180,-164,-16434,780,-1,20,2
32,35,2075185,-167,-16398,801,-2,21,0
32,36,2075190,-103,-16322,810,-2,23,-2
32,37,2075195,-52,-16334,831,-1,21,-2
32,38,2075200,-63,-16355,869,-3,22,0
32,39,2075205,-136,-16345,888,-5,19,2
32,40,2075210,-179,-16363,854,-4,15,0
32,41,2075215,-268,-16360,852,-4,14,0
32,42,2075220,-228,-16433,895,-6,11,-2
32,43,2075225,-227,-16460,939,-9,6,-1
32,44,2075230,-237,-16461,947,-7,1,-4
32,45,2075235,-240,-16473,938,-5,-4,-3
32,46,2075240,-293,-16503,938,-9,-9,-1
32,47,2075245,-272,-16513,888,-9,-15,-2
32,48,2075250,-277,-16547,836,-7,-17,-4
32,49,2075255,-239,-16557,781,-8,-24,-6
32,50,2075260,-179,-16567,788,-9,-22,-7
32,51,2075265,-169,-16557,882,-8,-20,-5
32,52,2075270,-125,-16543,822,-10,-22,-6
32,53,2075275,-107,-16551,860,-14,-23,-5
32,54,2075280,-49,-16520,882,-13,-23,-5
32,55,2075285,-70,-16476,958,-11,-20,-6
32,56,2075290,-28,-16479,900,-12,-20,-9
32,57,2075295,-24,-16480,864,-15,-19,-8
32,58,2075300,-46,-16505,846,-15,-17,-5
32,59,2075305,-103,-16510,842,-13,-14,-3
32,60,2075310,-160,-16526,819,-13,-9,-3
32,61,2075315,-224,-16533,809,-13,-7,-4
32,62,2075320,-236,-16569,806,-18,-1,-6
32,63,2075325,-215,-16571,759,-19,5,-7
32,64,2075330,-185,-16598,725,-18,6,-6
32,65,2075335,-171,-16599,736,-18,12,-9
32,66,2075340,-177,-16583,776,-14,13,-8
32,67,2075345,-110,-16553,724,-17,13,-11
32,68,2075350,-144,-16527,758,-18,10,-12
32,69,2075355,-118,-16512,765,-16,9,-12
32,70,2075360,-93,-16493,795,-15,7,-12
32,71,2075365,-75,-16494,772,-15,6,-11
32,72,2075370,-139,-16512,778,-16,2,-9
32,73,2075375,-119,-16474,745,-16,0,-10
32,74,2075380,-78,-16455,694,-15,-3,-9
32,75,2075385,-48,-16467,726,-15,-8,-9
32,76,2075390,-20,-16424,774,-13,-9,-12
32,77,2075395,-24,-16409,843,-12,-14,-8
32,78,2075400,-59,-16425,864,-13,-15,-10
32,79,2075405,-95,-16396,813,-14,-19,-10
32,80,2075410,-136,-16456,841,-14,-26,-4
32,81,2075415,-176,-16494,788,-13,-28,-7
32,82,2075420,-224,-16482,699,-12,-34,-6
32,83,2075425,-184,-16408,697,-13,-39,-10
32,84,2075430,-138,-16441,700,-13,-39,-10
32,85,2075435,-139,-16413,689,-9,-41,-11
32,86,2075440,-95,-16404,695,-8,-45,-12
32,87,2075445,-45,-16419,718,-9,-49,-12
32,88,2075450,-50,-16458,750,-5,-50,-10
32,89,2075455,-47,-16449,735,-5,-48,-11
32,90,2075460,-73,-16434,711,-7,-51,-9
32,91,2075465,-44,-16472,712,-5,-50,-10
32,92,2075470,-49,-16497,673,-6,-47,-11
32,93,2075475,-117,-16463,666,-2,-43,-8
32,94,2075480,-123,-16521,653,-5,-35,-10
32,95,2075485,-171,-16540,667,-1,-29,-13
32,96,2075490,-102,-16549,620,-1,-27,-14
32,97,2075495,-34,-16562,623,-2,-21,-16
32,98,2075500,33,-16519,645,2,-14,-16
32,99,2075505,55,-16463,665,2,-12,-14
32,100,2075510,51,-16387,681,2,-8,-15
32,101,2075515,77,-16402,736,3,-7,-14
32,102,2075520,71,-16425,640,5,-4,-13
32,103,2075525,128,-16347,630,7,-3,-14
32,104,2075530,112,-16343,668,6,-3,-15
32,105,2075535,110,-16357,688,8,-2,-14
32,106,2075540,32,-16366,700,9,-4,-13
32,107,2075545,15,-16346,738,7,-6,-9
32,108,2075550,-69,-16410,732,8,-4,-10
32,109,2075555,-153,-16430,675,10,-3,-10
32,110,2075560,-165,-16435,629,8,-2,-12
32,111,2075565,-212,-16539,520,8,4,-15
32,112,2075570,-261,-16602,541,9,14,-16
32,113,2075575,-247,-16580,421,11,21,-17
32,114,2075580,-221,-16584,506,13,31,-15
32,115,2075585,-197,-16572,529,15,42,-18
32,116,2075590,-199,-16540,660,16,53,-21
32,117,2075595,-118,-16530,720,12,52,-23
32,118,2075600,-50,-16538,720,13,54,-22
32,119,2075605,-88,-16485,787,11,53,-21
32,120,2075610,-94,-16460,816,14,53,-20
32,121,2075615,-78,-16480,846,13,51,-22
32,122,2075620,-118,-16520,888,12,41,-22
32,123,2075625,-216,-16520,830,13,32,-19
32,124,2075630,-233,-16558,820,9,27,-21
32,125,2075635,-172,-16554,801,11,19,-20
32,126,2075640,-140,-16575,714,13,12,-22
32,127,2075645,-95,-16619,672,13,8,-21
32,128,2075650,-71,-16652,642,15,2,-20
32,129,2075655,0,-16685,633,16,-2,-21
32,130,2075660,62,-16654,681,15,-5,-18
32,131,2075665,98,-16620,729,16,-12,-19
32,132,2075670,217,-16563,767,15,-17,-19
32,133,2075675,222,-16532,844,16,-18,-14
32,134,2075680,266,-16496,894,13,-23,-14
32,135,2075685,274,-16493,934,11,-25,-10
32,136,2075690,67,-16534,859,12,-32,-7
32,137,2075695,20,-16519,838,10,-28,-7
32,138,2075700,-65,-16513,773,8,-25,-10
32,139,2075705,-96,-16504,773,9,-22,-8
32,140,2075710,-138,-16529,783,7,-18,-9
32,141,2075715,-159,-16533,815,11,-13,-8
32,142,2075720,-197,-16513,844,9,-8,-9
32,143,2075725,-192,-16523,834,9,-5,-9
32,144,2075730,-205,-16550,769,4,-2,-8
32,145,2075735,-238,-16570,772,1,0,-8
32,146,2075740,-207,-16574,738,4,1,-12
32,147,2075745,-170,-16571,776,4,9,-12
32,148,2075750,-162,-16533,796,2,13,-13
32,149,2075755,-118,-16496,877,4,12,-14
32,150,2075760,-10,-16495,955,3,11,-13
32,151,2075765,31,-16475,985,4,6,-11
32,152,2075770,2,-16448,975,1,0,-6
32,153,2075775,40,-16423,921,-3,-8,-10
32,154,2075780,56,-16406,866,1,-15,-9
32,155,2075785,0,-16420,869,0,-19,-3
32,156,2075790,11,-16405,850,-2,-23,-4
32,157,2075795,16,-16423,829,-2,-27,-5
32,158,2075800,-7,-16395,891,-2,-36,-7
32,159,2075805,45,-16341,829,-1,-36,-5
32,160,2075810,98,-16379,744,2,-39,-3
32,161,2075815,82,-16398,772,-3,-38,-2
32,162,2075820,73,-16412,761,-3,-38,-1
32,163,2075825,30,-16428,769,-2,-39,0
32,164,2075830,-50,-16430,739,-1,-37,4
32,165,2075835,-46,-16425,663,-4,-31,2
32,166,2075840,-22,-16437,656,-5,-22,-1
32,167,2075845,-78,-16432,644,-3,-15,-1
32,168,2075850,-95,-16419,573,-3,-9,1
32,169,2075855,-122,-16472,554,-2,4,1
32,170,2075860,-167,-16473,579,-4,16,1
32,171,2075865,-102,-16490,567,-6,20,0
32,172,2075870,-93,-16451,520,-2,24,-3
32,173,2075875,-64,-16437,511,0,31,-4
32,174,2075880,-2,-16407,602,1,37,0
32,175,2075885,34,-16383,670,1,33,0
32,176,2075890,12,-16391,644,1,30,2
32,177,2075895,22,-16414,698,3,24,3
32,178,2075900,33,-16428,713,3,17,2
32,179,2075905,-6,-16383,710,0,12,2
32,180,2075910,21,-16377,691,-2,4,0
32,181,2075915,112,-16381,646,2,-2,3
32,182,2075920,110,-16357,716,6,-5,6
32,183,2075925,168,-16381,681,2,-9,5
32,184,2075930,146,-16396,669,4,-14,7
32,185,2075935,135,-16374,667,5,-18,9
32,186,2075940,168,-16427,624,3,-16,7
32,187,2075945,181,-16418,641,3,-9,6
32,188,2075950,183,-16401,676,5,-2,10
32,189,2075955,112,-16411,636,4,0,11
32,190,2075960,23,-16496,608,2,5,9
32,191,2075965,-47,-16502,592,4,14,12
32,192,2075970,-134,-16540,602,3,19,12
32,193,2075975,-185,-16537,616,2,27,10
32,194,2075980,-180,-16520,614,2,32,7
32,195,2075985,-152,-16488,667,6,37,8
32,196,2075990,-153,-16474,743,6,37,6
32,197,2075995,-150,-16453,805,5,33,7
32,198,2076000,-154,-16411,806,4,29,6
32,199,2076005,-129,-16403,868,4,23,7
32,200,2076010,-105,-16361,849,5,15,9
32,201,2076015,-79,-16338,853,4,6,6
32,202,2076020,-58,-16381,886,6,-2,10
32,203,2076025,-6,-16407,871,4,-9,11
32,204,2076030,4,-16399,866,3,-16,8
32,205,2076035,28,-16441,851,3,-25,10
32,206,2076040,4,-16468,818,2,-27,10
32,207,2076045,11,-16517,822,1,-28,13
32,208,2076050,-13,-16587,833,-1,-26,13
32,209,2076055,-98,-16648,735,1,-17,10
32,210,2076060,-80,-16673,810,0,-10,7
32,211,2076065,-48,-16652,793,-3,0,6
32,212,2076070,-71,-16636,799,-2,1,6
32,213,2076075,-53,-16578,822,0,8,6
32,214,2076080,0,-16567,895,0,20,9
32,215,2076085,-32,-16528,915,-4,25,9
32,216,2076090,-79,-16509,931,-9,25,10
32,217,2076095,-85,-16548,900,-8,27,8
32,218,2076100,-119,-16547,879,-10,28,7
32,219,2076105,-81,-16533,780,-9,33,5
32,220,2076110,-63,-16536,721,-9,36,3
32,221,2076115,-31,-16493,776,-10,38,2
32,222,2076120,2,-16420,810,-10,40,3
32,223,2076125,-8,-16429,883,-9,38,4
32,224,2076130,-67,-16442,925,-9,36,4
32,225,2076135,-64,-16397,1016,-13,32,7
32,226,2076140,-91,-16419,997,-14,27,7
32,227,2076145,-133,-16464,941,-15,22,3
32,228,2076150,-185,-16479,844,-16,16,4
32,229,2076155,-211,-16495,776,-19,13,6
32,230,2076160,-193,-16508,716,-16,14,1
32,231,2076165,-132,-16521,646,-16,15,-1
32,232,2076170,-83,-16499,646,-14,16,-3
32,233,2076175,-13,-16479,734,-13,18,-3
32,234,2076180,108,-16441,826,-15,21,-2
32,235,2076185,109,-16407,956,-14,20,0
32,236,2076190,154,-16357,1028,-18,20,1
32,237,2076195,126,-16452,971,-20,16,1
32,238,2076200,-13,-16489,895,-23,14,1
32,239,2076205,-151,-16555,764,-27,18,5
32,240,2076210,-299,-16708,494,-26,28,1
32,241,2076215,-458,-16762,401,-28,38,-2
32,242,2076220,-547,-16796,324,-25,48,-3
32,243,2076225,-526,-16795,284,-23,61,-8
32,244,2076230,-476,-16720,311,-21,69,-12
32,245,2076235,-366,-16651,512,-20,75,-15
32,246,2076240,-245,-16580,674,-23,75,-15
32,247,2076245,-179,-16513,731,-22,68,-16
32,248,2076250,-52,-16437,774,-20,55,-18
32,249,2076255,31,-16372,817,-20,44,-16
32,250,2076260,8,-16391,832,-18,32,-13
32,251,2076265,13,-16374,787,-19,13,-12
32,252,2076270,4,-16379,726,-21,-5,-10
32,253,2076275,-34,-16426,726,-18,-17,-12
32,254,2076280,-68,-16374,682,-15,-29,-13
32,255,2076285,-43,-16444,665,-15,-38,-12
32,256,2076290,-28,-16440,694,-12,-48,-12
32,257,2076295,-63,-16434,692,-14,-56,-12
32,258,2076300,-41,-16449,697,-14,-59,-11
32,259,2076305,-68,-16487,738,-12,-64,-11
32,260,2076310,-57,-16458,690,-11,-66,-14
32,261,2076315,-55,-16459,606,-13,-61,-16
32,262,2076320,-101,-16454,560,-14,-58,-14
32,263,2076325,-124,-16484,470,-14,-57,-13
32,264,2076330,-139,-16459,422,-12,-46,-14
32,265,2076335,-182,-16484,409,-9,-33,-15
32,266,2076340,-194,-16487,451,-7,-21,-15
32,267,2076345,-200,-16467,442,-7,-14,-16
32,268,2076350,-251,-16488,497,-9,-5,-18
32,269,2076355,-256,-16440,530,-8,3,-22
32,270,2076360,-171,-16421,532,-7,9,-24
32,271,2076365,-123,-16445,583,-5,15,-24
32,272,2076370,-59,-16448,656,-4,16,-22
32,273,2076375,-19,-16432,666,-3,17,-24
32,274,2076380,-24,-16403,747,-4,17,-25
32,275,2076385,-34,-16435,790,-1,11,-22
32,276,2076390,-21,-16433,763,-2,5,-21
32,277,2076395,-13,-16421,720,-1,1,-24
32,278,2076400,8,-16424,705,1,-3,-24
32,279,2076405,28,-16466,738,-1,-1,-23
32,280,2076410,25,-16436,806,-2,-2,-21
32,281,2076415,35,-16377,821,0,-6,-20
32,282,2076420,-72,-16419,750,0,-8,-20
32,283,2076425,-117,-16462,732,0,-6,-20
32,284,2076430,-189,-16501,619,-1,-5,-15
32,285,2076435,-223,-16523,497,0,-5,-18
32,286,2076440,-258,-16531,449,2,0,-20
32,287,2076445,-215,-16547,499,5,11,-22
32,288,2076450,-205,-16549,599,7,13,-23
32,289,2076455,-205,-16580,631,7,13,-22
32,290,2076460,-110,-16602,712,5,12,-23
32,291,2076465,-72,-16618,808,4,9,-23
32,292,2076470,3,-16637,785,4,6,-21
32,293,2076475,90,-16675,704,4,-2,-23
32,294,2076480,164,-16807,643,2,-3,-21
32,295,2076485,215,-16945,519,0,-3,-18
32,296,2076490,244,-17103,411,2,6,-16
32,297,2076495,337,-17247,386,7,18,-15
32,298,2076500,456,-17516,261,3,38,-17
32,299,2076505,518,-17937,128,0,60,-17
32,300,2076510,682,-18485,-141,-2,82,-13
32,301,2076515,861,-19036,-558,0,114,-10
32,302,2076520,858,-19572,-916,-4,164,-7
32,303,2076525,847,-20071,-1190,-3,219,-7
32,304,2076530,749,-20546,-1424,0,281,-2
32,305,2076535,559,-20898,-1596,3,343,1
32,306,2076540,461,-21172,-1601,8,400,4
32,307,2076545,275,-21392,-1540,11,459,4
32,308,2076550,137,-21573,-1320,15,521,1
32,309,2076555,69,-21650,-1132,18,572,-1
32,310,2076560,-106,-21575,-764,19,622,2
32,311,2076565,-282,-21535,-388,14,660,3
32,312,2076570,-515,-21541,-275,16,679,8
32,313,2076575,-783,-21469,-268,10,706,10
32,314,2076580,-1007,-21428,-181,2,728,8
32,315,2076585,-1183,-21411,-341,1,740,4
32,316,2076590,-1251,-21250,-41,1,779,-2
32,317,2076595,-1284,-21163,-226,4,783,1
32,318,2076600,-1364,-20991,-65,-6,801,-2
32,319,2076605,-1412,-20912,46,-14,807,-5
32,320,2076610,-1498,-20895,251,-16,816,0
32,321,2076615,-1513,-21065,357,-16,822,6
32,322,2076620,-1517,-21089,568,-27,818,-3
32,323,2076625,-1567,-21009,712,-33,798,-6
32,324,2076630,-1545,-21010,771,-41,772,0
32,325,2076635,-1603,-21125,723,-49,751,4
32,326,2076640,-1732,-21353,497,-56,736,5
32,327,2076645,-1913,-21494,492,-69,751,-7
32,328,2076650,-1982,-21305,1469,-76,694,-20
32,329,2076655,-1695,-21503,-302,-62,530,-5
32,330,2076660,-1528,-21406,101,-78,589,-18
32,331,2076665,-1397,-21333,1082,-82,583,-17
32,332,2076670,-1208,-21447,859,-78,460,-7
32,333,2076675,-1073,-21587,1396,-85,398,-21
32,334,2076680,-707,-20879,1237,-89,285,-35
32,335,2076685,-539,-21192,1221,-91,196,-3
32,336,2076690,-313,-21042,1111,-99,118,-5
32,337,2076695,-238,-20987,1337,-108,57,1
32,338,2076700,-396,-21007,1560,-103,-39,11
32,339,2076705,-295,-21228,1586,-100,-161,18
32,340,2076710,-161,-20769,1611,-113,-263,-1
32,341,2076715,-111,-20764,1813,-115,-327,20
32,342,2076720,-45,-20827,1942,-120,-400,29
32,343,2076725,123,-20629,1860,-122,-502,34
32,344,2076730,440,-20392,1502,-120,-594,32
32,345,2076735,650,-20200,1076,-126,-658,33
32,346,2076740,770,-20090,878,-129,-703,44
32,347,2076745,879,-20141,623,-128,-741,55
32,348,2076750,840,-20004,592,-122,-774,59
32,349,2076755,629,-19615,906,-119,-802,62
32,350,2076760,191,-19620,955,-117,-833,65
32,351,2076765,97,-19520,1282,-116,-869,75
32,352,2076770,25,-19318,1725,-117,-908,70
32,353,2076775,73,-19157,1537,-118,-955,59
32,354,2076780,181,-18874,1296,-119,-990,52
32,355,2076785,698,-18597,714,-115,-1052,65
32,356,2076790,645,-18613,216,-108,-1052,69
32,357,2076795,508,-18425,-31,-100,-1035,69
32,358,2076800,321,-18129,-203,-93,-1017,66
32,359,2076805,77,-17723,-243,-88,-983,57
32,360,2076810,-131,-17404,-3,-81,-939,50
32,361,2076815,-139,-17205,180,-68,-888,44
32,362,2076820,-144,-16843,831,-63,-830,35
32,363,2076825,-290,-16682,1862,-57,-794,28
32,364,2076830,315,-16421,2787,-52,-778,23
32,365,2076835,915,-16188,6293,-51,-760,1
32,366,2076840,350,-16689,5617,-45,-864,-3
32,367,2076845,488,-16986,5180,-99,-962,26
32,368,2076850,453,-16759,3650,-161,-1153,54
32,369,2076855,-215,-17129,-620,-143,-1304,51
32,370,2076860,-860,-17208,-3294,-109,-1267,16
32,371,2076865,-1313,-16922,-4637,-64,-1222,12
32,372,2076870,-1462,-16617,-4049,-24,-1132,10
32,373,2076875,-1747,-16413,-3166,11,-1056,-3
32,374,2076880,-1827,-16280,-1229,28,-972,-27
32,375,2076885,-1778,-16301,124,29,-933,-52
32,376,2076890,-1777,-16127,1310,21,-893,-71
32,377,2076895,-1710,-16046,2065,17,-857,-81
32,378,2076900,-1275,-16072,2024,12,-800,-79
32,379,2076905,-585,-15790,1821,-10,-719,-100
32,380,2076910,-341,-15811,1597,-31,-665,-131
32,381,2076915,-426,-15590,503,-33,-647,-132
32,382,2076920,-41,-15518,-1222,-23,-588,-118
32,383,2076925,-54,-14961,-1445,-19,-464,-121
32,384,2076930,-767,-14364,-1173,-1,-380,-139
32,385,2076935,-525,-14146,-1149,16,-316,-164
32,386,2076940,-557,-14037,-1014,19,-287,-179
32,387,2076945,-303,-14042,-891,23,-260,-181
32,388,2076950,-114,-14028,-787,34,-223,-183
32,389,2076955,-64,-14099,-790,47,-181,-184
32,390,2076960,-81,-14109,-459,43,-125,-198
32,391,2076965,-103,-13989,-433,47,-106,-207
32,392,2076970,-68,-13811,-572,50,-91,-214
32,393,2076975,-256,-13463,-690,60,-57,-219
32,394,2076980,-415,-13027,-643,67,-5,-224
32,395,2076985,-653,-12562,-375,76,52,-228
32,396,2076990,-870,-12070,-131,79,89,-236
32,397,2076995,-1183,-11788,186,80,107,-246
32,398,2077000,-1324,-11606,222,82,108,-257
32,399,2077005,-1367,-11231,521,92,138,-271
32,400,2077010,-1479,-10970,882,94,147,-283
32,401,2077015,-1475,-10695,1153,95,138,-289
32,402,2077020,-1427,-10480,1501,96,126,-302
32,403,2077025,-1342,-10153,1705,98,104,-315
32,404,2077030,-1324,-9833,1936,98,77,-323
32,405,2077035,-1075,-9597,1908,100,20,-326
32,406,2077040,-724,-9222,1889,97,-19,-347
32,407,2077045,-441,-9107,1983,99,-56,-361
32,408,2077050,-79,-8861,1956,106,-104,-361
32,409,2077055,285,-8609,2114,106,-143,-356
32,410,2077060,659,-8388,2051,107,-209,-357
32,411,2077065,926,-8254,1562,108,-258,-357
32,412,2077070,1103,-8038,1627,104,-255,-360
32,413,2077075,1227,-7867,1515,105,-276,-359
32,414,2077080,1330,-7765,1339,108,-294,-355
32,415,2077085,1271,-7629,1306,110,-284,-352
32,416,2077090,1041,-7521,1553,109,-255,-349
32,417,2077095,896,-7487,1738,108,-234,-345
32,418,2077100,608,-7488,1989,102,-210,-348
32,419,2077105,395,-7628,1987,93,-195,-350
32,420,2077110,361,-7802,1798,86,-178,-356
32,421,2077115,329,-8011,1635,81,-151,-362
32,422,2077120,475,-8269,1314,79,-124,-362
32,423,2077125,727,-8446,1170,75,-88,-368
32,424,2077130,971,-8630,984,74,-55,-365
32,425,2077135,1199,-8878,669,74,-21,-364
32,426,2077140,1428,-9018,866,66,30,-371
32,427,2077145,1750,-9149,554,71,50,-367
32,428,2077150,1930,-9207,546,68,93,-363
32,429,2077155,2082,-9054,186,60,176,-346
32,430,2077160,2086,-8928,144,61,219,-342
32,431,2077165,2197,-8992,-26,65,246,-335
32,432,2077170,2361,-9134,-182,65,286,-329
32,433,2077175,2623,-9205,-414,62,328,-331
32,434,2077180,2859,-9184,-571,60,374,-325
32,435,2077185,3015,-9127,-725,65,412,-308
32,436,2077190,3241,-9163,-872,68,447,-295
32,437,2077195,3280,-9281,-804,69,501,-283
32,438,2077200,3297,-9435,-574,70,552,-276
32,439,2077205,3437,-9679,-353,73,587,-266
32,440,2077210,3738,-9962,-155,69,607,-255
32,441,2077215,4186,-10332,-201,67,624,-245
32,442,2077220,4666,-10667,-72,68,655,-234
32,443,2077225,5039,-10947,171,70,687,-218
32,444,2077230,4916,-11094,504,67,710,-199
32,445,2077235,4472,-11090,732,63,713,-162
32,446,2077240,4023,-11065,855,53,704,-130
32,447,2077245,3382,-11091,841,45,695,-117
32,448,2077250,2797,-11167,483,35,679,-118
32,449,2077255,2406,-11311,10,30,659,-112
32,450,2077260,2224,-11389,-303,30,642,-100
32,451,2077265,2208,-11480,-412,34,638,-82
32,452,2077270,2133,-11625,-187,42,642,-70
32,453,2077275,2110,-11869,254,43,635,-70
32,454,2077280,2198,-12058,826,35,602,-66
32,455,2077285,2435,-12317,1100,30,549,-55
32,456,2077290,2564,-12539,1311,23,502,-43
32,457,2077295,2627,-12663,1504,16,460,-26
32,458,2077300,2595,-12772,1745,7,406,-10
32,459,2077305,2459,-12962,1825,6,334,4
32,460,2077310,2331,-13159,1801,1,262,17
32,461,2077315,2166,-13263,1788,-11,187,26
32,462,2077320,2043,-13294,1762,-17,109,40
32,463,2077325,1996,-13311,1743,-17,30,53
32,464,2077330,1948,-13220,1906,-16,-45,61
32,465,2077335,2284,-13082,2267,-20,-119,66
32,466,2077340,2062,-12904,2937,-23,-195,74
32,467,2077345,1658,-12913,3688,-23,-301,94
32,468,2077350,1908,-12813,4195,-28,-426,124
32,469,2077355,1997,-12683,4677,-42,-521,124
32,470,2077360,1772,-12554,4995,-58,-644,118
32,471,2077365,1729,-12465,4627,-75,-804,133
32,472,2077370,1713,-12477,4186,-91,-940,157
32,473,2077375,1465,-12814,3053,-94,-1041,183
32,474,2077380,1036,-13113,3138,-97,-1068,191
32,475,2077385,717,-13622,2312,-100,-1168,196
32,476,2077390,499,-13972,1312,-110,-1247,191
32,477,2077395,504,-14266,210,-116,-1281,188
32,478,2077400,456,-14470,-937,-120,-1272,196
32,479,2077405,339,-14738,-1575,-110,-1243,206
32,480,2077410,59,-15051,-2282,-93,-1217,213
32,481,2077415,-273,-15387,-2269,-80,-1162,210
32,482,2077420,-348,-15674,-1930,-70,-1099,199
32,483,2077425,-254,-15800,-1370,-65,-1037,181
32,484,2077430,78,-15807,-646,-57,-983,172
32,485,2077435,436,-15749,315,-54,-944,172
32,486,2077440,495,-15879,1174,-51,-930,180
32,487,2077445,919,-16045,1479,-54,-914,184
32,488,2077450,576,-16732,3022,-67,-879,197
32,489,2077455,455,-16319,2275,-80,-955,153
32,490,2077460,754,-17184,2254,-88,-906,185
32,491,2077465,415,-17332,2287,-104,-838,183
32,492,2077470,587,-18005,1190,-104,-866,197
32,493,2077475,779,-17582,573,-122,-861,170
32,494,2077480,454,-17497,-1664,-114,-866,187
32,495,2077485,-51,-17595,-2108,-110,-730,208
32,496,2077490,-627,-17600,-2943,-101,-640,209
32,497,2077495,-1066,-17485,-3054,-100,-549,179
32,498,2077500,-1282,-17540,-4048,-79,-529,167
32,499,2077505,-1300,-17744,-4176,-54,-448,160
32,500,2077510,-823,-18141,-4108,-36,-344,142
32,501,2077515,-196,-18179,-3351,-27,-226,111
32,502,2077520,905,-19076,-1679,9,-131,128
32,503,2077525,1149,-19626,-756,14,-89,132
32,504,2077530,1306,-20119,-172,12,-62,128
32,505,2077535,1502,-20590,188,8,-49,131
32,506,2077540,1640,-20990,370,8,-48,136
32,507,2077545,1683,-21282,-46,14,-52,142
32,508,2077550,1602,-21367,41,14,-14,144
32,509,2077555,1247,-21343,405,20,15,148
32,510,2077560,653,-21261,354,29,-1,161
32,511,2077565,198,-21116,171,29,-16,163
32,512,2077570,-95,-20870,-98,23,-23,149
32,513,2077575,-266,-20621,-331,26,-23,135
32,514,2077580,-118,-20238,-484,33,-32,122
32,515,2077585,194,-19924,-439,43,-48,122
32,516,2077590,552,-19825,-305,58,-58,124
32,517,2077595,838,-19791,225,68,-57,124
32,518,2077600,1178,-19843,594,74,-79,130
32,519,2077605,1594,-19881,656,75,-116,133
32,520,2077610,1984,-19895,757,70,-133,127
32,521,2077615,2386,-19898,623,73,-145,133
32,522,2077620,2753,-19920,502,77,-139,139
32,523,2077625,2890,-19881,506,81,-140,153
32,524,2077630,2784,-19719,516,88,-143,164
32,525,2077635,2538,-19385,612,90,-139,177
32,526,2077640,2085,-19055,558,94,-134,187
32,527,2077645,1542,-18726,519,94,-121,193
32,528,2077650,915,-18476,586,94,-115,197
32,529,2077655,281,-18325,352,100,-126,200
32,530,2077660,-205,-18185,-39,105,-134,198
32,531,2077665,-646,-18079,-400,109,-133,188
32,532,2077670,-813,-17983,-714,114,-125,178
32,533,2077675,-782,-17978,-959,119,-115,167
32,534,2077680,-730,-17931,-1065,133,-101,161
32,535,2077685,-537,-17900,-928,145,-87,155
32,536,2077690,-268,-17911,-581,158,-63,149
32,537,2077695,18,-17863,-173,165,-51,141
32,538,2077700,349,-17808,230,170,-45,136
32,539,2077705,724,-17722,579,171,-42,137
32,540,2077710,1067,-17669,730,172,-46,137
32,541,2077715,1207,-17729,995,173,-35,144
32,542,2077720,1190,-18040,1065,172,-25,151
32,543,2077725,1142,-18463,1037,173,-17,157
32,544,2077730,975,-18852,774,169,-8,159
32,545,2077735,820,-19073,229,164,-1,156
32,546,2077740,766,-19132,-363,167,16,150
32,547,2077745,696,-19040,-845,172,47,148
32,548,2077750,678,-18899,-1084,180,84,149
32,549,2077755,548,-18719,-994,195,128,151
32,550,2077760,344,-18613,-849,201,169,151
32,551,2077765,178,-18462,-511,207,205,147
32,552,2077770,59,-18387,-217,207,228,145
32,553,2077775,7,-18386,-206,208,238,140
32,554,2077780,19,-18407,-190,212,254,136
32,555,2077785,45,-18307,-206,218,282,136
32,556,2077790,-33,-18133,-137,220,306,136
32,557,2077795,-66,-17970,133,225,324,137
32,558,2077800,-59,-17922,409,229,346,133
32,559,2077805,-175,-17861,732,232,365,128
32,560,2077810,-181,-17708,1177,234,379,125
32,561,2077815,-204,-17569,1557,230,383,124
32,562,2077820,-340,-17407,1802,229,378,124
32,563,2077825,-562,-17313,2045,222,370,126
32,564,2077830,-757,-17319,2151,218,359,126
32,565,2077835,-911,-17409,2200,215,343,123
32,566,2077840,-1110,-17508,2136,211,323,117
32,567,2077845,-1279,-17626,1976,206,305,114
32,568,2077850,-1411,-17645,1770,203,287,110
32,569,2077855,-1464,-17661,1534,201,276,106
32,570,2077860,-1497,-17739,1426,198,270,101
32,571,2077865,-1486,-17686,1270,197,265,93
32,572,2077870,-1420,-17602,1128,193,253,84
32,573,2077875,-1404,-17536,1006,192,250,81
32,574,2077880,-1381,-17543,919,191,258,75
32,575,2077885,-1292,-17564,1140,193,276,64
32,576,2077890,-1217,-17484,1377,192,284,59
32,577,2077895,-1233,-17464,1699,184,291,54
32,578,2077900,-1285,-17468,2014,181,287,50
32,579,2077905,-1189,-17481,2333,177,287,52
32,580,2077910,-1228,-17440,2644,169,278,53
32,581,2077915,-1288,-17350,2857,164,248,49
32,582,2077920,-1194,-17319,2803,156,210,42
32,583,2077925,-1060,-17244,2735,147,186,37
32,584,2077930,-1071,-17102,2739,142,165,38
32,585,2077935,-1268,-16940,2812,134,142,39
32,586,2077940,-1455,-16818,2853,127,104,40
32,587,2077945,-1565,-16703,2722,120,62,32
32,588,2077950,-1642,-16704,2501,110,25,22
32,589,2077955,-1611,-16767,2192,105,-3,19
32,590,2077960,-1557,-16903,1966,101,-21,14
32,591,2077965,-1431,-17112,1858,96,-31,13
32,592,2077970,-1278,-17277,1720,88,-41,8
32,593,2077975,-1085,-17349,1650,85,-40,3
32,594,2077980,-699,-17306,1683,82,-40,-5
32,595,2077985,-380,-17354,1670,77,-46,-14
32,596,2077990,-74,-17305,1705,69,-52,-8
32,597,2077995,248,-17394,1652,66,-50,0
32,598,2078000,417,-17355,1605,66,-40,5
32,599,2078005,-715,-21244,1865,71,-41,26
32,600,2078010,-1113,-24999,11937,482,842,-481
32,601,2078015,-1219,-7606,-16164,440,-2152,329
32,602,2078020,5256,-3358,29502,-814,-190,187
32,603,2078025,-6996,4766,-2991,-216,-975,-650
32,604,2078030,12808,-22907,-6956,535,-1437,351
32,605,2078035,1660,-25752,14876,113,495,-108
32,606,2078040,4035,-13262,-6452,-117,-916,267
32,607,2078045,6840,-8763,21005,-211,-190,307
32,608,2078050,-318,-13348,-2913,-71,-914,129
32,609,2078055,606,-19473,4092,19,-249,-60
32,610,2078060,1532,-20627,-3214,-25,-709,71
32,611,2078065,3042,-15518,-1421,-120,-549,173
32,612,2078070,2878,-12888,1108,-118,-165,184
32,613,2078075,1091,-15485,2218,-27,-66,129
32,614,2078080,135,-18054,887,37,-324,109
32,615,2078085,113,-18350,-759,4,-488,116
32,616,2078090,1185,-16256,71,-64,-256,109
32,617,2078095,1476,-14954,2685,-84,39,103
32,618,2078100,896,-15587,3144,-48,-17,114
32,619,2078105,205,-17027,1017,-3,-227,151
32,620,2078110,-701,-17374,190,-23,-184,159
32,621,2078115,-1138,-16473,1371,-65,15,133
32,622,2078120,-1640,-16071,2490,-74,67,103
32,623,2078125,-1840,-16344,1716,-53,-65,95
32,624,2078130,-1779,-16638,382,-33,-135,100
32,625,2078135,-2067,-16692,500,-36,-38,92
32,626,2078140,-2212,-16539,1832,-40,65,85
32,627,2078145,-2377,-16419,2541,-44,37,75
32,628,2078150,-2540,-16475,2544,-47,-51,56
32,629,2078155,-2356,-16733,1766,-49,-105,44
32,630,2078160,-2119,-16593,1752,-61,-50,32
32,631,2078165,-1923,-16371,2133,-68,0,28
32,632,2078170,-1818,-16381,2153,-67,-19,25
32,633,2078175,-1766,-16498,1655,-60,-58,22
32,634,2078180,-1684,-16564,1423,-61,-52,8
32,635,2078185,-1557,-16496,1587,-64,-24,-7
32,636,2078190,-1282,-16507,1307,-65,-34,-11
32,637,2078195,-1134,-16467,1212,-70,-10,-15
32,638,2078200,-1094,-16519,1285,-68,17,-16
32,639,2078205,-1122,-16574,1297,-65,31,-24
32,640,2078210,-1207,-16555,1228,-65,34,-25
32,641,2078215,-1236,-16548,1254,-68,42,-32
32,642,2078220,-1178,-16602,1006,-69,46,-39
32,643,2078225,-1125,-16631,872,-69,61,-45
32,644,2078230,-1083,-16536,751,-73,74,-52
32,645,2078235,-1013,-16540,541,-67,79,-56
32,646,2078240,-952,-16564,385,-63,87,-58
32,647,2078245,-936,-16571,330,-58,105,-64
32,648,2078250,-863,-16626,335,-50,130,-76
32,649,2078255,-785,-16576,382,-47,137,-80
32,650,2078260,-653,-16587,380,-42,146,-83
32,651,2078265,-553,-16587,503,-38,159,-88
32,652,2078270,-509,-16597,513,-36,171,-90
32,653,2078275,-420,-16576,518,-32,183,-93
32,654,2078280,-372,-16564,600,-30,191,-97
32,655,2078285,-308,-16550,664,-29,200,-96
32,656,2078290,-301,-16501,757,-23,210,-96
32,657,2078295,-200,-16526,816,-21,219,-100
32,658,2078300,-134,-16549,911,-21,225,-101
32,659,2078305,-19,-16521,983,-20,228,-104
32,660,2078310,119,-16452,964,-19,225,-107
32,661,2078315,195,-16498,869,-21,232,-104
32,662,2078320,236,-16488,859,-16,239,-104
32,663,2078325,236,-16478,836,-15,244,-99
32,664,2078330,261,-16512,868,-12,247,-98
32,665,2078335,257,-16530,860,-12,248,-96
32,666,2078340,274,-16500,834,-12,250,-97
32,667,2078345,367,-16493,784,-11,259,-101
32,668,2078350,443,-16456,824,-11,265,-100
32,669,2078355,501,-16422,863,-7,268,-97
32,670,2078360,553,-16456,864,-2,270,-94
32,671,2078365,580,-16481,945,0,276,-89
32,672,2078370,528,-16484,1018,1,281,-86
32,673,2078375,494,-16470,1114,0,283,-85
32,674,2078380,498,-16447,1159,0,278,-83
32,675,2078385,408,-16423,1125,-2,276,-81
32,676,2078390,441,-16447,1152,-1,277,-80
32,677,2078395,411,-16445,1257,2,279,-76
32,678,2078400,293,-16427,1331,3,275,-77
32,679,2078405,264,-16410,1370,4,268,-74
32,680,2078410,190,-16428,1519,4,260,-69
32,681,2078415,119,-16475,1557,2,253,-67
32,682,2078420,15,-16460,1603,-1,246,-69
32,683,2078425,13,-16432,1613,-1,234,-69
32,684,2078430,20,-16413,1591,-3,219,-65
32,685,2078435,-16,-16416,1512,-4,209,-64
32,686,2078440,37,-16419,1475,-5,202,-63
32,687,2078445,88,-16463,1430,-4,191,-61
32,688,2078450,105,-16423,1402,-1,181,-62
32,689,2078455,159,-16420,1385,-2,172,-60
32,690,2078460,143,-16437,1362,-4,159,-57
32,691,2078465,175,-16464,1337,-3,151,-56
32,692,2078470,276,-16442,1356,-3,144,-58
32,693,2078475,277,-16410,1399,-2,135,-54
32,694,2078480,275,-16382,1478,-3,125,-50
32,695,2078485,331,-16417,1475,-4,115,-48
32,696,2078490,282,-16415,1490,-3,109,-45
32,697,2078495,261,-16472,1527,-6,98,-41
32,698,2078500,243,-16411,1504,-5,87,-40
32,699,2078505,286,-16390,1454,-6,76,-42
32,700,2078510,327,-16409,1302,-8,64,-41
32,701,2078515,382,-16439,1261,-5,53,-36
32,702,2078520,391,-16432,1190,-4,46,-35
32,703,2078525,371,-16470,1150,-3,40,-32
32,704,2078530,452,-16466,1100,-1,32,-28
32,705,2078535,484,-16437,1132,-2,25,-26
32,706,2078540,553,-16453,1085,1,21,-28
32,707,2078545,619,-16441,1113,5,20,-27
32,708,2078550,650,-16388,1198,4,16,-20
32,709,2078555,593,-16388,1369,4,18,-16
32,710,2078560,443,-16447,1497,5,15,-12
32,711,2078565,373,-16462,1636,4,11,-6
32,712,2078570,332,-16417,1762,0,4,-10
32,713,2078575,250,-16416,1804,-3,-2,-9
32,714,2078580,282,-16389,1738,-4,-13,-9
32,715,2078585,275,-16398,1629,-6,-19,-7
32,716,2078590,221,-16404,1510,-6,-22,-5
32,717,2078595,124,-16437,1491,-8,-22,-3
32,718,2078600,30,-16473,1395,-10,-27,-1
32,719,2078605,-67,-16440,1338,-9,-31,-2
32,720,2078610,-122,-16456,1333,-9,-33,-5
32,721,2078615,-87,-16511,1216,-14,-35,-7
32,722,2078620,155,-16471,1042,-11,-34,-9
32,723,2078625,287,-16392,1006,-10,-31,-12
32,724,2078630,369,-16445,974,-10,-17,-11
32,725,2078635,406,-16529,923,-5,-11,-8
32,726,2078640,431,-16501,930,-7,2,-8
32,727,2078645,455,-16512,937,-8,15,-9
32,728,2078650,386,-16464,960,-7,23,-7
32,729,2078655,352,-16470,977,-7,34,-5
32,730,2078660,315,-16499,975,-6,44,-5
32,731,2078665,318,-16459,948,-5,52,-6
32,732,2078670,307,-16500,917,-5,60,-7
32,733,2078675,281,-16538,897,-2,69,-10
32,734,2078680,225,-16512,880,-4,75,-6
32,735,2078685,193,-16497,921,-2,88,-6
32,736,2078690,184,-16490,903,-2,97,-9
32,737,2078695,190,-16502,946,1,106,-9
32,738,2078700,143,-16497,949,1,116,-13
32,739,2078705,144,-16497,1046,3,124,-11
32,740,2078710,131,-16515,1059,2,134,-11
32,741,2078715,62,-16480,1107,2,141,-12
32,742,2078720,123,-16464,1176,0,150,-16
32,743,2078725,122,-16477,1207,0,156,-16
32,744,2078730,142,-16455,1147,-2,167,-18
32,745,2078735,142,-16468,1124,-1,178,-19
32,746,2078740,101,-16495,1143,-3,185,-17
32,747,2078745,80,-16465,1129,-4,196,-17
32,748,2078750,61,-16444,1129,-1,204,-19
32,749,2078755,40,-16462,1141,0,209,-21
32,750,2078760,37,-16495,1141,-1,219,-24
32,751,2078765,55,-16473,1092,1,223,-27
32,752,2078770,75,-16469,1076,-1,230,-28
32,753,2078775,28,-16482,1100,-2,238,-27
32,754,2078780,42,-16475,1155,0,244,-24
32,755,2078785,-68,-16492,1202,-1,247,-26
32,756,2078790,-139,-16493,1197,0,248,-31
32,757,2078795,-198,-16510,1227,0,248,-34
32,758,2078800,-257,-16493,1208,-1,247,-36
32,759,2078805,-211,-16497,1216,-4,248,-36
32,760,2078810,-193,-16497,1248,-3,250,-39
32,761,2078815,-218,-16466,1203,-1,247,-40
32,762,2078820,-140,-16489,1152,0,245,-41
32,763,2078825,-115,-16469,1154,-2,246,-45
32,764,2078830,-60,-16486,1117,1,245,-43
32,765,2078835,-2,-16485,1145,0,244,-44
32,766,2078840,113,-16460,1130,1,245,-47
32,767,2078845,128,-16449,1161,2,250,-46
32,768,2078850,165,-16412,1171,2,249,-43
32,769,2078855,253,-16424,1281,-1,250,-44
32,770,2078860,243,-16499,1337,4,247,-44
32,771,2078865,208,-16486,1403,3,243,-41
32,772,2078870,239,-16439,1429,-2,244,-44
32,773,2078875,244,-16436,1509,-3,238,-41
32,774,2078880,276,-16431,1471,-1,235,-40
32,775,2078885,255,-16438,1449,-1,230,-40
32,776,2078890,204,-16438,1503,-4,225,-39
32,777,2078895,137,-16457,1537,-6,220,-35
32,778,2078900,54,-16434,1514,-8,212,-35
32,779,2078905,-1,-16447,1485,-6,202,-35
32,780,2078910,11,-16437,1517,-8,192,-38
32,781,2078915,-34,-16452,1486,-8,183,-35
32,782,2078920,-90,-16437,1480,-8,173,-33
32,783,2078925,-22,-16483,1419,-7,165,-35
32,784,2078930,48,-16469,1394,-7,156,-35
32,785,2078935,45,-16460,1431,-10,149,-38
32,786,2078940,105,-16433,1367,-11,140,-38
32,787,2078945,183,-16450,1283,-6,129,-35
32,788,2078950,223,-16481,1292,-8,124,-34
32,789,2078955,229,-16485,1311,-9,120,-34
32,790,2078960,267,-16426,1376,-12,115,-33
32,791,2078965,287,-16413,1415,-10,106,-32
32,792,2078970,258,-16449,1416,-8,98,-30
32,793,2078975,165,-16437,1404,-12,87,-27
32,794,2078980,167,-16462,1425,-11,81,-25
32,795,2078985,137,-16443,1335,-15,65,-29
32,796,2078990,154,-16453,1231,-14,54,-28
32,797,2078995,229,-16458,1247,-14,51,-27
32,798,2079000,231,-16480,1191,-12,43,-24
32,799,2079005,215,-16493,1135,-11,34,-23
32,800,2079010,187,-16469,1178,-10,27,-23
32,801,2079015,178,-16447,1220,-9,20,-21
32,802,2079020,198,-16439,1209,-9,14,-21
32,803,2079025,163,-16468,1282,-7,5,-19
32,804,2079030,190,-16472,1342,-10,-1,-20
32,805,2079035,183,-16431,1399,-10,-11,-20
32,806,2079040,138,-16461,1436,-9,-20,-18
32,807,2079045,97,-16445,1428,-10,-26,-18
32,808,2079050,57,-16459,1381,-12,-33,-16
32,809,2079055,30,-16475,1286,-14,-39,-18
32,810,2079060,-8,-16489,1236,-15,-42,-17
32,811,2079065,-7,-16514,1096,-15,-46,-18
32,812,2079070,59,-16447,1050,-13,-44,-21
32,813,2079075,89,-16442,1000,-9,-45,-21
32,814,2079080,32,-16491,1011,-9,-41,-22
32,815,2079085,108,-16496,982,-8,-42,-22
32,816,2079090,107,-16497,1047,-8,-36,-22
32,817,2079095,161,-16467,1050,-8,-33,-24
32,818,2079100,173,-16486,1090,-7,-34,-24
32,819,2079105,215,-16481,1070,-7,-34,-24
32,820,2079110,249,-16476,1140,-8,-28,-26
32,821,2079115,303,-16434,1130,-7,-23,-24
32,822,2079120,291,-16470,1183,-8,-20,-25
32,823,2079125,324,-16450,1172,-8,-20,-26
32,824,2079130,320,-16467,1168,-7,-18,-24
32,825,2079135,356,-16462,1216,-10,-16,-26
32,826,2079140,338,-16447,1197,-9,-16,-25
32,827,2079145,351,-16446,1144,-11,-14,-26
32,828,2079150,409,-16475,1095,-12,-10,-26
32,829,2079155,402,-16460,1099,-9,-7,-23
32,830,2079160,392,-16437,1105,-10,-7,-22
32,831,2079165,369,-16448,1121,-9,-4,-21
32,832,2079170,335,-16447,1094,-9,-2,-24
32,833,2079175,378,-16499,1085,-12,2,-25
32,834,2079180,401,-16504,1103,-10,3,-23
32,835,2079185,381,-16448,1075,-9,1,-22
32,836,2079190,385,-16469,1069,-10,1,-20
32,837,2079195,403,-16462,1064,-10,0,-22
32,838,2079200,388,-16446,1069,-8,0,-21
32,839,2079205,389,-16465,1076,-6,0,-20
32,840,2079210,358,-16455,1167,-8,0,-17
32,841,2079215,298,-16474,1216,-7,-1,-19
32,842,2079220,287,-16467,1199,-6,-5,-16
32,843,2079225,240,-16476,1206,-7,-6,-20
32,844,2079230,200,-16481,1231,-8,-7,-18
32,845,2079235,154,-16460,1225,-10,-9,-18
32,846,2079240,140,-16444,1234,-9,-14,-17
32,847,2079245,89,-16475,1261,-10,-15,-18
32,848,2079250,33,-16478,1219,-11,-18,-16
32,849,2079255,12,-16491,1252,-12,-22,-18
32,850,2079260,4,-16462,1171,-12,-24,-19
32,851,2079265,11,-16481,1116,-12,-28,-23
32,852,2079270,34,-16482,1121,-12,-27,-25
32,853,2079275,81,-16488,1094,-10,-29,-24
32,854,2079280,86,-16478,1063,-10,-27,-25
32,855,2079285,110,-16469,1037,-11,-27,-28
32,856,2079290,148,-16495,1045,-8,-27,-27
32,857,2079295,169,-16491,1029,-9,-24,-28
32,858,2079300,185,-16496,1070,-8,-23,-27
32,859,2079305,225,-16473,1123,-8,-22,-29
32,860,2079310,246,-16447,1131,-7,-23,-30
32,861,2079315,255,-16458,1117,-6,-20,-33
32,862,2079320,335,-16484,1073,-10,-18,-31
32,863,2079325,335,-16490,1081,-8,-14,-31
32,864,2079330,361,-16478,1086,-9,-12,-32
32,865,2079335,366,-16443,1122,-9,-11,-32
32,866,2079340,374,-16415,1147,-6,-11,-32
32,867,2079345,440,-16467,1150,-7,-10,-31
32,868,2079350,429,-16406,1147,-10,-4,-30
32,869,2079355,470,-16474,1205,-9,-3,-30
32,870,2079360,498,-16449,1154,-9,-1,-31
32,871,2079365,548,-16452,1100,-10,-6,-30
32,872,2079370,569,-16427,1065,-9,-6,-28
32,873,2079375,594,-16431,1071,-10,-2,-28
32,874,2079380,621,-16389,1069,-10,-3,-25
32,875,2079385,592,-16435,1018,-9,-4,-25
32,876,2079390,571,-16474,1060,-9,-5,-18
32,877,2079395,551,-16446,1078,-10,-3,-22
32,878,2079400,579,-16462,1067,-11,-7,-21
32,879,2079405,604,-16447,1041,-9,-10,-20
32,880,2079410,606,-16422,965,-9,-10,-19
32,881,2079415,634,-16447,926,-11,-11,-20
32,882,2079420,678,-16486,885,-8,-11,-21
32,883,2079425,624,-16481,894,-4,-12,-16
32,884,2079430,608,-16484,859,-5,-12,-13
32,885,2079435,586,-16487,864,-6,-8,-11
32,886,2079440,535,-16504,872,-2,-10,-11
32,887,2079445,523,-16508,833,-4,-10,-14
32,888,2079450,568,-16499,898,-1,-14,-13
32,889,2079455,591,-16467,930,1,-10,-10
32,890,2079460,574,-16487,914,1,-9,-10
32,891,2079465,556,-16476,1000,3,-11,-7
32,892,2079470,520,-16495,1041,3,-11,-6
32,893,2079475,473,-16477,1019,2,-13,-4
32,894,2079480,465,-16459,1024,1,-14,-5
32,895,2079485,461,-16495,953,1,-17,-6
32,896,2079490,528,-16502,884,3,-18,-4
32,897,2079495,520,-16468,893,3,-17,-5
32,898,2079500,491,-16473,821,3,-19,-2
32,899,2079505,529,-16490,836,6,-17,0
32,900,2079510,489,-16504,845,8,-14,1
32,901,2079515,454,-16493,940,8,-12,0
32,902,2079520,478,-16455,1004,10,-16,0
32,903,2079525,462,-16450,1039,11,-18,1
32,904,2079530,476,-16447,1081,10,-18,1
32,905,2079535,472,-16445,1167,10,-17,2
32,906,2079540,422,-16427,1206,13,-18,4
32,907,2079545,379,-16445,1249,11,-19,6
32,908,2079550,343,-16480,1272,10,-21,4
32,909,2079555,267,-16429,1316,7,-22,1
32,910,2079560,254,-16437,1278,6,-26,3
32,911,2079565,243,-16433,1208,7,-30,2
32,912,2079570,208,-16470,1122,5,-28,0
32,913,2079575,200,-16485,1129,8,-30,2
32,914,2079580,159,-16484,1127,6,-29,3
32,915,2079585,119,-16470,1177,8,-30,2
32,916,2079590,119,-16463,1191,8,-34,1
32,917,2079595,119,-16463,1147,7,-33,-1
32,918,2079600,170,-16475,1116,5,-36,-4
32,919,2079605,283,-16467,1074,6,-37,-5
32,920,2079610,369,-16437,1020,5,-34,-5
32,921,2079615,408,-16453,1028,6,-32,-4
32,922,2079620,411,-16466,1055,11,-30,-4
32,923,2079625,397,-16492,1115,11,-29,-4
32,924,2079630,393,-16456,1133,6,-25,-5
32,925,2079635,456,-16431,1166,6,-24,-3
32,926,2079640,447,-16458,1210,4,-23,-3
32,927,2079645,432,-16454,1179,5,-24,-4
32,928,2079650,479,-16487,1154,4,-20,-2
32,929,2079655,452,-16447,1107,3,-18,-3
32,930,2079660,428,-16475,1094,4,-17,-2
32,931,2079665,389,-16474,1130,4,-18,-2
32,932,2079670,395,-16475,1116,5,-15,-2
32,933,2079675,376,-16459,1078,3,-13,-4
32,934,2079680,461,-16477,1086,4,-12,-3
32,935,2079685,463,-16458,1033,3,-7,-4
32,936,2079690,502,-16473,1002,3,-4,-5
32,937,2079695,492,-16494,1016,5,-2,-4
32,938,2079700,474,-16485,995,5,4,0
32,939,2079705,458,-16456,1035,6,9,-1
32,940,2079710,394,-16434,1108,5,9,-3
32,941,2079715,375,-16509,1011,3,11,-2
32,942,2079720,396,-16507,970,3,12,-3
32,943,2079725,435,-16416,978,6,9,-3
32,944,2079730,441,-16428,975,5,11,-2
32,945,2079735,499,-16443,900,7,14,-3
32,946,2079740,514,-16480,923,10,16,-2
32,947,2079745,482,-16480,973,11,16,1
32,948,2079750,466,-16487,979,12,11,2
32,949,2079755,476,-16468,1017,10,14,4
32,950,2079760,499,-16437,1104,12,13,5
32,951,2079765,468,-16440,1113,13,6,2
32,952,2079770,455,-16456,1128,12,7,0
32,953,2079775,435,-16485,1149,12,2,4
32,954,2079780,456,-16476,1171,10,-2,8
32,955,2079785,390,-16461,1201,9,0,8
32,956,2079790,389,-16465,1232,12,-3,9
32,957,2079795,371,-16464,1185,13,-8,7
32,958,2079800,342,-16468,1204,10,-12,9
32,959,2079805,270,-16454,1221,8,-15,11
32,960,2079810,276,-16449,1186,10,-17,9
32,961,2079815,202,-16490,1269,11,-21,9
32,962,2079820,85,-16499,1236,10,-26,11
32,963,2079825,-4,-16479,1226,10,-26,10
32,964,2079830,-94,-16488,1267,9,-30,10
32,965,2079835,-129,-16429,1291,7,-34,5
32,966,2079840,-111,-16462,1221,8,-38,2
32,967,2079845,-86,-16467,1162,7,-45,0
32,968,2079850,-100,-16477,1197,10,-46,-1
32,969,2079855,22,-16478,1236,8,-44,-2
32,970,2079860,113,-16491,1157,7,-44,-5
32,971,2079865,109,-16469,1242,6,-38,-6
32,972,2079870,171,-16468,1219,8,-39,-9
32,973,2079875,280,-16435,1281,6,-39,-9
32,974,2079880,330,-16423,1252,6,-36,-10
32,975,2079885,425,-16441,1269,8,-32,-11
32,976,2079890,494,-16433,1304,4,-28,-9
32,977,2079895,511,-16463,1346,1,-26,-9
32,978,2079900,509,-16463,1348,3,-26,-7
32,979,2079905,527,-16412,1319,0,-21,-6
32,980,2079910,556,-16435,1313,-1,-20,-8
32,981,2079915,477,-16445,1311,-1,-16,-7
32,982,2079920,480,-16430,1307,-3,-13,-5
32,983,2079925,482,-16444,1234,-5,-14,-4
32,984,2079930,478,-16414,1227,-4,-10,-4
32,985,2079935,468,-16458,1195,-6,-8,-3
32,986,2079940,443,-16452,1222,-3,-6,0
32,987,2079945,403,-16435,1225,-6,-3,-2
32,988,2079950,373,-16470,1232,-6,-4,-3
32,989,2079955,357,-16454,1223,-8,-5,-4
32,990,2079960,355,-16456,1185,-8,-1,-4
32,991,2079965,371,-16434,1171,-6,-2,-1
32,992,2079970,363,-16461,1180,-6,-4,-2
32,993,2079975,330,-16465,1110,-6,-4,-1
32,994,2079980,351,-16456,1162,-8,-2,-2
32,995,2079985,355,-16492,1160,-5,-5,-3
32,996,2079990,335,-16487,1115,-6,-8,-2
32,997,2079995,372,-16448,1140,-8,-6,-2
32,998,2080000,371,-16446,1093,-6,-6,0
32,999,2080005,340,-16447,1099,-7,-9,0
