event_id,seq,ts_ms,ax,ay,az,gx,gy,gz
89,0,1046435,-891,-16024,-2496,-21,-136,-2
89,1,1046440,-693,-16148,-2621,-22,-148,-1
89,2,1046445,-841,-16194,-2643,-19,-151,-3
89,3,1046450,-877,-16204,-2551,-23,-163,2
89,4,1046455,-844,-16215,-2720,-23,-172,3
89,5,1046460,-862,-16222,-2840,-21,-164,1
89,6,1046465,-868,-16228,-2868,-20,-152,2
89,7,1046470,-868,-16200,-2800,-21,-147,1
89,8,1046475,-867,-16216,-2956,-19,-156,7
89,9,1046480,-864,-16247,-3075,-20,-153,5
89,10,1046485,-856,-16189,-3143,-19,-143,3
89,11,1046490,-858,-16201,-3088,-18,-127,3
89,12,1046495,-1020,-16225,-3043,-19,-118,2
89,13,1046500,-1094,-16212,-3121,-17,-116,1
89,14,1046505,-1002,-16224,-3225,-14,-103,2
89,15,1046510,-919,-16185,-3226,-10,-83,-3
89,16,1046515,-891,-16206,-3108,-12,-72,-4
89,17,1046520,-955,-16206,-2937,-11,-82,-2
89,18,1046525,-977,-16225,-3033,-8,-102,-1
89,19,1046530,-925,-16236,-3077,-9,-101,0
89,20,1046535,-1004,-16167,-2965,-6,-84,-3
89,21,1046540,-932,-16221,-2899,-6,-81,-5
89,22,1046545,-912,-16224,-2801,-4,-85,-1
89,23,1046550,-895,-16169,-2867,-5,-96,-1
89,24,1046555,-828,-16253,-2997,-2,-95,1
89,25,1046560,-816,-16262,-2906,-2,-86,-1
89,26,1046565,-900,-16194,-2780,-4,-79,-2
89,27,1046570,-974,-16139,-2781,-4,-83,0
89,28,1046575,-784,-16098,-2862,-4,-77,-1
89,29,1046580,-455,-16244,-2931,-1,-60,3
89,30,1046585,-722,-16077,-2673,3,-39,-1
89,31,1046590,-784,-16103,-2638,1,-54,0
89,32,1046595,-777,-16183,-2793,1,-76,6
89,33,1046600,-858,-16157,-2839,-1,-68,2
89,34,1046605,-727,-16200,-2711,1,-61,5
89,35,1046610,-756,-16157,-2558,0,-60,5
89,36,1046615,-817,-16163,-2610,2,-79,3
89,37,1046620,-789,-16203,-2740,3,-101,9
89,38,1046625,-876,-16199,-2806,1,-104,10
89,39,1046630,-861,-16181,-2747,3,-102,10
89,40,1046635,-938,-16203,-2753,5,-101,12
89,41,1046640,-978,-16205,-2915,3,-106,13
89,42,1046645,-977,-16235,-3031,6,-112,13
89,43,1046650,-972,-16283,-2992,3,-101,12
89,44,1046655,-1014,-16191,-2906,4,-82,11
89,45,1046660,-924,-16171,-2866,5,-70,11
89,46,1046665,-879,-16165,-2830,3,-51,10
89,47,1046670,-866,-16153,-2777,2,-32,7
89,48,1046675,-878,-16126,-2658,4,-25,8
89,49,1046680,-864,-16153,-2637,5,-29,8
89,50,1046685,-827,-16150,-2571,4,-40,10
89,51,1046690,-863,-16178,-2642,2,-51,11
89,52,1046695,-881,-16108,-2698,3,-59,11
89,53,1046700,-769,-16211,-2639,5,-58,14
89,54,1046705,-834,-16108,-2507,3,-61,13
89,55,1046710,-815,-16072,-2501,5,-74,14
89,56,1046715,-733,-16202,-2739,6,-91,17
89,57,1046720,-1005,-16209,-2719,5,-94,16
89,58,1046725,-954,-16150,-2662,5,-110,21
89,59,1046730,-872,-16168,-2681,7,-131,26
89,60,1046735,-870,-16181,-2734,9,-135,23
89,61,1046740,-875,-16194,-2826,9,-139,27
89,62,1046745,-829,-16180,-2881,8,-132,25
89,63,1046750,-847,-16159,-2796,8,-123,22
89,64,1046755,-937,-16149,-2680,9,-117,26
89,65,1046760,-919,-16169,-2725,6,-111,24
89,66,1046765,-909,-16207,-2857,12,-106,24
89,67,1046770,-913,-16170,-2874,9,-94,21
89,68,1046775,-1017,-16162,-2747,9,-75,21
89,69,1046780,-1098,-16153,-2603,8,-77,22
89,70,1046785,-1031,-16163,-2563,6,-87,25
89,71,1046790,-1099,-16205,-2541,9,-92,24
89,72,1046795,-1177,-16248,-2516,9,-97,27
89,73,1046800,-1107,-16109,-2499,8,-105,29
89,74,1046805,-898,-16150,-2637,9,-108,27
89,75,1046810,-1334,-16199,-2642,10,-100,22
89,76,1046815,-1275,-16244,-2675,7,-103,26
89,77,1046820,-1263,-16205,-2693,7,-89,26
89,78,1046825,-1257,-16177,-2667,6,-66,21
89,79,1046830,-1325,-16193,-2536,4,-51,18
89,80,1046835,-1336,-16157,-2556,5,-49,16
89,81,1046840,-1292,-16177,-2666,6,-55,17
89,82,1046845,-1267,-16198,-2731,5,-49,15
89,83,1046850,-1296,-16205,-2703,4,-37,13
89,84,1046855,-1330,-16175,-2649,3,-33,13
89,85,1046860,-1295,-16244,-2668,2,-32,12
89,86,1046865,-1300,-16231,-2726,1,-22,13
89,87,1046870,-1308,-16205,-2726,4,-13,10
89,88,1046875,-1265,-16224,-2639,4,-2,6
89,89,1046880,-1302,-16188,-2621,2,4,9
89,90,1046885,-1326,-16204,-2559,0,7,8
89,91,1046890,-1322,-16211,-2530,0,5,7
89,92,1046895,-1357,-16203,-2476,-3,8,5
89,93,1046900,-1371,-16189,-2488,0,8,4
89,94,1046905,-1362,-16194,-2571,-1,4,5
89,95,1046910,-1347,-16232,-2481,-4,-2,5
89,96,1046915,-1362,-16177,-2487,-3,-6,3
89,97,1046920,-1330,-16179,-2541,-3,-2,2
89,98,1046925,-1288,-16203,-2647,-2,1,5
89,99,1046930,-1254,-16179,-2636,-5,6,4
89,100,1046935,-1218,-16173,-2573,-7,3,1
89,101,1046940,-1160,-16172,-2582,-3,-5,-1
89,102,1046945,-1150,-16147,-2618,-6,-4,-2
89,103,1046950,-1117,-16149,-2672,-5,4,-2
89,104,1046955,-1091,-16173,-2646,-5,9,-5
89,105,1046960,-1115,-16173,-2605,-4,8,-1
89,106,1046965,-1069,-16153,-2633,-5,6,-1
89,107,1046970,-1100,-16206,-2651,-5,7,-3
89,108,1046975,-1223,-16194,-2640,-6,11,-5
89,109,1046980,-1216,-16168,-2570,-10,11,-5
89,110,1046985,-1170,-16191,-2548,-8,9,-1
89,111,1046990,-1182,-16183,-2572,-9,11,-2
89,112,1046995,-1127,-16211,-2636,-11,11,-3
89,113,1047000,-1055,-16189,-2719,-8,8,-4
89,114,1047005,-1035,-16149,-2696,-8,9,-2
89,115,1047010,-1049,-16144,-2673,-9,7,-2
89,116,1047015,-1077,-16134,-2740,-10,6,-1
89,117,1047020,-1055,-16141,-2772,-8,11,0
89,118,1047025,-1071,-16164,-2729,-7,17,0
89,119,1047030,-1029,-16136,-2755,-6,20,-3
89,120,1047035,-1008,-16133,-2814,-7,17,-1
89,121,1047040,-1038,-16156,-2961,-6,17,-2
89,122,1047045,-1193,-16198,-2989,-6,23,-3
89,123,1047050,-1283,-16229,-2954,-9,27,-5
89,124,1047055,-1340,-16238,-2933,-8,23,-4
89,125,1047060,-1314,-16244,-3017,-5,26,0
89,126,1047065,-1251,-16243,-3080,-2,42,-2
89,127,1047070,-1193,-16200,-3068,-5,58,-3
89,128,1047075,-1174,-16184,-2988,-5,67,-4
89,129,1047080,-1102,-16134,-2973,-3,65,-5
89,130,1047085,-1080,-16174,-3010,-2,72,-4
89,131,1047090,-1017,-16154,-2917,-2,84,-6
89,132,1047095,-1087,-16109,-2780,-4,96,-10
89,133,1047100,-1069,-16127,-2698,-4,100,-11
89,134,1047105,-973,-16143,-2721,-3,102,-8
89,135,1047110,-946,-16163,-2646,-3,112,-9
89,136,1047115,-921,-16124,-2497,-4,116,-11
89,137,1047120,-981,-16140,-2412,-4,109,-10
89,138,1047125,-981,-16161,-2508,-5,94,-7
89,139,1047130,-971,-16153,-2627,-1,91,-4
89,140,1047135,-963,-16210,-2668,-2,99,-4
89,141,1047140,-989,-16164,-2613,-2,105,-4
89,142,1047145,-1095,-16143,-2594,-2,98,-4
89,143,1047150,-1098,-16194,-2650,-2,86,-3
89,144,1047155,-1114,-16163,-2680,-1,89,-1
89,145,1047160,-1032,-16148,-2618,-1,97,0
89,146,1047165,-943,-16154,-2456,-2,97,0
89,147,1047170,-901,-16149,-2363,0,83,-1
89,148,1047175,-902,-16147,-2474,-5,47,2
89,149,1047180,-981,-16183,-2431,-4,35,4
89,150,1047185,-968,-16159,-2471,-1,18,4
89,151,1047190,-1012,-16160,-2486,-2,4,7
89,152,1047195,-1029,-16141,-2561,0,-9,9
89,153,1047200,-1054,-16169,-2696,-2,-16,10
89,154,1047205,-1053,-16175,-2817,-1,-12,10
89,155,1047210,-1133,-16177,-2799,-6,-6,8
89,156,1047215,-1175,-16176,-2791,-3,-5,8
89,157,1047220,-1255,-16194,-2854,-2,-4,9
89,158,1047225,-1252,-16238,-2892,-6,4,8
89,159,1047230,-1274,-16217,-2981,-3,11,9
89,160,1047235,-1239,-16209,-3007,-2,13,10
89,161,1047240,-1152,-16163,-3031,2,23,9
89,162,1047245,-1211,-16170,-3108,3,38,6
89,163,1047250,-1154,-16217,-3072,0,57,4
89,164,1047255,-1035,-16240,-2886,-3,77,4
89,165,1047260,-1165,-16149,-2817,-5,91,3
89,166,1047265,-1138,-16126,-2750,-5,110,-3
89,167,1047270,-1114,-16187,-2737,-9,133,-3
89,168,1047275,-1081,-16157,-2523,-9,153,-4
89,169,1047280,-1046,-16161,-2438,-6,146,-4
89,170,1047285,-1077,-16202,-2434,-6,126,-3
89,171,1047290,-1147,-16198,-2272,-7,93,-3
89,172,1047295,-1144,-16176,-2113,-8,48,1
89,173,1047300,-1056,-16168,-2243,-2,4,7
89,174,1047305,-1073,-16165,-2423,1,-25,9
89,175,1047310,-1049,-16117,-2656,1,-49,8
89,176,1047315,-1038,-16134,-2854,4,-69,11
89,177,1047320,-1049,-16169,-3034,3,-65,9
89,178,1047325,-1065,-16153,-3041,2,-43,9
89,179,1047330,-1070,-16192,-2945,2,-16,5
89,180,1047335,-1099,-16174,-2846,-1,3,1
89,181,1047340,-1156,-16192,-2686,-5,2,2
89,182,1047345,-1143,-16200,-2697,0,-9,4
89,183,1047350,-1145,-16186,-2718,2,-17,5
89,184,1047355,-1180,-16190,-2762,1,-20,7
89,185,1047360,-1217,-16167,-2766,0,-23,4
89,186,1047365,-1214,-16198,-2773,-1,-19,1
89,187,1047370,-1196,-16175,-2751,-1,-14,2
89,188,1047375,-1224,-16161,-2722,3,-14,4
89,189,1047380,-1188,-16204,-2729,2,-14,4
89,190,1047385,-1144,-16139,-2751,3,-19,4
89,191,1047390,-1178,-16190,-2782,7,-21,3
89,192,1047395,-1155,-16180,-2773,4,-22,0
89,193,1047400,-1135,-16141,-2735,5,-19,0
89,194,1047405,-1151,-16132,-2711,4,-19,0
89,195,1047410,-1157,-16135,-2715,5,-18,-2
89,196,1047415,-1147,-16140,-2743,6,-15,-3
89,197,1047420,-1179,-16183,-2671,4,-14,-2
89,198,1047425,-1136,-16168,-2677,6,-16,-3
89,199,1047430,-1077,-16185,-2626,4,-16,-2
89,200,1047435,-1042,-16168,-2628,4,-19,-2
89,201,1047440,-1026,-16159,-2654,5,-18,-3
89,202,1047445,-1052,-16185,-2634,3,-20,-1
89,203,1047450,-1093,-16172,-2606,4,-21,-2
89,204,1047455,-1100,-16185,-2605,2,-22,0
89,205,1047460,-1045,-16185,-2618,-1,-17,-2
89,206,1047465,-1012,-16182,-2617,-1,-14,-1
89,207,1047470,-1018,-16214,-2631,0,-14,1
89,208,1047475,-1051,-16193,-2584,0,-17,0
89,209,1047480,-1094,-16195,-2550,-2,-20,0
89,210,1047485,-1165,-16187,-2583,-1,-26,-1
89,211,1047490,-1143,-16180,-2614,-1,-33,0
89,212,1047495,-1074,-16141,-2676,1,-35,1
89,213,1047500,-1055,-16162,-2794,1,-43,2
89,214,1047505,-1141,-16153,-2759,3,-57,2
89,215,1047510,-1192,-16147,-2709,1,-71,0
89,216,1047515,-1219,-16142,-2757,1,-81,1
89,217,1047520,-1230,-16148,-2877,5,-82,-1
89,218,1047525,-1202,-16152,-2926,5,-76,-2
89,219,1047530,-1278,-16135,-2937,4,-70,-3
89,220,1047535,-1203,-16229,-2984,6,-76,-5
89,221,1047540,-1135,-16253,-2941,6,-74,-7
89,222,1047545,-1156,-16213,-2703,4,-74,-5
89,223,1047550,-1091,-16217,-2853,5,-68,-3
89,224,1047555,-977,-16162,-2791,3,-55,-3
89,225,1047560,-880,-16189,-2599,8,-49,-4
89,226,1047565,-904,-16165,-2559,5,-64,-3
89,227,1047570,-964,-16147,-2550,8,-83,-1
89,228,1047575,-982,-16193,-2591,7,-91,0
89,229,1047580,-1015,-16153,-2575,6,-91,0
89,230,1047585,-1056,-16140,-2536,5,-89,1
89,231,1047590,-1030,-16115,-2605,6,-97,2
89,232,1047595,-1065,-16109,-2609,9,-104,2
89,233,1047600,-1147,-16124,-2562,6,-114,1
89,234,1047605,-1231,-16149,-2427,4,-127,1
89,235,1047610,-1276,-16126,-2463,4,-142,0
89,236,1047615,-1263,-16139,-2594,4,-149,0
89,237,1047620,-1276,-16160,-2718,7,-149,0
89,238,1047625,-1245,-16194,-2827,9,-154,1
89,239,1047630,-1316,-16171,-2842,10,-162,0
89,240,1047635,-1306,-16224,-2979,9,-170,1
89,241,1047640,-1343,-16213,-2929,7,-161,-4
89,242,1047645,-1379,-16246,-3046,6,-150,-1
89,243,1047650,-1382,-16250,-3062,9,-124,-4
89,244,1047655,-1322,-16178,-2989,7,-98,-6
89,245,1047660,-1269,-16136,-2816,4,-83,-7
89,246,1047665,-1250,-16188,-2812,8,-80,-6
89,247,1047670,-1161,-16188,-2793,12,-83,-8
89,248,1047675,-1199,-16111,-2668,6,-78,-8
89,249,1047680,-1197,-16113,-2537,6,-81,-8
89,250,1047685,-1201,-16181,-2582,8,-83,-7
89,251,1047690,-1166,-16208,-2826,7,-86,-6
89,252,1047695,-1105,-16192,-2827,8,-80,-6
89,253,1047700,-1060,-16198,-2736,8,-75,-8
89,254,1047705,-1042,-16111,-2847,11,-73,-7
89,255,1047710,-997,-16103,-3045,15,-59,-11
89,256,1047715,-1110,-16159,-3128,9,-21,-16
89,257,1047720,-1264,-16182,-3058,6,21,-18
89,258,1047725,-1252,-16233,-2808,2,59,-20
89,259,1047730,-1255,-16181,-2536,1,82,-18
89,260,1047735,-1289,-16199,-2539,2,82,-18
89,261,1047740,-1194,-16263,-2605,0,87,-15
89,262,1047745,-1141,-16186,-2518,0,84,-18
89,263,1047750,-1230,-16096,-2324,-1,71,-16
89,264,1047755,-1187,-16207,-2423,0,43,-17
89,265,1047760,-1150,-16210,-2464,0,20,-14
89,266,1047765,-1125,-16205,-2515,1,3,-11
89,267,1047770,-1029,-16226,-2581,4,-12,-7
89,268,1047775,-1073,-16197,-2601,3,-28,-8
89,269,1047780,-1090,-16169,-2653,2,-42,-7
89,270,1047785,-1053,-16166,-2768,0,-46,-7
89,271,1047790,-1016,-16125,-2717,0,-34,-6
89,272,1047795,-944,-16152,-2667,4,-23,-7
89,273,1047800,-913,-16162,-2577,5,-21,-9
89,274,1047805,-933,-16144,-2652,5,-28,-7
89,275,1047810,-969,-16155,-2739,4,-29,-7
89,276,1047815,-1047,-16189,-2831,5,-27,-5
89,277,1047820,-1184,-16155,-2772,1,-16,-6
89,278,1047825,-1196,-16120,-2758,0,-20,-7
89,279,1047830,-1076,-16214,-2823,-1,-14,-3
89,280,1047835,-1153,-16160,-2823,-1,4,-2
89,281,1047840,-1208,-16105,-2744,3,6,-5
89,282,1047845,-1196,-16164,-2717,2,-1,-4
89,283,1047850,-1210,-16183,-2742,4,-17,-3
89,284,1047855,-1187,-16159,-2813,5,-26,-1
89,285,1047860,-1212,-16189,-2789,2,-16,-4
89,286,1047865,-1288,-16195,-2676,3,-5,-8
89,287,1047870,-1288,-16190,-2609,2,-8,-5
89,288,1047875,-1217,-16167,-2609,3,-16,-3
89,289,1047880,-1138,-16180,-2678,3,-19,-7
89,290,1047885,-1164,-16171,-2579,2,-7,-9
89,291,1047890,-1158,-16161,-2490,5,-7,-8
89,292,1047895,-1170,-16128,-2557,5,-17,-8
89,293,1047900,-1161,-16131,-2600,2,-21,-8
89,294,1047905,-1000,-16240,-2596,2,-24,-3
89,295,1047910,-1131,-16068,-2494,3,-25,-8
89,296,1047915,-940,-16133,-2619,3,-42,-6
89,297,1047920,-915,-16186,-2550,3,-42,-1
89,298,1047925,-1004,-16116,-2551,6,-43,-1
89,299,1047930,-1067,-16159,-2662,5,-52,-1
89,300,1047935,-1141,-16189,-2736,2,-48,-2
89,301,1047940,-1116,-16172,-2772,3,-43,-1
89,302,1047945,-1019,-16202,-2891,3,-30,-1
89,303,1047950,-1024,-16181,-2855,-3,-17,-3
89,304,1047955,-1075,-16162,-2850,1,-11,-1
89,305,1047960,-1115,-16186,-2827,3,-10,0
89,306,1047965,-1090,-16178,-2773,2,-12,-1
89,307,1047970,-1094,-16160,-2760,2,-14,0
89,308,1047975,-1158,-16192,-2782,4,-16,-1
89,309,1047980,-1128,-16192,-2943,6,-20,1
89,310,1047985,-1084,-16197,-2944,5,-23,1
89,311,1047990,-1126,-16176,-2866,8,-31,2
89,312,1047995,-1120,-16180,-2892,11,-45,3
89,313,1048000,-1113,-16189,-2976,12,-50,3
89,314,1048005,-1215,-16210,-2959,11,-37,1
89,315,1048010,-1279,-16238,-2932,11,-23,-2
89,316,1048015,-1262,-16217,-2838,10,-11,-2
89,317,1048020,-1199,-16216,-2866,9,2,-2
89,318,1048025,-1192,-16198,-2780,10,16,-5
89,319,1048030,-1219,-16212,-2629,9,20,-6
89,320,1048035,-1264,-16212,-2605,14,14,-2
89,321,1048040,-1174,-16146,-2771,14,7,0
89,322,1048045,-1199,-16159,-2736,10,23,-3
89,323,1048050,-1264,-16133,-2614,9,37,-8
89,324,1048055,-1249,-16165,-2641,9,34,-6
89,325,1048060,-1226,-16187,-2646,11,37,-6
89,326,1048065,-1289,-16166,-2651,10,42,-11
89,327,1048070,-1328,-16158,-2607,7,47,-9
89,328,1048075,-1308,-16161,-2633,6,50,-8
89,329,1048080,-1260,-16193,-2688,7,48,-8
89,330,1048085,-1249,-16193,-2715,9,47,-10
89,331,1048090,-1300,-16188,-2755,10,48,-13
89,332,1048095,-1409,-16202,-2777,10,45,-11
89,333,1048100,-1431,-16204,-2829,12,40,-12
89,334,1048105,-1416,-16240,-2914,8,46,-14
89,335,1048110,-1355,-16216,-2941,9,64,-13
89,336,1048115,-1334,-16207,-2892,10,84,-16
89,337,1048120,-1340,-16239,-2906,10,95,-20
89,338,1048125,-1307,-16178,-2782,9,104,-23
89,339,1048130,-1299,-16156,-2771,7,111,-22
89,340,1048135,-1246,-16231,-2749,8,124,-25
89,341,1048140,-1168,-16205,-2737,5,132,-25
89,342,1048145,-1199,-16197,-2641,5,139,-26
89,343,1048150,-1173,-16183,-2596,7,137,-25
89,344,1048155,-1142,-16162,-2545,8,127,-22
89,345,1048160,-1113,-16155,-2571,8,121,-22
89,346,1048165,-1136,-16183,-2541,11,117,-22
89,347,1048170,-1211,-16231,-2524,7,116,-25
89,348,1048175,-1205,-16211,-2406,6,110,-25
89,349,1048180,-1163,-16169,-2459,9,99,-25
89,350,1048185,-1111,-16167,-2505,11,97,-22
89,351,1048190,-1089,-16183,-2534,6,96,-23
89,352,1048195,-1096,-16176,-2509,10,87,-20
89,353,1048200,-1034,-16156,-2506,9,81,-24
89,354,1048205,-1133,-16136,-2470,7,77,-26
89,355,1048210,-1128,-16136,-2493,8,75,-24
89,356,1048215,-1087,-16138,-2551,7,77,-25
89,357,1048220,-1010,-16147,-2496,4,77,-23
89,358,1048225,-979,-16128,-2385,6,75,-23
89,359,1048230,-957,-16126,-2420,7,65,-22
89,360,1048235,-850,-16168,-2471,5,53,-22
89,361,1048240,-802,-16177,-2506,5,44,-20
89,362,1048245,-798,-16193,-2425,7,39,-23
89,363,1048250,-933,-16139,-2363,2,27,-22
89,364,1048255,-793,-16185,-2474,6,7,-16
89,365,1048260,-822,-16195,-2558,5,8,-17
89,366,1048265,-923,-16170,-2493,4,9,-18
89,367,1048270,-950,-16169,-2503,7,-1,-14
89,368,1048275,-973,-16193,-2674,7,-17,-12
89,369,1048280,-918,-16154,-2703,7,-12,-11
89,370,1048285,-913,-16182,-2746,6,-6,-13
89,371,1048290,-877,-16198,-2754,5,-4,-14
89,372,1048295,-882,-16209,-2698,7,-5,-11
89,373,1048300,-863,-16208,-2733,7,-4,-11
89,374,1048305,-826,-16141,-2761,4,2,-13
89,375,1048310,-788,-16158,-2750,3,3,-8
89,376,1048315,-809,-16176,-2686,6,5,-8
89,377,1048320,-828,-16208,-2634,5,0,-8
89,378,1048325,-856,-16166,-2657,4,-10,-7
89,379,1048330,-895,-16178,-2652,7,-13,-6
89,380,1048335,-910,-16186,-2626,7,-9,-4
89,381,1048340,-925,-16158,-2608,5,-7,-4
89,382,1048345,-901,-16160,-2635,5,-12,-2
89,383,1048350,-845,-16168,-2726,5,-8,-3
89,384,1048355,-857,-16166,-2717,8,2,-3
89,385,1048360,-872,-16186,-2740,9,-1,-2
89,386,1048365,-906,-16136,-2745,8,-1,-4
89,387,1048370,-876,-16156,-2733,8,-1,-4
89,388,1048375,-856,-16185,-2759,8,2,-2
89,389,1048380,-921,-16182,-2770,7,10,0
89,390,1048385,-996,-16122,-2760,10,7,0
89,391,1048390,-924,-16091,-2826,9,3,-1
89,392,1048395,-681,-16274,-3000,7,5,1
89,393,1048400,-860,-16189,-2788,8,19,-1
89,394,1048405,-987,-16117,-2697,12,12,-2
89,395,1048410,-935,-16219,-2739,10,-2,1
89,396,1048415,-1018,-16264,-2812,7,8,0
89,397,1048420,-1076,-16132,-2629,10,24,-2
89,398,1048425,-930,-16231,-2638,13,33,6
89,399,1048430,-922,-16220,-2621,9,42,3
89,400,1048435,-1074,-16177,-2581,11,49,-1
89,401,1048440,-1101,-16215,-2711,9,46,3
89,402,1048445,-1165,-16220,-2722,8,55,2
89,403,1048450,-1179,-16169,-2703,8,70,3
89,404,1048455,-1112,-16199,-2646,3,83,0
89,405,1048460,-1055,-16208,-2646,2,88,-1
89,406,1048465,-1021,-16142,-2618,2,94,-2
89,407,1048470,-959,-16149,-2520,4,93,-2
89,408,1048475,-991,-16145,-2450,4,88,-4
89,409,1048480,-929,-16179,-2418,3,75,-3
89,410,1048485,-945,-16148,-2436,6,63,-2
89,411,1048490,-979,-16094,-2427,4,52,-1
89,412,1048495,-848,-16196,-2356,4,35,2
89,413,1048500,-854,-16188,-2309,7,23,0
89,414,1048505,-949,-16134,-2298,6,1,5
89,415,1048510,-928,-16162,-2413,7,-27,6
89,416,1048515,-979,-16171,-2574,6,-41,4
89,417,1048520,-975,-16188,-2673,4,-38,6
89,418,1048525,-970,-16234,-2670,6,-28,5
89,419,1048530,-1065,-16209,-2589,4,-13,6
89,420,1048535,-1141,-16221,-2501,1,-10,3
89,421,1048540,-1220,-16127,-2367,-1,-13,7
89,422,1048545,-1193,-16317,-2299,-2,-16,8
89,423,1048550,-1385,-16269,-2290,-1,-18,11
89,424,1048555,-1564,-16313,-2315,-3,-33,13
89,425,1048560,-1631,-16322,-2445,-2,-53,13
89,426,1048565,-1633,-16289,-2752,-5,-59,20
89,427,1048570,-1501,-16219,-3244,-2,-59,23
89,428,1048575,-1284,-16453,-3715,2,-39,20
89,429,1048580,-1065,-16600,-3613,-4,-7,19
89,430,1048585,-996,-16432,-3219,-9,12,25
89,431,1048590,-765,-16387,-3272,-11,27,30
89,432,1048595,-1025,-16253,-3284,-8,97,19
89,433,1048600,-1492,-16208,-3572,-12,188,4
89,434,1048605,-1838,-16216,-3732,-15,291,-3
89,435,1048610,-2101,-16172,-3941,-19,385,-12
89,436,1048615,-2227,-16205,-3798,-21,485,-21
89,437,1048620,-2233,-16385,-3584,-21,568,-25
89,438,1048625,-2099,-16653,-3146,-26,627,-24
89,439,1048630,-1778,-16835,-2533,-33,669,-27
89,440,1048635,-1681,-16766,-2021,-38,689,-25
89,441,1048640,-1640,-16595,-2111,-37,688,-23
89,442,1048645,-1316,-16591,-2122,-32,639,-11
89,443,1048650,-872,-16609,-1746,-35,578,-5
89,444,1048655,-766,-16472,-1522,-31,490,4
89,445,1048660,-1030,-16494,-1684,-23,391,17
89,446,1048665,-1326,-16560,-2128,-20,327,27
89,447,1048670,-1441,-16598,-2388,-25,315,42
89,448,1048675,-1305,-16637,-2147,-26,327,55
89,449,1048680,-1058,-16627,-1964,-24,336,67
89,450,1048685,-998,-16663,-2065,-22,328,81
89,451,1048690,-1111,-16637,-2241,-17,311,94
89,452,1048695,-1298,-16562,-2323,-20,295,111
89,453,1048700,-1355,-16501,-2274,-22,275,130
89,454,1048705,-1323,-16405,-2348,-20,256,148
89,455,1048710,-1218,-16300,-2329,-22,243,163
89,456,1048715,-1294,-16184,-2328,-22,228,176
89,457,1048720,-1525,-16085,-2415,-19,199,194
89,458,1048725,-1754,-16014,-2512,-18,172,208
89,459,1048730,-1832,-15875,-2607,-18,158,224
89,460,1048735,-1973,-15771,-2578,-18,137,237
89,461,1048740,-2092,-15766,-2582,-14,111,251
89,462,1048745,-2135,-15707,-2748,-10,76,264
89,463,1048750,-2211,-15646,-2772,-9,47,277
89,464,1048755,-2246,-15624,-2821,-8,9,289
89,465,1048760,-2150,-15706,-2689,-7,-29,309
89,466,1048765,-1987,-15697,-2731,1,-62,320
89,467,1048770,-1913,-15705,-2838,4,-77,325
89,468,1048775,-2044,-15677,-2915,4,-82,338
89,469,1048780,-1999,-15704,-2920,6,-80,349
89,470,1048785,-1897,-15738,-2795,5,-75,362
89,471,1048790,-1771,-15773,-2834,10,-59,368
89,472,1048795,-1801,-15756,-2792,10,-37,373
89,473,1048800,-1861,-15753,-2729,8,-28,383
89,474,1048805,-1953,-15815,-2622,10,-38,394
89,475,1048810,-1945,-15807,-2561,10,-48,401
89,476,1048815,-1956,-15812,-2624,11,-58,411
89,477,1048820,-1982,-15900,-2610,16,-73,418
89,478,1048825,-2079,-15951,-2414,14,-99,425
89,479,1048830,-2175,-16028,-2232,17,-143,432
89,480,1048835,-2209,-16099,-2335,23,-191,448
89,481,1048840,-2091,-16229,-2573,24,-221,456
89,482,1048845,-2052,-16301,-2562,23,-231,461
89,483,1048850,-1950,-16202,-2487,23,-246,467
89,484,1048855,-1964,-16165,-2514,26,-264,471
89,485,1048860,-2085,-16139,-2735,31,-268,475
89,486,1048865,-2077,-16104,-2861,34,-242,476
89,487,1048870,-2146,-16045,-2805,31,-198,475
89,488,1048875,-2048,-16020,-2743,32,-176,481
89,489,1048880,-1942,-16051,-2633,32,-176,486
89,490,1048885,-1837,-16012,-2624,34,-186,489
89,491,1048890,-1838,-15998,-2728,39,-191,494
89,492,1048895,-1939,-15968,-2985,44,-199,495
89,493,1048900,-2041,-15980,-3208,44,-211,498
89,494,1048905,-2014,-16044,-3263,47,-208,501
89,495,1048910,-2007,-16115,-3228,49,-193,503
89,496,1048915,-2002,-16122,-3163,56,-165,500
89,497,1048920,-2076,-16104,-3226,63,-138,500
89,498,1048925,-2075,-16097,-3352,68,-116,501
89,499,1048930,-2073,-16106,-3354,67,-96,501
89,500,1048935,-2080,-16079,-3164,69,-76,497
89,501,1048940,-2045,-16028,-3037,75,-62,496
89,502,1048945,-2010,-16007,-3201,80,-55,496
89,503,1048950,-2093,-15975,-3329,81,-38,487
89,504,1048955,-2075,-15899,-3239,83,-18,485
89,505,1048960,-2033,-15910,-3040,86,-15,483
89,506,1048965,-1844,-15976,-3136,95,-15,484
89,507,1048970,-1693,-15978,-3270,98,0,476
89,508,1048975,-1806,-15923,-3392,101,17,467
89,509,1048980,-1942,-15869,-3545,104,45,465
89,510,1048985,-1966,-15848,-3547,104,77,459
89,511,1048990,-1883,-15912,-3455,109,121,453
89,512,1048995,-1864,-16010,-3428,112,171,444
89,513,1049000,-1811,-15998,-3437,115,214,432
89,514,1049005,-1720,-16057,-3470,118,254,427
89,515,1049010,-1460,-16161,-3112,118,316,411
89,516,1049015,-1317,-16154,-2784,118,329,397
89,517,1049020,-1370,-16108,-2665,121,330,387
89,518,1049025,-1397,-16047,-2757,123,311,381
89,519,1049030,-1463,-16037,-2809,123,296,374
89,520,1049035,-1219,-16001,-2808,122,277,364
89,521,1049040,-1067,-15960,-2551,125,262,355
89,522,1049045,-1072,-15871,-2421,128,234,343
89,523,1049050,-1113,-15885,-2576,128,197,335
89,524,1049055,-1226,-15806,-2725,127,185,323
89,525,1049060,-1300,-15836,-2707,123,190,308
89,526,1049065,-1287,-15930,-2610,121,191,297
89,527,1049070,-1244,-16015,-2466,119,193,282
89,528,1049075,-1240,-16026,-2309,116,189,263
89,529,1049080,-1349,-15952,-2125,112,187,242
89,530,1049085,-1620,-15994,-2200,109,174,227
89,531,1049090,-1595,-16068,-2176,107,143,218
89,532,1049095,-1139,-16159,-2294,100,99,204
89,533,1049100,-850,-16184,-1901,94,59,183
89,534,1049105,-1981,-15481,-1181,92,14,158
89,535,1049110,-1438,-15412,-3201,98,-92,150
89,536,1049115,-817,-16279,-4216,98,-44,136
89,537,1049120,-926,-15979,-2887,76,104,79
89,538,1049125,-1235,-15842,-1739,70,95,52
89,539,1049130,-1444,-16107,-2472,85,-29,55
89,540,1049135,-1168,-16253,-3652,89,-60,36
89,541,1049140,-1134,-16218,-3736,74,14,1
89,542,1049145,-1482,-16249,-2985,69,94,-33
89,543,1049150,-1359,-16382,-3028,69,76,-51
89,544,1049155,-1148,-16647,-3619,69,60,-70
89,545,1049160,-1183,-16923,-4007,67,127,-109
89,546,1049165,-1285,-17165,-3918,63,230,-143
89,547,1049170,-1048,-17258,-3625,59,314,-170
89,548,1049175,-906,-17396,-3263,51,360,-203
89,549,1049180,-910,-17436,-3039,44,371,-231
89,550,1049185,-914,-17206,-2788,47,363,-259
89,551,1049190,-922,-16921,-2387,41,331,-287
89,552,1049195,-1382,-16579,-1540,32,256,-317
89,553,1049200,-1561,-16244,-1193,28,96,-340
89,554,1049205,-1606,-16053,-1564,35,-82,-349
89,555,1049210,-1082,-16100,-2399,36,-210,-365
89,556,1049215,-819,-15997,-2359,23,-273,-401
89,557,1049220,-1034,-15781,-2018,20,-346,-433
89,558,1049225,-1413,-15768,-2578,21,-438,-455
89,559,1049230,-1595,-16000,-3645,16,-440,-477
89,560,1049235,-1422,-16154,-4051,5,-298,-516
89,561,1049240,-782,-16305,-3758,-7,-109,-555
89,562,1049245,-281,-16419,-3316,-13,48,-597
89,563,1049250,-365,-16524,-3423,-16,134,-637
89,564,1049255,-639,-16566,-3759,-17,199,-664
89,565,1049260,-687,-16703,-3992,-25,286,-691
89,566,1049265,-413,-16742,-3581,-41,400,-723
89,567,1049270,-154,-16673,-2868,-52,491,-759
89,568,1049275,-409,-16591,-2275,-58,517,-793
89,569,1049280,-658,-16474,-2100,-58,477,-820
89,570,1049285,-812,-16412,-1983,-61,414,-838
89,571,1049290,-472,-16370,-1659,-66,351,-858
89,572,1049295,-98,-16285,-1264,-70,259,-884
89,573,1049300,59,-16132,-1226,-70,122,-906
89,574,1049305,174,-16011,-1791,-69,-46,-916
89,575,1049310,113,-16018,-2295,-68,-185,-932
89,576,1049315,-25,-16116,-2732,-75,-282,-953
89,577,1049320,-206,-16246,-3053,-79,-335,-970
89,578,1049325,-218,-16404,-3990,-78,-342,-990
89,579,1049330,-216,-16657,-4456,-82,-245,-1020
89,580,1049335,-105,-16636,-4468,-98,-123,-1054
89,581,1049340,-362,-16606,-4018,-108,-5,-1087
89,582,1049345,-821,-16612,-3541,-110,76,-1120
89,583,1049350,-1158,-16792,-4034,-107,132,-1142
89,584,1049355,-948,-16981,-4420,-115,230,-1170
89,585,1049360,-854,-16999,-3829,-132,359,-1211
89,586,1049365,-1334,-16834,-2345,-144,430,-1248
89,587,1049370,-1895,-16821,-1580,-145,405,-1270
89,588,1049375,-939,-17535,-2982,-138,305,-1290
89,589,1049380,-29,-17835,-2674,-153,327,-1316
89,590,1049385,501,-18002,-1644,-167,289,-1346
89,591,1049390,363,-18196,-1064,-173,171,-1366
89,592,1049395,182,-18482,-1725,-168,49,-1369
89,593,1049400,-71,-18883,-2554,-177,45,-1376
89,594,1049405,-179,-18924,-2357,-192,117,-1395
89,595,1049410,-166,-18757,-1317,-211,141,-1413
89,596,1049415,-50,-18489,-628,-217,65,-1422
89,597,1049420,-40,-18254,-943,-217,-60,-1423
89,598,1049425,57,-18047,-1442,-226,-159,-1425
89,599,1049430,7011,-8642,-7507,-304,-204,-1316
89,600,1049435,-10107,6045,12421,-192,789,-1404
89,601,1049440,1370,-12688,-182,-123,420,-650
89,602,1049445,8414,-9692,-19778,-22,-1119,-399
89,603,1049450,13196,-18159,9692,-309,2293,-1548
89,604,1049455,-7848,-9339,20422,-355,461,-1806
89,605,1049460,-1039,-16488,-6289,87,-3396,-657
89,606,1049465,-5494,-17976,-12524,-51,-2775,-832
89,607,1049470,-4410,-13788,-12820,-314,-1193,-1142
89,608,1049475,1362,-17357,-2468,-408,405,-1145
89,609,1049480,1783,-15003,1410,-284,486,-1238
89,610,1049485,1664,-15693,-2769,-193,-267,-1171
89,611,1049490,-2211,-15783,-5572,-169,-588,-1135
89,612,1049495,-3206,-15586,-6241,-247,-348,-1144
89,613,1049500,-1408,-15511,-2422,-311,143,-1152
89,614,1049505,1420,-15811,-863,-295,217,-1130
89,615,1049510,2495,-16318,-759,-279,-76,-1125
89,616,1049515,1919,-16509,-3517,-228,-521,-1078
89,617,1049520,286,-16700,-4498,-239,-547,-1065
89,618,1049525,-574,-16331,-2901,-268,-335,-1067
89,619,1049530,211,-16386,-2140,-270,-278,-1023
89,620,1049535,1314,-16182,-2435,-275,-327,-1000
89,621,1049540,1726,-16176,-3465,-274,-401,-978
89,622,1049545,963,-16137,-3232,-277,-360,-969
89,623,1049550,-20,-15802,-2402,-271,-290,-955
89,624,1049555,-77,-15638,-1873,-260,-287,-915
89,625,1049560,645,-15628,-1996,-257,-356,-871
89,626,1049565,1213,-15654,-2201,-258,-437,-837
89,627,1049570,1132,-15718,-2367,-261,-497,-813
89,628,1049575,667,-15689,-2301,-264,-537,-784
89,629,1049580,406,-15778,-2397,-257,-580,-743
89,630,1049585,457,-15821,-2633,-251,-597,-705
89,631,1049590,643,-15691,-2680,-246,-573,-669
89,632,1049595,612,-15688,-2843,-243,-540,-639
89,633,1049600,604,-15787,-3139,-238,-518,-607
89,634,1049605,799,-15960,-3249,-236,-512,-566
89,635,1049610,1010,-15999,-2997,-238,-515,-530
89,636,1049615,1126,-15999,-2672,-230,-530,-498
89,637,1049620,873,-15955,-2791,-219,-550,-464
89,638,1049625,693,-16004,-3173,-208,-565,-429
89,639,1049630,714,-15943,-3042,-207,-569,-394
89,640,1049635,876,-15877,-2636,-204,-582,-363
89,641,1049640,1142,-15894,-2410,-194,-634,-325
89,642,1049645,1298,-15877,-2508,-179,-713,-289
89,643,1049650,1231,-15704,-2709,-167,-795,-253
89,644,1049655,1032,-15631,-2723,-157,-875,-214
89,645,1049660,786,-15552,-2662,-150,-943,-176
89,646,1049665,897,-15479,-2745,-139,-1005,-135
89,647,1049670,993,-15423,-2837,-128,-1043,-99
89,648,1049675,935,-15293,-2883,-119,-1078,-69
89,649,1049680,859,-15242,-2942,-106,-1126,-33
89,650,1049685,849,-15180,-3077,-94,-1168,3
89,651,1049690,1006,-15141,-3284,-84,-1173,31
89,652,1049695,1114,-15087,-3487,-71,-1147,58
89,653,1049700,978,-14995,-3836,-59,-1101,82
89,654,1049705,711,-14962,-4321,-47,-1038,103
89,655,1049710,489,-14902,-4740,-35,-949,129
89,656,1049715,392,-15125,-4916,-25,-822,151
89,657,1049720,614,-15389,-4804,-15,-673,168
89,658,1049725,781,-15378,-4643,-1,-532,181
89,659,1049730,735,-15280,-4487,11,-416,193
89,660,1049735,568,-15249,-4416,25,-337,209
89,661,1049740,605,-15322,-4240,37,-289,227
89,662,1049745,1166,-15504,-3445,59,-243,268
89,663,1049750,1236,-15591,-3040,74,-253,286
89,664,1049755,1193,-15635,-2966,93,-278,304
89,665,1049760,1239,-15702,-2947,105,-313,330
89,666,1049765,1358,-15687,-2704,112,-362,356
89,667,1049770,1505,-15638,-2524,125,-435,378
89,668,1049775,1480,-15628,-2641,143,-521,405
89,669,1049780,1274,-15574,-3023,156,-588,424
89,670,1049785,900,-15529,-3260,161,-599,437
89,671,1049790,750,-15514,-3369,169,-580,453
89,672,1049795,956,-15613,-3468,181,-547,472
89,673,1049800,1276,-15638,-3545,190,-494,481
89,674,1049805,1584,-15806,-3757,201,-445,490
89,675,1049810,1526,-15856,-3891,206,-392,494
89,676,1049815,1381,-15838,-3949,211,-363,498
89,677,1049820,1254,-15863,-3987,216,-336,513
89,678,1049825,1172,-15822,-3798,220,-290,519
89,679,1049830,1262,-15859,-3833,227,-246,530
89,680,1049835,1150,-15822,-3754,236,-190,532
89,681,1049840,1043,-15740,-3576,242,-171,538
89,682,1049845,931,-15708,-3355,248,-199,548
89,683,1049850,904,-15684,-3200,256,-251,559
89,684,1049855,948,-15673,-3238,264,-305,567
89,685,1049860,857,-15674,-3326,269,-342,571
89,686,1049865,733,-15712,-3424,271,-376,572
89,687,1049870,618,-15726,-3627,280,-399,576
89,688,1049875,637,-15796,-4006,287,-389,581
89,689,1049880,649,-15847,-4262,287,-342,579
89,690,1049885,632,-15927,-4362,290,-261,572
89,691,1049890,634,-16105,-4325,290,-170,566
89,692,1049895,733,-16238,-4176,288,-73,561
89,693,1049900,962,-16247,-3885,286,29,555
89,694,1049905,1013,-16159,-3480,282,124,542
89,695,1049910,947,-16073,-3193,281,173,535
89,696,1049915,1088,-16161,-3114,280,168,536
89,697,1049920,1255,-16308,-2980,276,141,537
89,698,1049925,1572,-16415,-2709,268,104,539
89,699,1049930,1557,-16498,-2294,267,49,539
89,700,1049935,1160,-16485,-2316,271,-26,536
89,701,1049940,700,-16438,-2796,270,-105,540
89,702,1049945,495,-16514,-3245,270,-159,541
89,703,1049950,549,-16485,-3346,268,-175,541
89,704,1049955,526,-16435,-3305,265,-184,533
89,705,1049960,389,-16376,-3397,267,-205,525
89,706,1049965,283,-16321,-3846,270,-212,518
89,707,1049970,250,-16359,-4260,268,-177,511
89,708,1049975,369,-16349,-4122,263,-106,497
89,709,1049980,452,-16339,-3814,257,-42,483
89,710,1049985,528,-16320,-3605,254,0,473
89,711,1049990,449,-16305,-3550,252,31,459
89,712,1049995,319,-16242,-3495,252,59,448
89,713,1050000,351,-16212,-3472,249,76,440
89,714,1050005,577,-16247,-3330,243,86,434
89,715,1050010,812,-16277,-3294,241,85,425
89,716,1050015,933,-16285,-3379,239,84,415
89,717,1050020,742,-16297,-3471,236,92,404
89,718,1050025,489,-16247,-3444,233,108,396
89,719,1050030,310,-16252,-3386,233,117,390
89,720,1050035,235,-16321,-3437,231,126,386
89,721,1050040,358,-16372,-3413,227,141,377
89,722,1050045,496,-16468,-3297,225,159,370
89,723,1050050,539,-16482,-3192,223,173,360
89,724,1050055,503,-16446,-3121,218,177,346
89,725,1050060,390,-16383,-3184,215,178,337
89,726,1050065,362,-16340,-3241,211,182,332
89,727,1050070,299,-16318,-3105,203,190,322
89,728,1050075,216,-16216,-2991,201,190,310
89,729,1050080,182,-16181,-2975,204,177,301
89,730,1050085,214,-16140,-3216,203,162,296
89,731,1050090,214,-16104,-3207,198,157,284
89,732,1050095,193,-16012,-3074,191,140,278
89,733,1050100,111,-16034,-3070,192,116,274
89,734,1050105,55,-16107,-3171,192,102,265
89,735,1050110,133,-16226,-3072,187,133,253
89,736,1050115,309,-16221,-2884,183,153,246
89,737,1050120,358,-16240,-2733,183,163,236
89,738,1050125,263,-16307,-2693,180,161,227
89,739,1050130,325,-16332,-2680,171,151,224
89,740,1050135,293,-16219,-2519,164,152,215
89,741,1050140,195,-16224,-2498,163,142,209
89,742,1050145,111,-16215,-2695,161,123,204
89,743,1050150,72,-16235,-2896,156,116,196
89,744,1050155,-20,-16198,-2983,149,121,190
89,745,1050160,-37,-16174,-2996,146,123,184
89,746,1050165,-47,-16227,-3131,146,122,177
89,747,1050170,-44,-16195,-3297,144,123,170
89,748,1050175,-171,-16190,-3266,141,138,162
89,749,1050180,-288,-16229,-3133,138,144,154
89,750,1050185,-265,-16221,-2948,138,142,152
89,751,1050190,-135,-16215,-2960,135,141,146
89,752,1050195,-84,-16249,-3055,137,141,141
89,753,1050200,-161,-16307,-3108,135,145,133
89,754,1050205,-162,-16307,-3187,132,145,126
89,755,1050210,-186,-16387,-3273,130,145,125
89,756,1050215,-38,-16472,-3233,124,160,117
89,757,1050220,42,-16484,-3100,120,184,109
89,758,1050225,-75,-16550,-2955,120,207,104
89,759,1050230,-234,-16567,-3016,120,219,94
89,760,1050235,-234,-16551,-2892,119,236,89
89,761,1050240,-200,-16545,-2664,112,256,87
89,762,1050245,-40,-16464,-2477,108,252,84
89,763,1050250,24,-16437,-2431,101,233,80
89,764,1050255,-30,-16412,-2468,101,201,75
89,765,1050260,-61,-16365,-2471,98,170,75
89,766,1050265,-65,-16314,-2497,96,139,74
89,767,1050270,-33,-16302,-2666,92,117,69
89,768,1050275,34,-16341,-2963,90,106,67
89,769,1050280,-10,-16315,-3148,86,113,59
89,770,1050285,-207,-16275,-3210,80,132,51
89,771,1050290,-310,-16329,-3251,75,148,50
89,772,1050295,-241,-16358,-3173,74,173,50
89,773,1050300,-97,-16371,-2987,69,208,47
89,774,1050305,-236,-16309,-2711,66,240,36
89,775,1050310,-414,-16272,-2517,64,242,31
89,776,1050315,-547,-16284,-2506,61,218,32
89,777,1050320,-430,-16340,-2493,57,199,32
89,778,1050325,-80,-16330,-2493,53,186,29
89,779,1050330,168,-16312,-2333,48,168,28
89,780,1050335,166,-16314,-2351,45,135,26
89,781,1050340,41,-16288,-2573,43,98,26
89,782,1050345,-84,-16200,-2773,37,84,23
89,783,1050350,-130,-16184,-2793,34,92,23
89,784,1050355,-49,-16154,-2788,27,102,20
89,785,1050360,87,-16120,-2765,26,107,13
89,786,1050365,131,-16130,-2792,22,103,13
89,787,1050370,42,-16142,-2831,21,94,13
89,788,1050375,16,-16096,-2846,17,83,10
89,789,1050380,46,-16143,-2775,15,76,12
89,790,1050385,17,-16240,-2734,10,70,10
89,791,1050390,-159,-16277,-2886,8,69,8
89,792,1050395,-238,-16382,-3010,7,76,6
89,793,1050400,-216,-16455,-3023,2,92,6
89,794,1050405,-139,-16424,-2844,-4,106,2
89,795,1050410,-173,-16345,-2657,-6,110,-4
89,796,1050415,-392,-16307,-2652,-10,95,-6
89,797,1050420,-442,-16301,-2801,-9,76,-5
89,798,1050425,-298,-16349,-2902,-11,79,-7
89,799,1050430,-134,-16355,-2708,-17,85,-11
89,800,1050435,-41,-16324,-2626,-17,76,-18
89,801,1050440,-40,-16315,-2763,-16,55,-19
89,802,1050445,-124,-16365,-2896,-17,41,-20
89,803,1050450,-168,-16406,-2877,-21,37,-24
89,804,1050455,-117,-16428,-2759,-28,39,-25
89,805,1050460,37,-16428,-2731,-30,36,-29
89,806,1050465,48,-16375,-2775,-30,27,-31
89,807,1050470,-159,-16362,-2868,-32,18,-31
89,808,1050475,-279,-16353,-2778,-36,10,-33
89,809,1050480,-140,-16357,-2620,-42,23,-34
89,810,1050485,-88,-16243,-2445,-48,40,-43
89,811,1050490,-154,-16132,-2465,-47,54,-48
89,812,1050495,-253,-16069,-2487,-48,51,-47
89,813,1050500,-128,-16032,-2459,-54,43,-49
89,814,1050505,-30,-15996,-2270,-56,39,-50
89,815,1050510,34,-15990,-2272,-61,31,-56
89,816,1050515,7,-15999,-2444,-63,13,-53
89,817,1050520,-93,-16020,-2551,-66,-7,-50
89,818,1050525,-63,-16073,-2509,-66,-27,-54
89,819,1050530,-54,-16108,-2447,-69,-47,-54
89,820,1050535,-23,-16191,-2451,-70,-77,-52
89,821,1050540,-45,-16264,-2589,-69,-99,-51
89,822,1050545,-158,-16245,-2753,-73,-110,-53
89,823,1050550,-213,-16270,-2909,-71,-110,-53
89,824,1050555,-203,-16343,-2960,-75,-100,-54
89,825,1050560,-152,-16370,-2890,-79,-82,-58
89,826,1050565,-181,-16344,-2936,-78,-61,-60
89,827,1050570,-378,-16292,-2961,-75,-36,-66
89,828,1050575,-499,-16284,-2875,-78,-8,-70
89,829,1050580,-455,-16272,-2754,-83,15,-68
89,830,1050585,-287,-16314,-2623,-81,25,-68
89,831,1050590,-101,-16293,-2527,-79,24,-69
89,832,1050595,-93,-16266,-2505,-81,14,-71
89,833,1050600,-149,-16243,-2632,-78,-8,-71
89,834,1050605,-223,-16243,-2768,-77,-26,-72
89,835,1050610,-435,-16215,-2711,-79,-31,-71
89,836,1050615,-338,-16221,-2677,-78,-35,-67
89,837,1050620,-170,-16284,-2739,-77,-30,-67
89,838,1050625,-180,-16342,-2729,-76,-26,-70
89,839,1050630,-225,-16308,-2595,-75,-29,-70
89,840,1050635,-288,-16279,-2617,-71,-45,-66
89,841,1050640,-290,-16222,-2628,-70,-57,-66
89,842,1050645,-321,-16215,-2689,-70,-55,-66
89,843,1050650,-321,-16224,-2644,-67,-49,-65
89,844,1050655,-251,-16184,-2677,-67,-44,-62
89,845,1050660,-130,-16130,-2669,-67,-34,-65
89,846,1050665,-141,-16176,-2598,-66,-23,-65
89,847,1050670,-148,-16136,-2566,-64,-15,-61
89,848,1050675,-176,-16149,-2499,-62,-15,-63
89,849,1050680,-224,-16179,-2541,-60,-19,-62
89,850,1050685,-206,-16181,-2541,-59,-27,-58
89,851,1050690,-244,-16203,-2547,-56,-33,-57
89,852,1050695,-207,-16226,-2513,-53,-44,-53
89,853,1050700,-201,-16252,-2542,-49,-62,-47
89,854,1050705,-170,-16275,-2608,-48,-76,-46
89,855,1050710,-221,-16228,-2641,-45,-87,-41
89,856,1050715,-313,-16174,-2688,-45,-88,-42
89,857,1050720,-321,-16128,-2696,-41,-81,-42
89,858,1050725,-415,-16132,-2788,-38,-71,-39
89,859,1050730,-439,-16167,-2862,-36,-54,-41
89,860,1050735,-462,-16110,-2723,-33,-31,-40
89,861,1050740,-404,-16119,-2607,-36,-14,-39
89,862,1050745,-345,-16147,-2528,-32,-4,-40
89,863,1050750,-356,-16142,-2502,-29,-4,-41
89,864,1050755,-363,-16158,-2544,-27,-10,-39
89,865,1050760,-375,-16189,-2563,-22,-20,-34
89,866,1050765,-346,-16174,-2624,-20,-26,-31
89,867,1050770,-339,-16216,-2778,-20,-27,-30
89,868,1050775,-290,-16242,-2786,-15,-19,-30
89,869,1050780,-310,-16222,-2724,-12,-8,-32
89,870,1050785,-365,-16164,-2715,-10,0,-32
89,871,1050790,-515,-16164,-2616,-7,6,-31
89,872,1050795,-472,-16203,-2564,-8,10,-26
89,873,1050800,-340,-16200,-2467,-7,14,-22
89,874,1050805,-233,-16199,-2314,-5,13,-23
89,875,1050810,-290,-16158,-2258,3,-6,-22
89,876,1050815,-376,-16161,-2446,4,-34,-19
89,877,1050820,-402,-16150,-2569,5,-52,-17
89,878,1050825,-311,-16109,-2632,6,-54,-12
89,879,1050830,-242,-16083,-2694,7,-40,-11
89,880,1050835,-287,-16113,-2730,11,-30,-12
89,881,1050840,-363,-16134,-2883,14,-18,-10
89,882,1050845,-392,-16122,-2861,18,29,-11
89,883,1050850,-377,-16120,-2706,21,45,-8
89,884,1050855,-341,-16156,-2697,21,46,-7
89,885,1050860,-325,-16208,-2587,27,38,-6
89,886,1050865,-341,-16202,-2541,28,24,-5
89,887,1050870,-408,-16233,-2513,27,5,-2
89,888,1050875,-327,-16273,-2541,31,-15,1
89,889,1050880,-298,-16255,-2545,32,-29,5
89,890,1050885,-323,-16267,-2578,32,-27,8
89,891,1050890,-289,-16207,-2670,33,-19,6
89,892,1050895,-395,-16223,-2757,37,-7,5
89,893,1050900,-427,-16192,-2847,36,6,6
89,894,1050905,-385,-16182,-2877,37,24,8
89,895,1050910,-288,-16220,-2852,43,38,10
89,896,1050915,-311,-16175,-2789,42,46,10
89,897,1050920,-348,-16183,-2766,42,43,8
89,898,1050925,-335,-16206,-2772,44,34,10
89,899,1050930,-316,-16222,-2783,46,30,17
89,900,1050935,-262,-16232,-2682,46,26,16
89,901,1050940,-231,-16220,-2662,47,21,19
89,902,1050945,-249,-16170,-2673,51,12,18
89,903,1050950,-335,-16122,-2723,50,3,19
89,904,1050955,-382,-16068,-2768,50,1,19
89,905,1050960,-434,-16105,-2708,48,8,19
89,906,1050965,-417,-16094,-2660,49,15,20
89,907,1050970,-400,-16143,-2655,51,18,22
89,908,1050975,-332,-16190,-2649,50,24,21
89,909,1050980,-299,-16164,-2657,50,27,19
89,910,1050985,-253,-16188,-2647,51,28,23
89,911,1050990,-209,-16230,-2651,50,25,24
89,912,1050995,-137,-16248,-2676,51,18,24
89,913,1051000,-116,-16260,-2751,48,19,24
89,914,1051005,-113,-16301,-2758,47,24,25
89,915,1051010,-261,-16327,-2782,44,30,24
89,916,1051015,-265,-16386,-2833,44,35,24
89,917,1051020,-190,-16429,-2809,45,37,27
89,918,1051025,-171,-16387,-2793,46,38,28
89,919,1051030,-250,-16314,-2733,42,34,26
89,920,1051035,-407,-16247,-2699,44,22,26
89,921,1051040,-514,-16236,-2767,45,10,29
89,922,1051045,-493,-16175,-2810,43,6,27
89,923,1051050,-468,-16117,-2778,42,13,26
89,924,1051055,-445,-16160,-2705,39,24,25
89,925,1051060,-438,-16117,-2724,37,23,22
89,926,1051065,-409,-16150,-2787,40,25,20
89,927,1051070,-327,-16167,-2685,36,34,20
89,928,1051075,-208,-16160,-2583,31,40,18
89,929,1051080,-185,-16156,-2541,28,38,14
89,930,1051085,-198,-16151,-2633,30,25,19
89,931,1051090,-207,-16227,-2670,28,12,19
89,932,1051095,-208,-16283,-2659,23,5,16
89,933,1051100,-152,-16251,-2589,20,-3,17
89,934,1051105,-162,-16260,-2692,20,-12,19
89,935,1051110,-287,-16289,-2826,20,-14,18
89,936,1051115,-381,-16304,-2842,20,-10,17
89,937,1051120,-412,-16309,-2813,16,-1,14
89,938,1051125,-340,-16321,-2760,13,6,14
89,939,1051130,-283,-16251,-2823,12,14,13
89,940,1051135,-279,-16223,-2837,10,19,8
89,941,1051140,-301,-16176,-2842,8,22,8
89,942,1051145,-323,-16147,-2883,5,22,7
89,943,1051150,-298,-16153,-2833,3,25,6
89,944,1051155,-230,-16163,-2800,0,29,6
89,945,1051160,-141,-16192,-2729,0,33,2
89,946,1051165,-98,-16185,-2781,-2,32,1
89,947,1051170,-96,-16184,-2797,-4,26,5
89,948,1051175,-85,-16247,-2830,-3,17,4
89,949,1051180,-64,-16242,-2750,-5,7,2
89,950,1051185,-140,-16263,-2705,-8,-7,5
89,951,1051190,-167,-16359,-2716,-8,-22,7
89,952,1051195,-129,-16375,-2740,-9,-28,7
89,953,1051200,-87,-16306,-2755,-10,-22,5
89,954,1051205,-118,-16284,-2755,-14,-15,4
89,955,1051210,-254,-16243,-2723,-15,-16,4
89,956,1051215,-248,-16242,-2774,-19,-11,2
89,957,1051220,-259,-16234,-2776,-17,3,-1
89,958,1051225,-261,-16197,-2698,-21,10,-2
89,959,1051230,-237,-16187,-2695,-21,10,1
89,960,1051235,-203,-16209,-2681,-21,8,-2
89,961,1051240,-175,-16230,-2714,-24,7,-1
89,962,1051245,-127,-16208,-2644,-27,1,-5
89,963,1051250,-147,-16200,-2612,-25,-13,-6
89,964,1051255,-219,-16212,-2725,-24,-32,-4
89,965,1051260,-269,-16207,-2789,-25,-50,-3
89,966,1051265,-284,-16218,-2811,-26,-58,-4
89,967,1051270,-250,-16207,-2732,-26,-63,0
89,968,1051275,-214,-16209,-2762,-25,-69,1
89,969,1051280,-205,-16225,-2793,-26,-69,-3
89,970,1051285,-266,-16153,-2868,-25,-64,-4
89,971,1051290,-357,-16102,-2788,-26,-56,-9
89,972,1051295,-328,-16090,-2747,-29,-40,-10
89,973,1051300,-248,-16098,-2735,-30,-30,-10
89,974,1051305,-209,-16075,-2694,-30,-19,-12
89,975,1051310,-169,-16123,-2680,-28,-13,-13
89,976,1051315,-246,-16144,-2663,-28,-15,-17
89,977,1051320,-344,-16152,-2639,-29,-28,-15
89,978,1051325,-282,-16234,-2642,-29,-37,-13
89,979,1051330,-163,-16332,-2688,-28,-40,-14
89,980,1051335,-135,-16373,-2664,-30,-42,-13
89,981,1051340,-156,-16354,-2721,-29,-51,-14
89,982,1051345,-273,-16352,-2725,-25,-66,-9
89,983,1051350,-343,-16341,-2775,-22,-69,-10
89,984,1051355,-342,-16362,-2789,-25,-62,-12
89,985,1051360,-255,-16338,-2765,-23,-43,-13
89,986,1051365,-223,-16298,-2732,-24,-27,-14
89,987,1051370,-298,-16244,-2696,-26,-18,-18
89,988,1051375,-345,-16230,-2664,-25,-16,-18
89,989,1051380,-346,-16188,-2640,-24,-11,-15
89,990,1051385,-286,-16168,-2616,-25,-7,-19
89,991,1051390,-330,-16156,-2575,-26,-8,-17
89,992,1051395,-330,-16161,-2591,-24,-19,-14
89,993,1051400,-449,-16142,-2686,-20,-35,-14
89,994,1051405,-494,-16159,-2780,-16,-43,-17
89,995,1051410,-478,-16141,-2759,-18,-48,-15
89,996,1051415,-449,-16138,-2767,-17,-47,-14
89,997,1051420,-377,-16196,-2809,-16,-44,-13
89,998,1051425,-351,-16173,-2781,-17,-36,-14
89,999,1051430,-426,-16164,-2759,-14,-23,-19
