event_id,seq,ts_ms,ax,ay,az,gx,gy,gz
1,0,88190,-427,-16464,1224,10,-5,4
1,1,88195,-402,-16465,1264,7,-11,4
1,2,88200,-379,-16467,1274,5,-13,0
1,3,88205,-350,-16408,1234,6,-13,2
1,4,88210,-329,-16421,1170,8,-14,5
1,5,88215,-346,-16419,1132,5,-15,3
1,6,88220,-334,-16392,1148,4,-17,2
1,7,88225,-350,-16400,1141,3,-16,0
1,8,88230,-334,-16413,1068,4,-16,3
1,9,88235,-323,-16416,1076,5,-7,1
1,10,88240,-346,-16472,1033,4,5,2
1,11,88245,-283,-16491,1001,5,11,3
1,12,88250,-327,-16481,1026,4,12,2
1,13,88255,-367,-16495,1065,2,14,3
1,14,88260,-385,-16507,1065,3,21,2
1,15,88265,-452,-16488,1048,6,29,2
1,16,88270,-503,-16435,1085,4,37,1
1,17,88275,-515,-16455,1099,3,40,3
1,18,88280,-468,-16480,1172,2,40,1
1,19,88285,-431,-16481,1237,2,35,0
1,20,88290,-438,-16412,1224,3,31,-3
1,21,88295,-441,-16416,1237,1,24,-3
1,22,88300,-421,-16435,1231,2,16,-5
1,23,88305,-362,-16406,1301,2,5,-1
1,24,88310,-360,-16409,1290,-1,-6,0
1,25,88315,-389,-16434,1239,-3,-13,-1
1,26,88320,-408,-16427,1196,-2,-15,-2
1,27,88325,-410,-16439,1188,-2,-19,-2
1,28,88330,-373,-16401,1115,-1,-21,0
1,29,88335,-301,-16442,1135,0,-24,-1
1,30,88340,-287,-16455,1092,-4,-23,-1
1,31,88345,-261,-16489,1018,-5,-17,1
1,32,88350,-257,-16492,1025,-4,-9,-2
1,33,88355,-267,-16466,1023,-3,-1,-4
1,34,88360,-263,-16473,1006,-5,1,-4
1,35,88365,-286,-16522,1049,-4,7,-2
1,36,88370,-350,-16556,1045,-3,13,-3
1,37,88375,-435,-16497,1047,-5,23,-1
1,38,88380,-431,-16498,1095,-3,32,-1
1,39,88385,-415,-16510,1083,-3,39,-4
1,40,88390,-452,-16507,1059,-3,42,-5
1,41,88395,-464,-16505,1061,-1,41,-5
1,42,88400,-497,-16453,1110,-6,39,-6
1,43,88405,-434,-16475,1154,-3,33,-7
1,44,88410,-405,-16430,1135,0,24,-4
1,45,88415,-365,-16387,1129,-4,19,-7
1,46,88420,-287,-16369,1164,-4,9,-6
1,47,88425,-278,-16279,1190,-1,-3,-6
1,48,88430,-246,-16236,1100,0,-15,-4
1,49,88435,-247,-16181,1095,0,-23,-1
1,50,88440,-222,-16191,1079,-1,-25,0
1,51,88445,-181,-16173,1032,-4,-22,0
1,52,88450,-180,-16101,1071,-3,-21,0
1,53,88455,-207,-16100,1078,-3,-15,0
1,54,88460,-248,-16157,1085,-2,-5,2
1,55,88465,-338,-16180,1076,-6,6,2
1,56,88470,-412,-16212,1109,-7,25,-1
1,57,88475,-439,-16216,1115,-6,42,-1
1,58,88480,-536,-16277,1109,-7,54,-3
1,59,88485,-578,-16313,1198,-6,63,-5
1,60,88490,-590,-16365,1263,-7,69,-5
1,61,88495,-575,-16351,1265,-8,67,-7
1,62,88500,-612,-16383,1229,-7,61,-10
1,63,88505,-629,-16430,1260,-9,53,-7
1,64,88510,-606,-16450,1285,-9,32,-9
1,65,88515,-565,-16458,1325,-9,16,-10
1,66,88520,-574,-16481,1311,-13,-7,-10
1,67,88525,-532,-16517,1257,-13,-22,-12
1,68,88530,-541,-16527,1209,-11,-34,-10
1,69,88535,-548,-16509,1247,-13,-46,-11
1,70,88540,-536,-16492,1214,-11,-58,-9
1,71,88545,-504,-16541,1108,-10,-60,-13
1,72,88550,-495,-16536,1072,-12,-55,-12
1,73,88555,-470,-16537,1022,-11,-48,-14
1,74,88560,-476,-16556,1028,-14,-44,-16
1,75,88565,-487,-16601,976,-13,-37,-15
1,76,88570,-447,-16644,943,-13,-30,-18
1,77,88575,-405,-16673,948,-13,-19,-19
1,78,88580,-441,-16631,974,-14,-10,-19
1,79,88585,-445,-16656,1035,-14,-7,-19
1,80,88590,-417,-16625,987,-14,-7,-20
1,81,88595,-405,-16639,971,-11,0,-20
1,82,88600,-393,-16653,969,-10,2,-18
1,83,88605,-405,-16627,1061,-11,-2,-18
1,84,88610,-416,-16654,1050,-10,-9,-20
1,85,88615,-395,-16647,981,-9,-15,-20
1,86,88620,-325,-16671,1023,-9,-20,-18
1,87,88625,-321,-16651,1013,-10,-24,-18
1,88,88630,-310,-16640,979,-11,-29,-19
1,89,88635,-286,-16627,991,-7,-28,-20
1,90,88640,-295,-16602,1031,-8,-31,-15
1,91,88645,-329,-16601,1011,-9,-28,-16
1,92,88650,-332,-16539,994,-7,-22,-18
1,93,88655,-364,-16508,990,-4,-16,-17
1,94,88660,-365,-16501,1013,-7,-8,-17
1,95,88665,-286,-16509,1017,-9,-1,-18
1,96,88670,-269,-16428,996,-7,5,-19
1,97,88675,-240,-16448,1025,-8,10,-19
1,98,88680,-281,-16428,1063,-11,13,-20
1,99,88685,-297,-16384,1037,-9,15,-18
1,100,88690,-291,-16372,1062,-7,20,-16
1,101,88695,-302,-16373,1077,-8,23,-16
1,102,88700,-344,-16394,1073,-10,24,-18
1,103,88705,-386,-16410,1072,-11,22,-17
1,104,88710,-392,-16457,1140,-9,20,-17
1,105,88715,-368,-16454,1161,-10,20,-17
1,106,88720,-412,-16501,1162,-9,22,-17
1,107,88725,-453,-16486,1135,-10,19,-17
1,108,88730,-485,-16502,1115,-10,12,-18
1,109,88735,-478,-16516,1149,-10,3,-16
1,110,88740,-459,-16540,1146,-8,0,-17
1,111,88745,-500,-16527,1124,-10,1,-17
1,112,88750,-474,-16520,1154,-6,-3,-15
1,113,88755,-430,-16503,1159,-8,-6,-15
1,114,88760,-413,-16509,1107,-9,-14,-17
1,115,88765,-389,-16540,1103,-9,-24,-14
1,116,88770,-414,-16467,1096,-7,-28,-16
1,117,88775,-415,-16499,1109,-8,-26,-18
1,118,88780,-364,-16478,1101,-8,-26,-18
1,119,88785,-346,-16486,1067,-9,-30,-14
1,120,88790,-300,-16464,1073,-5,-29,-12
1,121,88795,-295,-16436,1095,-7,-27,-14
1,122,88800,-290,-16395,1064,-8,-24,-14
1,123,88805,-280,-16406,1040,-10,-22,-12
1,124,88810,-276,-16382,1044,-8,-15,-14
1,125,88815,-177,-16368,958,-9,-12,-15
1,126,88820,-224,-16388,967,-9,-13,-13
1,127,88825,-268,-16388,959,-7,-14,-11
1,128,88830,-290,-16400,980,-9,-12,-10
1,129,88835,-326,-16418,979,-8,-8,-10
1,130,88840,-272,-16412,1000,-7,-5,-10
1,131,88845,-218,-16401,1029,-3,-5,-5
1,132,88850,-207,-16422,998,-2,-5,-6
1,133,88855,-172,-16382,1061,-3,0,-7
1,134,88860,-231,-16376,1040,-4,0,-10
1,135,88865,-214,-16420,989,-3,-5,-7
1,136,88870,-248,-16438,938,-3,-4,-5
1,137,88875,-284,-16435,944,-2,-1,-5
1,138,88880,-254,-16448,983,-3,-3,-4
1,139,88885,-302,-16449,959,-1,-2,-2
1,140,88890,-289,-16488,998,1,-1,-1
1,141,88895,-281,-16461,988,1,4,-5
1,142,88900,-308,-16462,994,1,6,-5
1,143,88905,-289,-16453,1053,2,11,-3
1,144,88910,-330,-16449,1058,0,15,-3
1,145,88915,-299,-16409,1067,1,15,-4
1,146,88920,-333,-16384,1063,3,17,0
1,147,88925,-355,-16414,1072,3,20,0
1,148,88930,-406,-16402,1044,0,24,-2
1,149,88935,-474,-16389,1025,6,26,0
1,150,88940,-473,-16428,1049,3,24,-1
1,151,88945,-464,-16409,1083,1,21,-1
1,152,88950,-427,-16433,1085,4,17,-1
1,153,88955,-424,-16458,1116,3,12,0
1,154,88960,-383,-16461,1169,5,6,-2
1,155,88965,-408,-16453,1172,7,0,-1
1,156,88970,-397,-16473,1193,6,-11,2
1,157,88975,-410,-16484,1148,7,-23,-1
1,158,88980,-493,-16474,1049,4,-27,1
1,159,88985,-454,-16469,1040,4,-28,1
1,160,88990,-464,-16456,1022,4,-28,0
1,161,88995,-474,-16490,1021,6,-27,2
1,162,89000,-431,-16452,1056,3,-27,1
1,163,89005,-423,-16450,1029,5,-21,-2
1,164,89010,-439,-16455,1034,6,-16,-2
1,165,89015,-463,-16454,1075,6,-11,-3
1,166,89020,-424,-16423,1139,5,-3,-3
1,167,89025,-440,-16415,1159,5,-2,-2
1,168,89030,-407,-16392,1131,6,1,0
1,169,89035,-376,-16392,1102,4,4,-3
1,170,89040,-394,-16423,1165,5,6,-3
1,171,89045,-365,-16438,1199,4,-4,-2
1,172,89050,-375,-16460,1170,4,-13,1
1,173,89055,-373,-16521,1169,6,-22,1
1,174,89060,-378,-16610,1104,3,-26,1
1,175,89065,-404,-16605,1085,7,-30,1
1,176,89070,-434,-16575,1142,8,-38,0
1,177,89075,-385,-16624,1090,5,-47,0
1,178,89080,-394,-16661,1099,8,-44,3
1,179,89085,-438,-16618,1040,7,-45,1
1,180,89090,-439,-16622,984,7,-41,0
1,181,89095,-406,-16613,956,8,-36,-1
1,182,89100,-399,-16585,956,8,-33,-2
1,183,89105,-387,-16617,1022,6,-29,0
1,184,89110,-387,-16594,987,8,-24,-1
1,185,89115,-365,-16574,947,10,-25,-3
1,186,89120,-322,-16529,950,8,-26,0
1,187,89125,-306,-16521,994,9,-22,0
1,188,89130,-265,-16486,1020,11,-24,0
1,189,89135,-257,-16505,1002,13,-32,1
1,190,89140,-204,-16488,959,12,-37,-1
1,191,89145,-238,-16437,960,14,-38,2
1,192,89150,-254,-16440,974,12,-37,2
1,193,89155,-280,-16449,944,15,-33,4
1,194,89160,-312,-16504,886,15,-27,4
1,195,89165,-344,-16544,888,15,-24,5
1,196,89170,-391,-16501,984,15,-20,3
1,197,89175,-384,-16513,1031,16,-16,3
1,198,89180,-365,-16501,1022,16,-4,3
1,199,89185,-397,-16516,1010,18,3,3
1,200,89190,-409,-16494,1014,17,9,2
1,201,89195,-436,-16440,1045,18,11,2
1,202,89200,-399,-16435,1100,19,6,2
1,203,89205,-402,-16419,1160,17,-1,3
1,204,89210,-420,-16450,1179,17,-6,3
1,205,89215,-438,-16474,1114,19,-7,2
1,206,89220,-520,-16483,1107,17,-8,1
1,207,89225,-482,-16464,1092,18,-12,0
1,208,89230,-448,-16451,1130,18,-20,2
1,209,89235,-382,-16402,1180,16,-30,2
1,210,89240,-340,-16393,1157,14,-39,0
1,211,89245,-390,-16422,1095,17,-43,1
1,212,89250,-331,-16443,1116,16,-40,1
1,213,89255,-318,-16424,1042,18,-44,4
1,214,89260,-319,-16404,1061,19,-51,6
1,215,89265,-310,-16438,1047,16,-51,4
1,216,89270,-315,-16457,1029,15,-48,2
1,217,89275,-280,-16455,1014,18,-40,6
1,218,89280,-286,-16479,994,19,-29,5
1,219,89285,-337,-16450,984,19,-24,6
1,220,89290,-362,-16448,1028,16,-19,4
1,221,89295,-313,-16485,1075,19,-18,4
1,222,89300,-322,-16460,1051,17,-12,2
1,223,89305,-345,-16441,1023,17,-2,1
1,224,89310,-318,-16473,1039,17,2,2
1,225,89315,-306,-16515,1056,16,0,3
1,226,89320,-265,-16436,1058,16,-10,2
1,227,89325,-262,-16421,1063,16,-13,6
1,228,89330,-307,-16388,1071,16,-13,4
1,229,89335,-341,-16389,1119,19,-13,3
1,230,89340,-332,-16370,1115,19,-12,6
1,231,89345,-250,-16366,1137,15,-13,7
1,232,89350,-253,-16405,1122,17,-16,8
1,233,89355,-260,-16376,1171,16,-19,7
1,234,89360,-274,-16377,1157,14,-20,6
1,235,89365,-273,-16424,1079,15,-21,11
1,236,89370,-277,-16481,1071,16,-20,12
1,237,89375,-333,-16526,1075,15,-17,11
1,238,89380,-391,-16530,1068,16,-15,12
1,239,89385,-373,-16575,1071,15,-10,10
1,240,89390,-407,-16647,1038,12,-5,7
1,241,89395,-376,-16670,1017,12,3,10
1,242,89400,-387,-16691,1018,15,11,7
1,243,89405,-393,-16709,1027,17,12,8
1,244,89410,-377,-16732,1031,15,14,8
1,245,89415,-374,-16757,1022,15,11,7
1,246,89420,-359,-16750,1042,11,9,7
1,247,89425,-353,-16778,1080,15,6,7
1,248,89430,-351,-16826,1105,16,2,7
1,249,89435,-380,-16897,1140,14,-1,9
1,250,89440,-353,-16963,1188,14,-1,8
1,251,89445,-367,-16999,1166,15,-1,6
1,252,89450,-383,-17102,1153,14,-4,9
1,253,89455,-464,-17213,1079,16,-1,9
1,254,89460,-498,-17261,1074,13,3,4
1,255,89465,-479,-17385,1113,13,5,5
1,256,89470,-428,-17490,1043,11,10,5
1,257,89475,-391,-17609,1045,11,17,4
1,258,89480,-350,-17698,1034,12,24,6
1,259,89485,-314,-17792,971,15,32,5
1,260,89490,-247,-17847,922,12,39,3
1,261,89495,-134,-17950,844,17,46,3
1,262,89500,-173,-18174,702,18,58,4
1,263,89505,-302,-18423,650,18,69,3
1,264,89510,-461,-18599,471,20,76,4
1,265,89515,-498,-18775,401,24,99,4
1,266,89520,-479,-18985,350,25,124,2
1,267,89525,-479,-19145,282,30,152,0
1,268,89530,-589,-19346,161,35,176,-1
1,269,89535,-691,-19558,164,38,200,-5
1,270,89540,-778,-19607,318,40,222,-5
1,271,89545,-780,-19682,393,46,240,-10
1,272,89550,-783,-19692,478,48,262,-16
1,273,89555,-857,-19584,582,52,284,-18
1,274,89560,-843,-19541,751,53,301,-22
1,275,89565,-756,-19468,933,57,306,-21
1,276,89570,-666,-19316,1076,58,300,-23
1,277,89575,-578,-19242,1155,62,289,-25
1,278,89580,-590,-19136,1277,66,284,-28
1,279,89585,-563,-19059,1351,66,276,-30
1,280,89590,-507,-18952,1499,64,260,-27
1,281,89595,-471,-18879,1519,66,251,-28
1,282,89600,-470,-18815,1518,65,245,-27
1,283,89605,-562,-18781,1559,66,234,-27
1,284,89610,-681,-18737,1650,67,230,-30
1,285,89615,-611,-18689,1658,62,230,-33
1,286,89620,-559,-18672,1660,64,234,-33
1,287,89625,-572,-18582,1733,63,247,-34
1,288,89630,-646,-18613,1729,61,256,-39
1,289,89635,-747,-18556,1677,61,258,-40
1,290,89640,-821,-18507,1524,58,262,-44
1,291,89645,-801,-18532,1488,59,271,-46
1,292,89650,-816,-18568,1542,57,281,-51
1,293,89655,-889,-18509,1581,55,287,-58
1,294,89660,-1120,-18556,1622,53,291,-61
1,295,89665,-1337,-18537,1683,55,291,-82
1,296,89670,-1386,-18306,1656,52,285,-86
1,297,89675,-1542,-18613,1797,52,277,-69
1,298,89680,-1493,-18373,2160,47,254,-86
1,299,89685,-1551,-18380,2594,49,201,-84
1,300,89690,-1484,-18364,2820,46,120,-86
1,301,89695,-1365,-18355,2972,42,29,-88
1,302,89700,-1288,-18250,3134,38,-68,-87
1,303,89705,-1251,-18152,3155,35,-172,-91
1,304,89710,-1600,-17945,3096,32,-288,-93
1,305,89715,-1589,-18005,2797,24,-413,-86
1,306,89720,-411,-17735,3239,21,-490,-76
1,307,89725,-347,-18137,2899,22,-556,-89
1,308,89730,-1206,-17867,2648,11,-601,-114
1,309,89735,-1260,-17806,2013,7,-635,-102
1,310,89740,-1048,-17604,1955,-4,-623,-94
1,311,89745,-186,-17616,1688,-5,-616,-87
1,312,89750,-55,-17494,2197,-6,-563,-91
1,313,89755,-628,-17588,1582,-9,-545,-101
1,314,89760,-1257,-17354,1290,-22,-492,-108
1,315,89765,-1163,-16974,642,-30,-432,-108
1,316,89770,-10,-17042,1048,-30,-329,-102
1,317,89775,202,-17294,1689,-24,-250,-101
1,318,89780,-310,-17431,1055,-25,-234,-128
1,319,89785,-478,-17651,478,-34,-210,-126
1,320,89790,-374,-17592,218,-38,-140,-118
1,321,89795,471,-17520,544,-35,-50,-115
1,322,89800,654,-17796,788,-29,25,-120
1,323,89805,-170,-17850,204,-30,96,-115
1,324,89810,-69,-17466,210,-37,155,-129
1,325,89815,61,-17366,362,-27,239,-112
1,326,89820,45,-17353,441,-20,315,-108
1,327,89825,112,-17128,492,-22,354,-128
1,328,89830,151,-16857,721,-25,375,-132
1,329,89835,356,-16804,727,-25,376,-118
1,330,89840,645,-16577,760,-21,404,-116
1,331,89845,820,-16371,791,-22,449,-118
1,332,89850,758,-16197,1071,-19,484,-110
1,333,89855,820,-16012,1195,-21,485,-101
1,334,89860,940,-15817,1279,-24,472,-89
1,335,89865,918,-15658,1258,-19,466,-86
1,336,89870,791,-15488,1365,-21,484,-81
1,337,89875,714,-15283,1518,-26,509,-81
1,338,89880,512,-15142,1830,-29,528,-78
1,339,89885,378,-14981,1917,-31,527,-74
1,340,89890,350,-14859,1822,-34,521,-68
1,341,89895,272,-14783,1867,-40,524,-64
1,342,89900,222,-14753,2073,-43,533,-59
1,343,89905,174,-14841,2225,-46,538,-58
1,344,89910,47,-14997,2045,-45,532,-62
1,345,89915,-146,-14989,1855,-47,528,-69
1,346,89920,-437,-14998,1977,-54,521,-65
1,347,89925,-543,-14965,2246,-60,496,-66
1,348,89930,-471,-14977,2199,-63,454,-60
1,349,89935,-298,-15059,1968,-61,421,-61
1,350,89940,-240,-15100,1760,-60,383,-63
1,351,89945,-306,-15095,2070,-65,320,-65
1,352,89950,-233,-15087,2145,-68,223,-60
1,353,89955,3,-15088,1758,-62,126,-47
1,354,89960,292,-15147,1291,-57,68,-47
1,355,89965,479,-15205,1238,-59,35,-47
1,356,89970,670,-15232,1440,-56,-14,-40
1,357,89975,910,-15279,1363,-56,-81,-31
1,358,89980,1074,-15436,988,-55,-132,-23
1,359,89985,1069,-15623,664,-53,-133,-19
1,360,89990,974,-15740,657,-50,-98,-16
1,361,89995,1047,-15834,682,-48,-60,-13
1,362,90000,1085,-15969,507,-44,-27,-7
1,363,90005,969,-16248,298,-42,16,-7
1,364,90010,880,-16530,347,-40,73,-16
1,365,90015,1071,-16891,883,-43,137,-15
1,366,90020,911,-17018,1233,-46,179,-1
1,367,90025,1151,-17283,1205,-30,186,-6
1,368,90030,711,-17457,158,-21,189,-6
1,369,90035,626,-17661,529,-30,198,5
1,370,90040,624,-17420,2412,-45,179,8
1,371,90045,902,-17323,2817,-38,106,23
1,372,90050,616,-17314,1087,-13,42,19
1,373,90055,-31,-17441,-260,-2,42,16
1,374,90060,-434,-17192,869,-21,38,20
1,375,90065,-352,-16896,2461,-30,-62,33
1,376,90070,148,-16853,1898,-17,-216,46
1,377,90075,188,-17111,182,3,-244,39
1,378,90080,-358,-17215,84,5,-136,24
1,379,90085,-609,-16961,1475,-7,-80,22
1,380,90090,-315,-16828,2161,-13,-149,34
1,381,90095,-96,-17061,820,0,-237,36
1,382,90100,-55,-17376,-386,13,-196,33
1,383,90105,-929,-17264,-149,11,-85,12
1,384,90110,-1136,-17145,678,9,-43,8
1,385,90115,-1090,-16967,548,17,-79,14
1,386,90120,-657,-17008,-623,29,-99,8
1,387,90125,-591,-16994,-757,35,-17,-1
1,388,90130,-640,-16951,21,40,62,-10
1,389,90135,-612,-16774,477,49,71,-20
1,390,90140,-483,-16773,0,61,32,-16
1,391,90145,-254,-16677,-237,64,17,-15
1,392,90150,115,-16589,299,71,42,-14
1,393,90155,308,-16401,791,77,55,-18
1,394,90160,345,-16356,652,85,44,-22
1,395,90165,187,-16288,576,91,34,-22
1,396,90170,239,-15814,1229,97,-3,-15
1,397,90175,430,-15612,1102,103,-29,-10
1,398,90180,488,-15443,1100,105,-37,-12
1,399,90185,355,-15312,1495,108,-53,-11
1,400,90190,186,-15221,1809,108,-102,-9
1,401,90195,250,-15240,1613,112,-168,-2
1,402,90200,375,-15217,1258,116,-205,1
1,403,90205,404,-15119,1408,119,-215,1
1,404,90210,391,-14993,1820,117,-241,1
1,405,90215,448,-14921,1966,115,-299,7
1,406,90220,503,-14895,1709,119,-348,10
1,407,90225,496,-14829,1544,120,-354,11
1,408,90230,444,-14748,1716,117,-343,9
1,409,90235,370,-14651,1888,117,-337,10
1,410,90240,363,-14546,1730,116,-345,11
1,411,90245,266,-14388,1535,120,-343,10
1,412,90250,83,-14262,1556,116,-329,10
1,413,90255,-138,-14228,1739,111,-307,8
1,414,90260,-233,-14176,1796,113,-287,4
1,415,90265,-271,-14148,1893,114,-263,0
1,416,90270,-312,-14127,1917,110,-239,-5
1,417,90275,-311,-14129,2053,105,-223,-10
1,418,90280,-196,-14056,2227,102,-215,-8
1,419,90285,-7,-14058,2324,100,-211,-13
1,420,90290,69,-14044,2379,98,-213,-15
1,421,90295,92,-14039,2363,92,-223,-17
1,422,90300,142,-14005,2447,89,-246,-15
1,423,90305,157,-13938,2481,86,-277,-14
1,424,90310,228,-13830,2356,83,-315,-10
1,425,90315,291,-13725,2212,83,-348,-8
1,426,90320,227,-13556,2269,78,-371,-10
1,427,90325,109,-13392,2489,71,-396,-9
1,428,90330,86,-13274,2474,66,-422,-6
1,429,90335,101,-13065,2257,64,-423,-6
1,430,90340,71,-12955,2330,58,-400,-10
1,431,90345,-58,-12822,2490,51,-372,-12
1,432,90350,-257,-12739,2454,45,-355,-11
1,433,90355,-313,-12589,2204,41,-332,-16
1,434,90360,-309,-12505,1954,39,-292,-19
1,435,90365,-276,-12373,1777,28,-239,-28
1,436,90370,-243,-12235,1777,28,-190,-29
1,437,90375,-243,-12036,1691,22,-157,-30
1,438,90380,-210,-11861,1538,17,-127,-35
1,439,90385,-110,-11576,1382,11,-91,-41
1,440,90390,82,-11250,1321,7,-43,-46
1,441,90395,329,-10887,1366,8,1,-47
1,442,90400,652,-10516,1494,4,38,-48
1,443,90405,881,-10181,1707,-2,67,-46
1,444,90410,1112,-9977,1771,-6,83,-40
1,445,90415,1340,-9884,1740,-11,99,-38
1,446,90420,1646,-9914,1683,-12,123,-30
1,447,90425,1845,-9912,1723,-19,139,-23
1,448,90430,2054,-9965,1870,-24,128,-14
1,449,90435,2173,-9999,1863,-25,95,0
1,450,90440,2188,-10000,1578,-26,60,14
1,451,90445,2047,-9977,1461,-33,46,27
1,452,90450,1843,-9904,1581,-39,41,34
1,453,90455,1631,-9886,1596,-43,28,44
1,454,90460,1436,-9990,1492,-44,9,54
1,455,90465,1051,-10053,1782,-49,-9,62
1,456,90470,537,-10105,2106,-56,-23,64
1,457,90475,456,-10346,1666,-59,-39,74
1,458,90480,507,-10600,1371,-61,-13,78
1,459,90485,552,-10834,1347,-67,-1,80
1,460,90490,568,-11040,1756,-76,-19,82
1,461,90495,621,-11255,1838,-77,-91,92
1,462,90500,757,-11460,1646,-80,-165,103
1,463,90505,789,-11563,1507,-84,-194,110
1,464,90510,623,-11640,1706,-88,-198,111
1,465,90515,473,-11687,1803,-90,-227,117
1,466,90520,382,-11672,1626,-94,-292,125
1,467,90525,316,-11718,1364,-97,-364,135
1,468,90530,248,-11764,1262,-98,-420,145
1,469,90535,9,-11848,1353,-102,-456,149
1,470,90540,-335,-12322,1169,-105,-531,158
1,471,90545,-298,-12589,931,-103,-561,164
1,472,90550,-165,-12822,911,-109,-577,167
1,473,90555,-50,-13040,943,-110,-593,168
1,474,90560,-10,-13135,785,-110,-608,173
1,475,90565,-150,-13271,588,-111,-610,177
1,476,90570,-643,-13388,346,-112,-603,174
1,477,90575,-994,-13516,512,-119,-593,168
1,478,90580,-1158,-13266,1205,-119,-571,167
1,479,90585,-1161,-13647,641,-114,-575,188
1,480,90590,-928,-13700,488,-118,-542,168
1,481,90595,-879,-13877,876,-124,-497,157
1,482,90600,-892,-14070,1705,-130,-484,157
1,483,90605,-687,-14379,1730,-128,-523,164
1,484,90610,-346,-14768,1033,-123,-551,174
1,485,90615,-120,-15016,601,-125,-528,173
1,486,90620,43,-15175,761,-131,-507,169
1,487,90625,152,-14998,883,-132,-547,170
1,488,90630,258,-15066,549,-125,-610,195
1,489,90635,267,-14907,-304,-121,-653,192
1,490,90640,140,-14484,-575,-120,-610,189
1,491,90645,-440,-14944,-328,-119,-545,189
1,492,90650,-471,-13583,-466,-124,-515,159
1,493,90655,-984,-14692,301,-106,-459,226
1,494,90660,-1073,-14416,-804,-109,-499,183
1,495,90665,-955,-14683,-216,-107,-412,171
1,496,90670,-1579,-15315,-184,-101,-330,196
1,497,90675,-1696,-15729,281,-94,-312,201
1,498,90680,-2364,-16481,770,-92,-299,172
1,499,90685,-2584,-17489,443,-96,-280,165
1,500,90690,-3141,-17594,127,-92,-237,140
1,501,90695,-2786,-18054,82,-86,-202,140
1,502,90700,-1883,-18405,984,-85,-205,138
1,503,90705,-924,-17801,948,-86,-245,99
1,504,90710,-934,-17732,755,-76,-315,108
1,505,90715,-1066,-17479,-110,-73,-391,119
1,506,90720,-1196,-17130,-343,-68,-409,118
1,507,90725,-672,-16994,-467,-62,-428,118
1,508,90730,-165,-17115,-402,-50,-455,120
1,509,90735,106,-17321,-256,-42,-491,115
1,510,90740,-96,-17701,73,-39,-515,122
1,511,90745,-172,-17969,-81,-34,-526,127
1,512,90750,-107,-18255,-462,-24,-475,129
1,513,90755,-27,-18458,-948,-19,-354,121
1,514,90760,-197,-18610,-1085,-15,-228,112
1,515,90765,-437,-18620,-938,-11,-131,108
1,516,90770,-952,-18653,-1138,-7,-61,100
1,517,90775,-1462,-18641,-1305,-3,34,91
1,518,90780,-1696,-18839,-1157,4,157,84
1,519,90785,-1983,-18544,-626,12,285,72
1,520,90790,-2064,-18409,-270,15,359,50
1,521,90795,-1896,-18273,391,26,395,50
1,522,90800,-2228,-18997,679,27,352,85
1,523,90805,-2048,-18669,982,25,288,43
1,524,90810,-2048,-19016,1630,32,231,45
1,525,90815,-1775,-19408,1818,39,117,44
1,526,90820,-1307,-19564,1897,41,2,38
1,527,90825,-1117,-19881,2085,45,-123,42
1,528,90830,-1037,-19891,2198,41,-258,44
1,529,90835,-952,-19964,1923,46,-403,51
1,530,90840,-875,-19995,1529,50,-519,53
1,531,90845,-770,-19946,1070,54,-609,57
1,532,90850,-813,-19843,866,57,-674,54
1,533,90855,-919,-19647,573,59,-743,53
1,534,90860,-913,-19503,220,60,-774,56
1,535,90865,-972,-19353,89,59,-746,56
1,536,90870,-957,-19214,7,60,-663,47
1,537,90875,-1069,-19074,-70,63,-552,40
1,538,90880,-1133,-19062,-48,66,-430,27
1,539,90885,-1139,-19103,154,62,-316,21
1,540,90890,-937,-19144,461,60,-216,12
1,541,90895,-616,-19194,753,57,-126,1
1,542,90900,-524,-19229,988,57,-45,-2
1,543,90905,-759,-19327,1353,58,30,-16
1,544,90910,-746,-19298,1469,56,6,-14
1,545,90915,-614,-19320,1447,56,-41,-10
1,546,90920,-519,-19237,1506,56,-95,-10
1,547,90925,-493,-19016,1533,60,-158,-11
1,548,90930,-495,-18736,1478,61,-222,-5
1,549,90935,-575,-18471,1176,63,-298,-3
1,550,90940,-576,-18199,780,64,-364,-4
1,551,90945,-494,-17979,699,66,-403,1
1,552,90950,-314,-17813,926,63,-429,1
1,553,90955,-202,-17774,1230,64,-446,5
1,554,90960,-108,-17859,1283,65,-445,5
1,555,90965,-144,-18010,1104,64,-416,2
1,556,90970,-140,-18082,923,61,-361,-2
1,557,90975,-174,-18115,809,61,-298,-5
1,558,90980,-185,-18154,706,59,-251,-5
1,559,90985,-199,-18244,648,59,-213,-6
1,560,90990,-259,-18280,683,59,-178,-8
1,561,90995,-307,-18221,723,58,-138,-10
1,562,91000,-335,-18124,763,60,-91,-12
1,563,91005,-312,-17938,860,61,-51,-16
1,564,91010,-330,-17659,1037,61,-27,-20
1,565,91015,-352,-17469,1066,60,-14,-19
1,566,91020,-434,-17337,1013,58,-6,-20
1,567,91025,-581,-17266,1002,59,10,-23
1,568,91030,-672,-17162,1054,61,31,-24
1,569,91035,-702,-17010,1118,59,61,-27
1,570,91040,-799,-16870,1267,61,87,-34
1,571,91045,-949,-16766,1488,58,104,-40
1,572,91050,-1024,-16720,1638,55,123,-41
1,573,91055,-997,-16530,1753,52,143,-40
1,574,91060,-955,-16666,1866,50,172,-38
1,575,91065,-777,-16323,2073,45,190,-62
1,576,91070,-619,-16262,2241,40,180,-59
1,577,91075,-308,-16182,2218,34,148,-60
1,578,91080,-48,-16085,2113,34,114,-62
1,579,91085,0,-16014,2003,30,83,-59
1,580,91090,-165,-15954,1961,27,51,-58
1,581,91095,-210,-15934,1858,27,9,-56
1,582,91100,-207,-15900,1730,25,-30,-53
1,583,91105,-166,-15842,1612,23,-56,-51
1,584,91110,-242,-15863,1679,16,-56,-51
1,585,91115,-427,-15881,1658,15,-48,-54
1,586,91120,-561,-15964,1556,16,-27,-53
1,587,91125,-799,-16121,1440,10,8,-53
1,588,91130,-936,-16206,1433,6,47,-62
1,589,91135,-906,-16272,1542,5,84,-69
1,590,91140,-766,-16395,1544,1,119,-72
1,591,91145,-610,-16617,1395,0,152,-76
1,592,91150,-467,-16804,1343,2,173,-80
1,593,91155,-459,-16902,1460,-2,180,-87
1,594,91160,-459,-16912,1711,-8,167,-87
1,595,91165,-451,-16846,1726,-10,144,-87
1,596,91170,-498,-16810,1611,-9,133,-88
1,597,91175,-625,-16679,1618,-8,129,-90
1,598,91180,-694,-16623,1836,-13,120,-93
1,599,91185,-1119,-17430,2217,-15,89,-93
1,600,91190,7086,-26455,12720,336,490,-342
1,601,91195,-21417,-9469,-13372,842,1565,-1102
1,602,91200,-10122,-8674,-31529,-1058,-6320,663
1,603,91205,480,-18933,8355,-354,4989,496
1,604,91210,-12048,6664,16285,-142,5456,-852
1,605,91215,22203,-11053,-13575,386,-3490,102
1,606,91220,1441,-21908,8138,520,2180,-8
1,607,91225,-9920,-17220,186,-107,1335,-218
1,608,91230,5236,-17035,5878,-109,-115,20
1,609,91235,-4649,-8170,7296,-155,455,21
1,610,91240,5079,-13639,7517,15,671,-134
1,611,91245,3263,-17363,5215,161,1064,-175
1,612,91250,1939,-19348,1519,73,904,-144
1,613,91255,-2272,-16905,4498,-46,524,-123
1,614,91260,-1899,-15157,-695,-31,-75,5
1,615,91265,-546,-15797,551,-20,211,-11
1,616,91270,2219,-16888,3091,14,648,-73
1,617,91275,1100,-16288,4360,-1,289,-26
1,618,91280,754,-15998,2713,-10,-211,32
1,619,91285,-39,-15928,1309,-16,-304,47
1,620,91290,-58,-16174,1061,-13,-75,18
1,621,91295,27,-16510,2108,9,102,8
1,622,91300,210,-16655,2436,10,28,20
1,623,91305,-208,-16402,2228,-2,-174,38
1,624,91310,-1024,-16429,1404,-8,-358,57
1,625,91315,-1535,-16477,679,-10,-399,53
1,626,91320,-1596,-16581,791,-2,-304,53
1,627,91325,-1288,-16449,1371,-5,-222,40
1,628,91330,-835,-16341,1741,-2,-242,42
1,629,91335,-782,-16425,1979,-8,-309,44
1,630,91340,-1059,-16250,1744,-14,-387,38
1,631,91345,-1223,-16396,1346,-5,-430,44
1,632,91350,-1174,-16490,864,3,-410,39
1,633,91355,-1112,-16518,1002,4,-339,33
1,634,91360,-1040,-16456,1608,-3,-299,21
1,635,91365,-978,-16411,1706,-6,-352,24
1,636,91370,-909,-16518,1371,-4,-424,33
1,637,91375,-962,-16449,967,-5,-446,29
1,638,91380,-981,-16541,718,-1,-402,24
1,639,91385,-912,-16488,1255,-3,-318,12
1,640,91390,-868,-16418,1613,-5,-315,12
1,641,91395,-616,-16459,1428,-3,-376,20
1,642,91400,-545,-16463,989,-3,-409,15
1,643,91405,-739,-16500,889,-2,-379,13
1,644,91410,-881,-16411,1097,-1,-318,7
1,645,91415,-843,-16469,1184,3,-303,7
1,646,91420,-638,-16586,864,4,-313,6
1,647,91425,-592,-16556,801,2,-292,-1
1,648,91430,-663,-16505,1155,-3,-269,-9
1,649,91435,-681,-16420,1150,-5,-279,-10
1,650,91440,-686,-16467,1163,1,-274,-8
1,651,91445,-654,-16445,1028,-2,-253,-12
1,652,91450,-666,-16465,1162,-1,-216,-19
1,653,91455,-597,-16468,1243,-2,-201,-24
1,654,91460,-499,-16448,1179,-1,-207,-22
1,655,91465,-387,-16475,1171,0,-209,-19
1,656,91470,-371,-16448,1140,-1,-203,-22
1,657,91475,-326,-16489,1135,1,-195,-24
1,658,91480,-289,-16483,1168,-1,-180,-26
1,659,91485,-208,-16474,1143,-1,-172,-24
1,660,91490,-111,-16436,1244,-2,-167,-23
1,661,91495,-179,-16410,1203,-1,-163,-26
1,662,91500,-280,-16449,1199,1,-155,-29
1,663,91505,-423,-16455,1198,2,-150,-29
1,664,91510,-533,-16494,1140,2,-137,-26
1,665,91515,-449,-16468,1171,2,-122,-27
1,666,91520,-345,-16404,1279,0,-101,-32
1,667,91525,-374,-16399,1354,2,-92,-34
1,668,91530,-363,-16432,1416,-1,-89,-33
1,669,91535,-356,-16429,1387,-3,-77,-34
1,670,91540,-247,-16471,1346,-3,-62,-36
1,671,91545,-226,-16424,1443,-4,-42,-38
1,672,91550,-244,-16385,1562,-6,-27,-39
1,673,91555,-221,-16359,1561,-9,-21,-35
1,674,91560,-75,-16405,1511,-9,-16,-39
1,675,91565,-25,-16438,1377,-9,-7,-40
1,676,91570,50,-16468,1331,-9,7,-38
1,677,91575,-25,-16452,1465,-11,19,-40
1,678,91580,-46,-16356,1490,-12,12,-36
1,679,91585,6,-16421,1449,-16,13,-34
1,680,91590,32,-16455,1366,-15,19,-35
1,681,91595,42,-16424,1299,-16,32,-35
1,682,91600,1,-16438,1333,-19,42,-33
1,683,91605,-18,-16442,1333,-21,39,-34
1,684,91610,-10,-16427,1218,-20,33,-29
1,685,91615,-59,-16428,1185,-18,33,-29
1,686,91620,-94,-16460,1170,-18,36,-30
1,687,91625,-96,-16449,1085,-17,44,-28
1,688,91630,-75,-16452,1093,-20,53,-27
1,689,91635,-115,-16458,1002,-13,51,-25
1,690,91640,-195,-16450,911,-17,51,-27
1,691,91645,-225,-16482,913,-13,58,-26
1,692,91650,-280,-16518,847,-13,67,-24
1,693,91655,-309,-16545,787,-12,78,-28
1,694,91660,-425,-16521,773,-9,82,-29
1,695,91665,-505,-16543,795,-9,80,-28
1,696,91670,-471,-16524,890,-6,82,-27
1,697,91675,-399,-16485,939,-6,91,-29
1,698,91680,-336,-16457,1083,-5,100,-31
1,699,91685,-264,-16420,1280,-4,106,-33
1,700,91690,-224,-16419,1356,-4,107,-31
1,701,91695,-168,-16435,1335,-4,103,-31
1,702,91700,-135,-16431,1362,-6,100,-31
1,703,91705,-189,-16435,1325,-6,100,-30
1,704,91710,-168,-16409,1382,-5,102,-29
1,705,91715,-114,-16403,1402,-4,105,-28
1,706,91720,-37,-16441,1343,-4,100,-28
1,707,91725,-109,-16438,1222,-3,96,-28
1,708,91730,-158,-16444,1131,-2,95,-26
1,709,91735,-279,-16475,1099,-4,94,-26
1,710,91740,-406,-16465,993,-5,90,-27
1,711,91745,-477,-16518,916,-2,92,-24
1,712,91750,-562,-16508,886,-2,93,-28
1,713,91755,-511,-16509,970,-2,99,-33
1,714,91760,-431,-16507,1051,-3,104,-30
1,715,91765,-384,-16440,1118,-1,103,-29
1,716,91770,-342,-16421,1234,1,96,-31
1,717,91775,-290,-16406,1213,2,91,-30
1,718,91780,-182,-16435,1236,0,92,-28
1,719,91785,-82,-16438,1284,-1,98,-31
1,720,91790,13,-16419,1311,1,99,-31
1,721,91795,64,-16405,1360,3,96,-26
1,722,91800,142,-16403,1389,3,83,-25
1,723,91805,237,-16433,1259,2,76,-25
1,724,91810,269,-16434,1249,2,75,-20
1,725,91815,325,-16425,1251,2,72,-15
1,726,91820,424,-16378,1240,3,65,-12
1,727,91825,493,-16391,1233,2,56,-10
1,728,91830,526,-16407,1240,3,44,-4
1,729,91835,529,-16438,1219,1,35,0
1,730,91840,558,-16368,1129,2,29,4
1,731,91845,711,-16371,1201,2,28,9
1,732,91850,747,-16394,1085,5,28,12
1,733,91855,710,-16418,1010,10,17,16
1,734,91860,704,-16437,926,10,8,22
1,735,91865,640,-16467,900,11,2,28
1,736,91870,599,-16493,813,10,0,34
1,737,91875,635,-16466,830,10,6,36
1,738,91880,580,-16485,915,12,16,38
1,739,91885,522,-16422,926,11,22,43
1,740,91890,413,-16440,1032,14,25,46
1,741,91895,319,-16508,1012,16,31,50
1,742,91900,187,-16468,983,13,47,50
1,743,91905,-80,-16441,1009,14,64,48
1,744,91910,-257,-16476,1048,14,81,48
1,745,91915,-359,-16498,1055,13,94,45
1,746,91920,-419,-16492,1114,12,112,46
1,747,91925,-516,-16448,1204,10,130,41
1,748,91930,-575,-16507,1278,11,145,37
1,749,91935,-549,-16583,1638,9,157,37
1,750,91940,-465,-16323,1922,-3,163,40
1,751,91945,-309,-15958,2055,-2,168,33
1,752,91950,-558,-16095,1991,7,170,31
1,753,91955,-668,-16518,1309,18,153,28
1,754,91960,-897,-16821,882,17,153,25
1,755,91965,-1026,-16770,900,3,136,27
1,756,91970,-950,-16572,1254,-6,119,34
1,757,91975,-779,-16276,1568,-7,90,36
1,758,91980,-614,-16174,1874,0,81,34
1,759,91985,-635,-16365,1902,8,81,29
1,760,91990,-714,-16561,1795,6,73,28
1,761,91995,-817,-16550,1774,-4,64,28
1,762,92000,-791,-16266,2077,-15,36,30
1,763,92005,-675,-16315,1951,-13,36,26
1,764,92010,-890,-16259,1746,-14,45,22
1,765,92015,-498,-16482,1432,-15,43,21
1,766,92020,-840,-16504,1605,-12,58,18
1,767,92025,-809,-16544,913,-12,24,22
1,768,92030,-750,-16528,1270,-21,31,14
1,769,92035,-1002,-16400,1017,-17,14,20
1,770,92040,-949,-16567,1140,-14,12,19
1,771,92045,-1245,-16543,855,-13,9,13
1,772,92050,-572,-16587,903,-17,7,13
1,773,92055,-453,-16340,1496,-17,19,15
1,774,92060,-313,-16354,1345,-14,-23,15
1,775,92065,-553,-16402,1413,-8,-44,13
1,776,92070,-676,-16516,996,-7,-73,16
1,777,92075,-613,-16568,1011,-7,-61,16
1,778,92080,-469,-16504,829,-10,-47,18
1,779,92085,-374,-16465,1197,-12,-21,12
1,780,92090,-358,-16387,1299,-9,-35,9
1,781,92095,-286,-16483,1230,-8,-58,14
1,782,92100,-192,-16495,1023,-10,-67,13
1,783,92105,-188,-16488,1031,-9,-52,14
1,784,92110,-258,-16454,1190,-9,-25,11
1,785,92115,-256,-16415,1287,-8,-19,13
1,786,92120,-252,-16459,1214,-6,-23,16
1,787,92125,-314,-16501,996,-5,-25,14
1,788,92130,-453,-16540,989,-5,-14,11
1,789,92135,-629,-16507,967,-6,-2,8
1,790,92140,-712,-16502,1034,-9,7,11
1,791,92145,-732,-16478,1070,-7,10,12
1,792,92150,-666,-16489,1089,-3,10,10
1,793,92155,-702,-16490,1062,-5,8,7
1,794,92160,-781,-16515,1138,-6,1,7
1,795,92165,-787,-16445,1176,-4,-6,5
1,796,92170,-764,-16449,1130,-3,-15,5
1,797,92175,-721,-16495,1152,-1,-16,5
1,798,92180,-676,-16473,1183,-1,-22,4
1,799,92185,-619,-16412,1232,-2,-29,2
1,800,92190,-597,-16467,1273,-2,-35,1
1,801,92195,-534,-16444,1188,2,-38,1
1,802,92200,-566,-16437,1177,0,-36,1
1,803,92205,-598,-16467,1274,-4,-33,1
1,804,92210,-712,-16463,1316,-4,-33,0
1,805,92215,-748,-16443,1278,-5,-34,0
1,806,92220,-688,-16456,1232,-4,-33,-3
1,807,92225,-720,-16470,1265,-6,-25,-7
1,808,92230,-761,-16468,1328,-4,-19,-8
1,809,92235,-871,-16425,1289,-2,-13,-11
1,810,92240,-911,-16497,1228,-3,-14,-14
1,811,92245,-918,-16482,1154,-9,-14,-15
1,812,92250,-908,-16528,1096,-7,-7,-17
1,813,92255,-960,-16511,1142,-8,-1,-21
1,814,92260,-1056,-16520,1129,-7,-7,-25
1,815,92265,-1119,-16508,1082,-5,-22,-24
1,816,92270,-1053,-16531,987,-1,-37,-24
1,817,92275,-950,-16531,979,-1,-38,-28
1,818,92280,-847,-16486,1088,-2,-35,-31
1,819,92285,-770,-16458,1268,-2,-44,-31
1,820,92290,-695,-16416,1304,1,-63,-30
1,821,92295,-561,-16461,1279,3,-88,-29
1,822,92300,-459,-16492,1265,6,-101,-27
1,823,92305,-440,-16463,1259,2,-103,-24
1,824,92310,-386,-16440,1328,-1,-110,-25
1,825,92315,-335,-16410,1358,-1,-125,-24
1,826,92320,-294,-16387,1341,1,-142,-22
1,827,92325,-227,-16432,1268,1,-156,-21
1,828,92330,-262,-16398,1278,-2,-168,-19
1,829,92335,-361,-16407,1295,-1,-173,-19
1,830,92340,-433,-16421,1224,2,-186,-15
1,831,92345,-444,-16450,1150,1,-194,-13
1,832,92350,-557,-16474,1022,0,-196,-14
1,833,92355,-695,-16501,984,3,-198,-15
1,834,92360,-760,-16514,943,3,-205,-16
1,835,92365,-756,-16513,868,7,-217,-14
1,836,92370,-705,-16474,960,6,-213,-19
1,837,92375,-728,-16453,1041,7,-214,-19
1,838,92380,-695,-16442,1147,9,-227,-20
1,839,92385,-658,-16444,1128,9,-236,-22
1,840,92390,-603,-16500,1093,10,-242,-22
1,841,92395,-550,-16496,1168,10,-240,-25
1,842,92400,-445,-16417,1321,11,-243,-23
1,843,92405,-338,-16396,1356,11,-245,-21
1,844,92410,-215,-16391,1356,11,-253,-21
1,845,92415,-157,-16422,1334,14,-258,-21
1,846,92420,-112,-16428,1252,13,-259,-22
1,847,92425,-98,-16455,1136,13,-258,-19
1,848,92430,-57,-16469,1091,10,-255,-17
1,849,92435,-110,-16494,1072,9,-251,-19
1,850,92440,-151,-16475,988,10,-249,-18
1,851,92445,-227,-16501,933,13,-244,-17
1,852,92450,-197,-16543,886,11,-234,-19
1,853,92455,-181,-16516,938,11,-219,-17
1,854,92460,-131,-16426,1050,13,-204,-20
1,855,92465,-57,-16412,1108,10,-193,-18
1,856,92470,-4,-16451,1145,13,-185,-17
1,857,92475,20,-16459,1111,14,-170,-19
1,858,92480,90,-16405,1131,11,-152,-19
1,859,92485,131,-16429,1144,10,-133,-22
1,860,92490,190,-16424,1205,9,-121,-21
1,861,92495,272,-16412,1191,9,-103,-22
1,862,92500,372,-16404,1221,12,-87,-20
1,863,92505,457,-16432,1262,10,-66,-21
1,864,92510,444,-16401,1286,7,-47,-19
1,865,92515,416,-16388,1218,7,-31,-18
1,866,92520,419,-16421,1120,4,-14,-15
1,867,92525,354,-16475,1022,7,8,-18
1,868,92530,130,-16519,952,8,27,-19
1,869,92535,-131,-16487,837,7,36,-19
1,870,92540,-304,-16521,817,7,44,-18
1,871,92545,-360,-16512,780,10,51,-14
1,872,92550,-316,-16530,898,9,65,-14
1,873,92555,-304,-16517,1015,10,72,-14
1,874,92560,-340,-16479,1159,9,73,-14
1,875,92565,-363,-16458,1194,11,62,-13
1,876,92570,-386,-16423,1199,11,59,-15
1,877,92575,-384,-16463,1142,13,58,-16
1,878,92580,-386,-16489,1162,12,61,-17
1,879,92585,-383,-16461,1207,11,56,-16
1,880,92590,-286,-16428,1291,13,42,-15
1,881,92595,-155,-16420,1350,15,29,-15
1,882,92600,-89,-16418,1328,16,15,-13
1,883,92605,-19,-16403,1341,16,8,-10
1,884,92610,-6,-16406,1348,16,6,-10
1,885,92615,47,-16389,1406,15,-3,-7
1,886,92620,116,-16416,1397,15,-16,-2
1,887,92625,126,-16408,1314,15,-22,0
1,888,92630,-13,-16418,1217,16,-27,1
1,889,92635,-159,-16461,1063,16,-26,1
1,890,92640,-308,-16507,944,17,-26,0
1,891,92645,-370,-16555,797,18,-22,2
1,892,92650,-403,-16575,776,17,-15,2
1,893,92655,-447,-16509,831,19,-7,-1
1,894,92660,-576,-16481,843,21,-4,-4
1,895,92665,-657,-16528,875,26,-8,-2
1,896,92670,-679,-16568,756,26,-8,-2
1,897,92675,-624,-16558,711,26,0,-3
1,898,92680,-634,-16509,823,25,11,-7
1,899,92685,-616,-16508,990,30,10,-9
1,900,92690,-512,-16493,1050,33,-6,-10
1,901,92695,-348,-16476,1045,36,-18,-9
1,902,92700,-245,-16475,1106,35,-14,-11
1,903,92705,-299,-16436,1266,32,-6,-12
1,904,92710,-195,-16419,1418,32,-8,-9
1,905,92715,-88,-16415,1344,35,-16,-7
1,906,92720,-113,-16469,1202,35,-18,-8
1,907,92725,-154,-16492,1115,37,-15,-8
1,908,92730,-178,-16496,1165,36,-15,-8
1,909,92735,-90,-16434,1155,35,-12,-4
1,910,92740,-194,-16428,1126,36,-12,-6
1,911,92745,-372,-16452,1127,38,-12,-8
1,912,92750,-444,-16511,1060,40,-9,-10
1,913,92755,-370,-16504,1064,42,-7,-7
1,914,92760,-298,-16474,1154,39,-3,-6
1,915,92765,-364,-16443,1343,39,1,-7
1,916,92770,-509,-16389,1350,41,-3,-9
1,917,92775,-677,-16458,1285,42,-9,-11
1,918,92780,-704,-16479,1160,40,-15,-12
1,919,92785,-708,-16526,1182,42,-10,-11
1,920,92790,-593,-16498,1303,39,-2,-16
1,921,92795,-426,-16399,1513,41,-2,-15
1,922,92800,-346,-16340,1677,40,-13,-15
1,923,92805,-179,-16367,1744,41,-27,-11
1,924,92810,-144,-16398,1668,41,-34,-10
1,925,92815,-79,-16438,1622,38,-32,-13
1,926,92820,-81,-16366,1688,37,-23,-13
1,927,92825,20,-16384,1723,35,-25,-11
1,928,92830,103,-16355,1694,34,-31,-9
1,929,92835,163,-16402,1628,34,-38,-7
1,930,92840,82,-16400,1637,32,-35,-4
1,931,92845,-50,-16374,1631,33,-29,-5
1,932,92850,-91,-16374,1640,28,-23,-3
1,933,92855,-55,-16399,1611,26,-19,-3
1,934,92860,-70,-16397,1561,25,-10,-4
1,935,92865,-61,-16425,1578,23,-4,-3
1,936,92870,-111,-16392,1583,24,6,-3
1,937,92875,-119,-16408,1562,20,8,-2
1,938,92880,-121,-16411,1509,18,9,-5
1,939,92885,-127,-16393,1431,19,11,-4
1,940,92890,-144,-16418,1405,21,11,-2
1,941,92895,-114,-16440,1402,20,13,-2
1,942,92900,-67,-16452,1417,19,14,3
1,943,92905,5,-16419,1430,17,15,3
1,944,92910,124,-16385,1448,14,12,3
1,945,92915,180,-16405,1426,17,16,6
1,946,92920,206,-16433,1339,19,21,6
1,947,92925,276,-16436,1359,17,30,6
1,948,92930,247,-16427,1338,18,38,12
1,949,92935,415,-16402,1045,17,45,12
1,950,92940,183,-16469,1329,15,69,9
1,951,92945,-286,-16499,1041,16,67,8
1,952,92950,-651,-16569,883,20,76,8
1,953,92955,-799,-16606,702,17,99,8
1,954,92960,-785,-16531,794,14,141,1
1,955,92965,-719,-16439,1021,15,183,-10
1,956,92970,-763,-16431,1268,17,214,-13
1,957,92975,-761,-16423,1450,18,227,-22
1,958,92980,-812,-16428,1438,19,235,-22
1,959,92985,-754,-16431,1423,20,257,-26
1,960,92990,-728,-16414,1462,17,292,-32
1,961,92995,-625,-16400,1655,14,321,-40
1,962,93000,-503,-16434,1723,16,329,-42
1,963,93005,-358,-16469,1715,15,323,-42
1,964,93010,-271,-16422,1709,11,319,-39
1,965,93015,-247,-16386,1787,8,318,-40
1,966,93020,-185,-16364,1897,8,314,-40
1,967,93025,-75,-16377,1925,8,308,-40
1,968,93030,51,-16360,1968,4,297,-35
1,969,93035,134,-16338,1963,2,277,-33
1,970,93040,140,-16366,1998,2,255,-28
1,971,93045,-38,-16349,1867,4,229,-20
1,972,93050,-282,-16396,1632,3,200,-19
1,973,93055,-451,-16428,1447,1,176,-17
1,974,93060,-516,-16493,1344,3,158,-13
1,975,93065,-522,-16484,1288,3,142,-11
1,976,93070,-532,-16465,1419,4,122,-13
1,977,93075,-594,-16441,1428,0,94,-10
1,978,93080,-612,-16480,1475,4,65,-7
1,979,93085,-515,-16462,1534,6,47,-3
1,980,93090,-420,-16426,1580,5,33,-5
1,981,93095,-410,-16421,1643,8,16,-6
1,982,93100,-336,-16401,1554,9,-32,3
1,983,93105,-271,-16436,1437,7,-52,4
1,984,93110,-185,-16460,1383,10,-61,5
1,985,93115,-117,-16455,1392,10,-61,6
1,986,93120,-41,-16435,1478,7,-60,8
1,987,93125,75,-16390,1547,7,-59,7
1,988,93130,105,-16403,1523,8,-60,7
1,989,93135,100,-16425,1557,4,-48,10
1,990,93140,111,-16426,1510,3,-29,9
1,991,93145,115,-16441,1436,1,-12,9
1,992,93150,-4,-16424,1411,3,2,6
1,993,93155,-242,-16436,1235,2,11,8
1,994,93160,-488,-16474,1052,4,20,4
1,995,93165,-667,-16545,1069,5,33,2
1,996,93170,-740,-16518,1092,4,41,1
1,997,93175,-677,-16495,1175,3,50,-5
1,998,93180,-558,-16494,1370,3,55,-5
1,999,93185,-533,-16413,1500,5,53,-6
