event_id,seq,ts_ms,ax,ay,az,gx,gy,gz
7,0,112709,-2358,-16060,-2394,1,-32,-11
7,1,112714,-2310,-16077,-2394,3,-29,-11
7,2,112719,-2311,-16093,-2336,-1,-25,-10
7,3,112724,-2283,-16110,-2312,-1,-25,-9
7,4,112729,-2301,-16153,-2341,-2,-29,-7
7,5,112734,-2320,-16157,-2329,-3,-29,-8
7,6,112739,-2317,-16136,-2317,-4,-29,-6
7,7,112744,-2294,-16146,-2354,-6,-28,-3
7,8,112749,-2295,-16165,-2373,-7,-30,-5
7,9,112754,-2295,-16157,-2378,-5,-33,-4
7,10,112759,-2246,-16166,-2398,-8,-31,-3
7,11,112764,-2223,-16210,-2427,-10,-31,-2
7,12,112769,-2247,-16167,-2409,-7,-30,0
7,13,112774,-2218,-16098,-2482,-8,-27,2
7,14,112779,-2258,-16138,-2484,-6,-24,-1
7,15,112785,-2231,-16126,-2463,-9,-23,6
7,16,112789,-2231,-16126,-2463,-9,-23,6
7,17,112794,-2223,-16098,-2489,-6,-20,5
7,18,112799,-2236,-16089,-2475,-7,-22,8
7,19,112804,-2178,-16107,-2460,-8,-27,7
7,20,112809,-2179,-16132,-2401,-9,-28,11
7,21,112814,-2212,-16114,-2398,-7,-28,9
7,22,112819,-2281,-16138,-2446,-9,-28,8
7,23,112824,-2238,-16086,-2451,-7,-18,9
7,24,112829,-2215,-16078,-2421,-7,-10,11
7,25,112834,-2262,-16101,-2379,-8,-2,11
7,26,112839,-2263,-16096,-2401,-7,0,15
7,27,112844,-2292,-16068,-2352,-7,3,13
7,28,112849,-2289,-16035,-2345,-9,6,12
7,29,112854,-2268,-16049,-2318,-8,9,11
7,30,112859,-2265,-16067,-2305,-8,5,13
7,31,112864,-2261,-16019,-2348,-9,-1,14
7,32,112869,-2321,-15971,-2355,-6,-4,15
7,33,112874,-2361,-15981,-2390,-7,-4,15
7,34,112879,-2389,-15990,-2363,-7,-2,15
7,35,112884,-2360,-15983,-2390,-8,4,15
7,36,112889,-2346,-15966,-2385,-7,8,12
7,37,112894,-2351,-16025,-2397,-8,7,10
7,38,112899,-2377,-16000,-2429,-5,8,11
7,39,112904,-2341,-16008,-2438,-6,5,13
7,40,112909,-2386,-16021,-2488,-5,3,13
7,41,112914,-2368,-16068,-2473,-6,-3,9
7,42,112919,-2385,-16065,-2574,0,-9,12
7,43,112924,-2414,-16096,-2577,-2,-9,12
7,44,112929,-2412,-16050,-2540,0,-3,10
7,45,112934,-2459,-16076,-2512,0,2,7
7,46,112939,-2500,-16063,-2568,2,3,8
7,47,112944,-2454,-16069,-2603,7,5,7
7,48,112949,-2485,-16073,-2544,6,11,2
7,49,112954,-2479,-16102,-2549,5,16,0
7,50,112959,-2487,-16062,-2528,8,16,0
7,51,112964,-2468,-16017,-2526,7,12,-3
7,52,112969,-2444,-15994,-2488,8,12,-3
7,53,112974,-2378,-16024,-2468,10,12,-5
7,54,112979,-2385,-16009,-2415,12,12,-8
7,55,112984,-2361,-15992,-2446,12,7,-7
7,56,112989,-2344,-16016,-2473,12,3,-5
7,57,112994,-2356,-16022,-2465,11,1,-10
7,58,112999,-2336,-16025,-2402,16,-1,-10
7,59,113004,-2322,-16039,-2436,17,-1,-11
7,60,113009,-2363,-16051,-2439,13,0,-12
7,61,113014,-2415,-16010,-2394,13,-1,-14
7,62,113019,-2467,-15975,-2404,15,1,-14
7,63,113024,-2420,-15968,-2390,15,1,-13
7,64,113029,-2375,-15964,-2361,14,2,-15
7,65,113034,-2354,-15966,-2380,15,1,-16
7,66,113039,-2383,-15940,-2356,16,0,-15
7,67,113044,-2419,-15931,-2351,14,-6,-15
7,68,113049,-2367,-15953,-2371,16,-6,-19
7,69,113054,-2338,-16006,-2416,16,-11,-18
7,70,113059,-2347,-16023,-2448,17,-14,-18
7,71,113064,-2304,-16078,-2412,14,-18,-19
7,72,113069,-2310,-16141,-2422,15,-23,-19
7,73,113074,-2303,-16128,-2453,16,-23,-16
7,74,113079,-2301,-16168,-2441,13,-19,-19
7,75,113084,-2344,-16189,-2435,14,-17,-18
7,76,113089,-2366,-16210,-2462,13,-17,-19
7,77,113094,-2338,-16215,-2410,15,-18,-20
7,78,113099,-2324,-16239,-2426,12,-19,-21
7,79,113104,-2350,-16207,-2355,10,-20,-21
7,80,113109,-2344,-16163,-2319,11,-23,-20
7,81,113114,-2377,-16157,-2355,11,-25,-20
7,82,113119,-2357,-16095,-2383,11,-24,-19
7,83,113124,-2280,-16081,-2361,10,-17,-19
7,84,113129,-2274,-16041,-2367,9,-13,-19
7,85,113134,-2272,-16023,-2329,10,-11,-17
7,86,113139,-2277,-16049,-2330,6,-15,-17
7,87,113144,-2238,-16045,-2362,6,-18,-14
7,88,113149,-2216,-16043,-2374,6,-21,-14
7,89,113154,-2206,-16048,-2369,5,-25,-15
7,90,113159,-2244,-16038,-2361,2,-28,-10
7,91,113164,-2282,-16062,-2436,3,-28,-11
7,92,113169,-2291,-16104,-2491,3,-29,-13
7,93,113174,-2279,-16051,-2486,0,-23,-9
7,94,113179,-2296,-16038,-2474,1,-22,-8
7,95,113184,-2369,-16029,-2458,1,-24,-11
7,96,113189,-2389,-16036,-2509,3,-23,-10
7,97,113194,-2390,-16090,-2520,0,-19,-5
7,98,113199,-2398,-16093,-2538,0,-16,-3
7,99,113204,-2342,-16092,-2459,-2,-16,-5
7,100,113209,-2310,-16071,-2455,-1,-18,-5
7,101,113214,-2313,-16094,-2493,-1,-18,-4
7,102,113219,-2278,-16107,-2435,-2,-22,-4
7,103,113224,-2286,-16107,-2416,-3,-22,-6
7,104,113229,-2315,-16070,-2464,-1,-24,-5
7,105,113234,-2355,-16083,-2484,-3,-24,-3
7,106,113239,-2332,-16067,-2503,-1,-26,-4
7,107,113244,-2312,-16027,-2486,-1,-21,-3
7,108,113249,-2391,-16053,-2480,-5,-18,-5
7,109,113254,-2421,-16083,-2538,-6,-18,-4
7,290,114159,-2238,-16221,-2610,23,9,8
7,291,114164,-2243,-16244,-2599,21,15,1
7,292,114169,-2288,-16247,-2528,22,24,0
7,293,114174,-2291,-16223,-2500,20,26,1
7,294,114179,-2345,-16180,-2545,22,28,3
7,440,114909,-4528,-15924,-1592,204,248,503
7,441,114914,-4534,-15950,-1526,208,239,507
7,442,114919,-4535,-15990,-1609,213,221,511
7,443,114924,-4590,-15971,-1680,214,218,511
7,444,114929,-4572,-16033,-1747,217,216,511
7,445,114934,-4549,-16066,-1813,224,214,515
7,446,114939,-4507,-16119,-1783,226,220,516
7,447,114944,-4568,-16151,-1720,226,220,513
7,448,114949,-4598,-16188,-1763,230,212,513
7,449,114954,-4477,-16224,-1806,235,201,512
7,450,114959,-4459,-16247,-1751,240,195,513
7,451,114964,-4501,-16252,-1821,240,181,510
7,452,114969,-4479,-16271,-1867,244,164,510
7,453,114974,-4382,-16300,-1961,248,152,509
7,454,114979,-4354,-16319,-1928,251,142,508
7,455,114984,-4426,-16308,-1831,256,132,506
7,456,114989,-4397,-16280,-1858,258,116,504
7,457,114994,-4300,-16257,-1940,261,100,502
7,458,114999,-4206,-16253,-1960,260,90,500
7,459,115004,-4098,-16207,-1963,266,51,496
7,460,115009,-4081,-16099,-2095,266,27,497
7,461,115014,-4096,-16021,-2186,272,21,494
7,462,115019,-4061,-16011,-2238,275,33,488
7,463,115024,-4035,-15941,-2261,277,57,483
7,464,115029,-3905,-15948,-2251,278,87,479
7,465,115034,-3755,-15838,-2241,278,115,472
7,466,115039,-3668,-15759,-2235,278,143,469
7,467,115044,-3643,-15752,-2197,278,164,463
7,468,115049,-3552,-15703,-2171,279,178,458
7,469,115054,-3362,-15699,-2268,280,191,458
7,470,115059,-3336,-15741,-2311,278,212,450
7,471,115064,-3356,-15706,-2182,277,229,444
7,472,115069,-3385,-15695,-2126,275,236,442
7,473,115074,-3308,-15704,-2232,275,249,439
7,474,115079,-3205,-15673,-2302,272,268,432
7,475,115084,-3155,-15697,-2224,268,285,426
7,476,115089,-3138,-15706,-2136,263,298,421
7,477,115094,-3180,-15683,-2114,256,298,417
7,478,115099,-3202,-15699,-2129,256,299,413
7,479,115104,-3100,-15744,-2155,252,315,409
7,580,115609,-2885,-17058,-2110,-330,-194,-873
7,581,115614,-2897,-17025,-2065,-329,-214,-877
7,582,115619,-2935,-17038,-2054,-330,-230,-879
7,583,115624,-2933,-17063,-2125,-330,-242,-881
7,584,115629,-2841,-17077,-2238,-330,-245,-883
7,585,115634,-2813,-17104,-2321,-331,-241,-886
7,586,115639,-2826,-17157,-2375,-332,-236,-891
7,587,115644,-2808,-17164,-2452,-330,-230,-893
7,588,115649,-2747,-17170,-2472,-331,-217,-895
7,589,115654,-2791,-17199,-2448,-331,-196,-896
7,590,115659,-2820,-17212,-2339,-331,-172,-898
7,591,115664,-2854,-17259,-2308,-332,-151,-898
7,592,115669,-2734,-17307,-2266,-328,-133,-896
7,593,115674,-2640,-17350,-2240,-325,-117,-894
7,594,115679,-2687,-17346,-2017,-323,-106,-896
7,595,115684,-2630,-17381,-2005,-323,-125,-895
7,596,115689,-2580,-17412,-2092,-321,-145,-890
7,597,115694,-2541,-17446,-2126,-315,-155,-886
7,598,115699,-1615,-13737,-2602,-309,-161,-885
7,599,115704,10716,-8799,-2088,-350,-298,-881
7,600,115709,-25201,584,25055,-372,192,-1230
7,601,115714,-820,-17479,-15485,-1,-3907,147
7,602,115719,13358,-23346,-32768,-224,-2844,-23
7,603,115724,-4871,-17532,-4518,-302,3723,-1249
7,604,115729,-8896,-15296,10521,-278,2871,-834
7,605,115734,-2821,-15236,-681,-165,-358,-569
7,606,115739,1049,-19360,-9869,-174,-675,-455
7,607,115744,-1733,-18599,-975,-238,638,-638
7,608,115749,-4116,-14809,4428,-249,782,-749
7,609,115754,-2758,-15997,1954,-165,-204,-554
7,610,115759,-2783,-16620,-4270,-149,-702,-523
7,611,115764,-2455,-16879,-6163,-180,-428,-536
7,612,115769,-2744,-16777,-3126,-196,149,-584
7,613,115774,-3608,-16157,-519,-205,327,-618
7,614,115779,-3203,-16270,-1946,-178,33,-572
7,615,115784,-2743,-16330,-4419,-169,-40,-560
7,616,115789,-2801,-16346,-3905,-174,257,-581
7,617,115794,-3073,-16336,-1458,-170,517,-599
7,618,115799,-3302,-15876,-21,-167,462,-597
7,619,115804,-3020,-15938,-1031,-156,195,-565
7,620,115809,-2752,-16075,-2407,-158,104,-560
7,621,115814,-2850,-16062,-2242,-165,224,-565
7,622,115819,-2844,-15903,-1066,-164,308,-567
7,623,115824,-2851,-15846,-726,-153,222,-557
7,624,115829,-2741,-15966,-1644,-146,61,-540
7,625,115834,-2737,-16009,-2296,-146,32,-531
7,626,115839,-2807,-15954,-1895,-153,105,-535
7,627,115844,-2770,-15894,-1256,-155,126,-532
7,628,115849,-2780,-15947,-1133,-151,56,-519
7,629,115854,-2565,-16078,-1788,-139,-44,-503
7,630,115859,-2688,-16059,-2027,-142,-41,-497
7,631,115864,-2707,-16027,-1627,-140,-4,-495
7,632,115869,-2734,-15952,-1224,-137,-19,-488
7,633,115874,-2696,-15903,-1525,-134,-100,-475
7,634,115879,-2633,-15990,-1892,-133,-156,-459
7,635,115884,-2523,-15996,-2088,-128,-162,-451
7,636,115889,-2548,-15970,-1943,-126,-150,-445
7,637,115894,-2596,-15972,-1967,-120,-158,-436
7,638,115899,-2474,-15949,-2291,-116,-183,-424
7,639,115904,-2429,-15934,-2492,-114,-183,-417
7,640,115909,-2470,-15872,-2463,-111,-162,-410
7,641,115914,-2365,-15848,-2290,-109,-156,-400
7,642,115919,-2277,-15809,-2213,-104,-171,-388
7,643,115924,-2170,-15851,-2245,-99,-191,-375
7,644,115929,-2033,-15928,-2329,-95,-189,-364
7,645,115934,-1821,-15981,-2325,-91,-176,-353
7,646,115939,-1741,-15983,-2239,-87,-166,-344
7,647,115944,-1670,-15974,-2302,-79,-169,-333
7,648,115949,-1549,-16032,-2367,-80,-170,-319
7,649,115954,-1458,-16019,-2464,-75,-154,-307
7,650,115959,-1342,-15974,-2437,-71,-126,-298
7,651,115964,-1271,-15935,-2322,-69,-112,-285
7,652,115969,-1251,-15891,-2238,-62,-121,-269
7,653,115974,-1186,-15861,-2334,-57,-127,-255
7,654,115979,-1244,-15847,-2407,-53,-124,-246
7,655,115984,-1246,-15785,-2380,-50,-113,-228
7,656,115989,-1229,-15771,-2270,-46,-112,-215
7,657,115994,-1180,-15751,-2416,-40,-122,-202
7,658,115999,-973,-15797,-2587,-35,-126,-186
7,659,116004,-952,-15831,-2581,-35,-118,-176
7,660,116009,-863,-15881,-2429,-32,-113,-166
7,661,116014,-873,-15910,-2426,-27,-116,-151
7,662,116019,-812,-15989,-2484,-25,-116,-139
7,663,116024,-764,-16048,-2514,-22,-100,-128
7,664,116029,-706,-16142,-2431,-20,-82,-119
7,665,116034,-686,-16160,-2346,-14,-70,-108
7,666,116039,-625,-16145,-2342,-10,-70,-97
7,667,116044,-576,-16131,-2424,-7,-69,-87
7,668,116049,-548,-16094,-2381,-6,-64,-73
7,669,116054,-592,-16036,-2332,-2,-71,-64
7,945,117434,83,-16148,-3151,12,-4,-1
7,946,117439,85,-16162,-3114,11,0,-2
7,947,117444,76,-16137,-3067,10,1,-1
7,948,117449,63,-16185,-3107,10,2,1
7,949,117454,77,-16199,-3094,9,6,1
7,950,117459,133,-16234,-3027,10,8,2
7,951,117464,139,-16175,-3089,9,5,-2
7,952,117469,160,-16193,-3151,9,0,-1
7,953,117474,170,-16238,-3157,10,1,-1
7,954,117479,166,-16165,-3159,10,-1,0
8,0,121119,43,-16155,-3207,10,-24,-17
8,1,121124,54,-16165,-3155,11,-16,-19
8,2,121129,67,-16171,-3103,9,-12,-21
8,3,121134,104,-16103,-3098,13,-9,-19
8,4,121139,96,-16175,-3105,11,-5,-21
8,5,121144,96,-16164,-3073,11,-1,-21
8,6,121149,63,-16134,-2974,13,-1,-19
8,7,121154,2,-16171,-2975,13,-11,-17
8,8,121159,38,-16156,-3130,15,-20,-17
8,9,121164,89,-16173,-3070,15,-16,-18
8,10,121169,83,-16148,-2995,15,-13,-18
8,11,121174,60,-16158,-2968,10,-18,-20
8,12,121179,105,-16155,-2977,12,-23,-20
8,13,121184,37,-16130,-3042,10,-26,-19
8,14,121189,59,-16115,-3059,12,-28,-17
8,15,121194,44,-16143,-3042,10,-30,-17
8,16,121199,73,-16184,-3003,8,-28,-14
8,17,121204,110,-16190,-2985,6,-31,-15
8,18,121209,112,-16176,-3037,6,-29,-17
8,19,121214,107,-16174,-2912,6,-22,-15
8,20,121219,52,-16179,-3015,6,-28,-11
8,21,121224,79,-16141,-3046,4,-18,-14
8,22,121229,69,-16138,-3006,3,-12,-16
8,23,121234,-2,-16131,-2985,4,-8,-13
8,24,121239,-7,-16076,-2966,1,-10,-12
8,25,121244,11,-16152,-3005,0,-14,-12
8,26,121249,24,-16148,-3033,1,-18,-12
8,27,121254,8,-16131,-3039,-1,-16,-9
8,28,121259,41,-16137,-3041,-3,-12,-10
8,29,121264,61,-16128,-2971,-3,-10,-11
8,30,121269,46,-16111,-2988,-7,-12,-11
8,31,121274,58,-16144,-2955,-8,-14,-9
8,32,121279,42,-16159,-2977,-7,-19,-10
8,33,121284,48,-16115,-2934,-6,-25,-6
8,34,121289,36,-16098,-3016,-7,-23,-10
8,35,121294,-60,-16142,-3106,-6,-19,-10
8,36,121299,13,-16119,-3104,-11,-12,-5
8,37,121304,58,-16103,-3074,-11,-3,-3
8,38,121309,23,-16138,-3018,-11,-1,-8
8,39,121314,21,-16131,-2934,-7,-9,-8
8,40,121319,57,-16127,-2980,-10,-13,-6
8,41,121324,81,-16116,-3068,-10,-13,-2
8,42,121329,53,-16123,-3056,-11,-10,-3
8,43,121334,98,-16090,-2975,-14,-6,-1
8,44,121339,108,-16122,-2954,-13,-15,-2
8,45,121344,97,-16109,-3015,-11,-27,-2
8,46,121349,92,-16088,-3011,-13,-31,1
8,47,121354,46,-16068,-3016,-14,-25,2
8,48,121359,-4,-16082,-3033,-12,-23,2
8,49,121364,-53,-16087,-3085,-12,-20,2
8,50,121369,-23,-16092,-3084,-13,-11,2
8,51,121374,-26,-16101,-3053,-13,-1,1
8,52,121379,-48,-16069,-3002,-14,8,2
8,53,121384,7,-16104,-2990,-14,7,2
8,54,121389,-30,-16087,-3019,-10,-5,1
8,55,121394,-6,-16113,-2997,-12,-13,4
8,56,121399,-10,-16139,-3024,-11,-18,3
8,57,121404,37,-16131,-3113,-8,-22,3
8,58,121409,20,-16103,-3158,-8,-27,7
8,59,121414,3,-16119,-3177,-9,-28,5
8,60,121419,-13,-16134,-3270,-8,-29,5
8,61,121424,44,-16141,-3324,-9,-25,6
8,62,121429,5,-16134,-3294,-8,-14,5
8,63,121434,13,-16183,-3185,-7,-6,4
8,64,121439,29,-16142,-3082,-5,-7,3
8,65,121444,26,-16131,-3068,-2,-5,5
8,66,121449,62,-16095,-3019,-4,-4,4
8,67,121454,60,-16108,-3005,-2,-11,6
8,68,121459,77,-16154,-3109,1,-16,7
8,69,121464,132,-16185,-3097,1,-21,7
8,70,121469,112,-16170,-3033,-2,-27,7
8,71,121474,100,-16145,-3097,0,-34,11
8,72,121479,81,-16169,-3172,3,-34,11
8,73,121484,24,-16174,-3232,1,-29,8
8,74,121489,67,-16193,-3251,3,-15,11
8,75,121494,64,-16126,-3189,3,3,8
8,76,121499,70,-16148,-3149,6,9,6
8,77,121504,55,-16119,-3101,6,9,7
8,78,121509,48,-16097,-3119,4,10,8
8,79,121514,81,-16111,-3078,5,6,8
8,80,121519,79,-16148,-3023,5,-2,7
8,81,121524,77,-16083,-3093,8,-6,9
8,82,121529,106,-16090,-3166,9,-4,6
8,83,121534,86,-16069,-3134,10,5,8
8,84,121539,53,-16104,-3028,7,11,7
8,85,121544,58,-16094,-2987,7,7,6
8,86,121549,70,-16146,-3001,6,5,7
8,87,121554,87,-16129,-3070,8,5,8
8,88,121559,71,-16134,-3030,6,9,7
8,89,121564,105,-16171,-2945,6,7,7
8,90,121569,114,-16177,-2908,8,-4,7
8,91,121574,84,-16185,-2931,5,-16,6
8,92,121579,4,-16202,-2976,8,-26,4
8,93,121584,-33,-16147,-2922,7,-38,7
8,94,121589,-38,-16139,-3006,8,-38,6
8,95,121594,-15,-16161,-3058,6,-34,6
8,96,121599,9,-16172,-3081,5,-25,3
8,97,121604,-41,-16174,-3029,5,-20,1
8,98,121609,-22,-16145,-2984,4,-21,2
8,99,121614,39,-16135,-3083,3,-21,1
8,100,121619,45,-16188,-3067,4,-16,2
8,101,121624,6,-16226,-2954,0,-6,-3
8,102,121629,-12,-16217,-2976,1,-6,-4
8,103,121634,23,-16208,-3023,3,-10,-3
8,104,121639,19,-16180,-3028,2,-8,-5
8,105,121644,-19,-16156,-3019,-1,-7,-2
8,106,121649,-19,-16121,-3038,-1,-7,-5
8,107,121654,-38,-16122,-3000,1,-7,-7
8,108,121659,-56,-16133,-3004,-2,-8,-7
8,109,121664,-76,-16153,-3031,-2,-2,-7
8,255,122394,-67,-16173,-3149,-1,-21,-14
8,256,122399,-81,-16186,-3124,-2,-17,-12
8,257,122404,-135,-16147,-3060,-2,-13,-17
8,258,122409,-107,-16163,-3055,1,-17,-17
8,259,122414,-84,-16143,-3117,-1,-22,-17
8,260,122419,-105,-16130,-3119,-4,-23,-17
8,261,122424,-71,-16130,-3127,-4,-23,-15
8,262,122429,-46,-16152,-3127,-3,-23,-17
8,263,122434,-82,-16106,-3093,-4,-29,-19
8,264,122439,-115,-16101,-3052,-4,-33,-17
8,265,122444,-116,-16097,-3059,-4,-33,-20
8,266,122449,-167,-16087,-3125,-4,-27,-18
8,267,122454,-171,-16055,-3185,-3,-19,-17
8,268,122459,-104,-16078,-3148,-6,-17,-19
8,269,122464,-50,-16114,-3043,-7,-22,-20
8,270,122469,-116,-16109,-3120,-5,-26,-20
8,271,122474,-119,-16104,-3101,-3,-27,-19
8,272,122479,-54,-16065,-3100,-6,-29,-20
8,273,122484,-68,-16062,-3114,-8,-30,-18
8,274,122489,-56,-16116,-3088,-11,-32,-20
8,275,122494,-19,-16095,-3072,-7,-39,-17
8,276,122499,-13,-16057,-3011,-9,-44,-16
8,277,122504,-103,-16038,-2945,-10,-48,-17
8,278,122509,-145,-16053,-3010,-7,-63,-15
8,279,122514,-51,-16085,-3126,-7,-77,-10
8,280,122519,-52,-16105,-3158,-6,-84,-12
8,281,122524,-120,-16136,-3182,-8,-80,-13
8,282,122529,-183,-16122,-3224,-8,-76,-11
8,283,122534,-206,-16061,-3249,-5,-78,-9
8,284,122539,-174,-16046,-3258,-6,-71,-11
8,285,122544,-175,-16082,-3285,-5,-65,-13
8,286,122549,-118,-16049,-3173,-3,-64,-13
8,287,122554,-107,-16066,-3201,-3,-75,-8
8,288,122559,-76,-16092,-3196,-3,-85,-11
8,289,122564,-70,-16082,-3127,-1,-97,-11
8,290,122569,-47,-16099,-3119,1,-113,-10
8,291,122574,-54,-16083,-3169,3,-129,-11
8,292,122579,-38,-16081,-3310,3,-142,-8
8,293,122584,-44,-16022,-3458,3,-143,-10
8,294,122589,-48,-16058,-3531,7,-135,-5
8,295,122594,-61,-16079,-3498,8,-115,-5
8,296,122599,-7,-16035,-3539,6,-95,-7
8,297,122604,10,-16025,-3546,10,-70,-8
8,298,122609,24,-15988,-3502,10,-42,-11
8,299,122614,19,-15977,-3446,13,-20,-13
8,300,122619,40,-16003,-3381,17,-5,-11
8,301,122624,87,-15957,-3236,17,7,-12
8,302,122629,80,-15961,-3110,15,10,-13
8,303,122634,44,-15964,-3084,15,7,-14
8,304,122639,36,-15988,-3114,14,4,-12
8,305,122644,47,-16048,-3041,14,-2,-10
8,306,122649,19,-16049,-2982,14,-11,-11
8,307,122654,59,-16091,-3058,15,-24,-10
8,308,122659,49,-16149,-3110,17,-29,-10
8,309,122664,3,-16160,-3134,16,-30,-11
8,310,122669,-52,-16178,-3146,13,-28,-11
8,311,122674,-66,-16193,-3206,13,-27,-7
8,312,122679,-34,-16234,-3277,10,-25,-9
8,313,122684,-34,-16301,-3208,13,-11,-7
8,314,122689,-47,-16270,-3191,11,-4,-8
8,315,122694,1,-16222,-3179,10,2,-11
8,316,122699,-2,-16249,-3161,12,7,-11
8,317,122704,-27,-16206,-3095,11,16,-8
8,318,122709,10,-16191,-3066,10,20,-6
8,319,122714,16,-16153,-3082,8,16,-8
8,320,122719,-11,-16118,-3117,6,11,-7
8,321,122724,-62,-16106,-3105,4,10,-2
8,322,122729,-28,-16094,-3061,3,8,-2
8,323,122734,-45,-16079,-3046,4,7,0
8,324,122739,-52,-16105,-3034,4,6,2
8,325,122744,-90,-16112,-3072,3,6,2
8,326,122749,-111,-16099,-3097,-1,1,1
8,327,122754,-145,-16067,-3116,0,1,1
8,328,122759,-147,-16079,-3102,1,4,4
8,329,122764,-119,-16070,-3192,-3,8,6
8,330,122769,-120,-16065,-3163,-7,14,4
8,331,122774,-145,-16069,-3077,-6,18,9
8,332,122779,-112,-16134,-2996,-6,15,7
8,333,122784,-67,-16165,-2998,-8,9,10
8,334,122789,-73,-16141,-3033,-8,5,11
8,335,122794,-185,-16107,-3108,-8,-3,9
8,336,122799,-281,-16099,-3084,-7,-11,14
8,337,122804,-196,-16112,-3167,-11,-20,16
8,338,122809,-120,-16152,-3184,-14,-24,16
8,339,122814,-125,-16147,-3180,-12,-24,17
8,340,122819,-164,-16158,-3229,-13,-27,18
8,341,122824,-170,-16152,-3282,-17,-24,20
8,342,122829,-146,-16140,-3320,-15,-18,21
8,343,122834,-134,-16230,-3236,-14,-2,17
8,344,122839,-151,-16208,-3161,-18,11,18
8,345,122844,-206,-16209,-3172,-17,13,20
8,346,122849,-179,-16231,-3215,-16,12,23
8,347,122854,-88,-16257,-3209,-16,19,22
8,348,122859,-82,-16247,-3123,-15,24,17
8,349,122864,-80,-16256,-3057,-17,15,19
8,350,122869,-48,-16213,-3149,-17,7,20
8,351,122874,-89,-16183,-3181,-16,1,22
8,352,122879,-54,-16154,-3240,-15,2,24
8,353,122884,-107,-16155,-3217,-15,7,22
8,354,122889,-161,-16095,-3185,-16,9,21
8,355,122894,-119,-16079,-3273,-14,12,21
8,356,122899,-111,-16104,-3319,-14,17,22
8,357,122904,-109,-16129,-3289,-15,29,20
8,358,122909,-98,-16083,-3224,-13,35,22
8,359,122914,-69,-16079,-3179,-13,35,21
8,360,122919,-64,-16068,-3188,-12,28,20
8,361,122924,-50,-16085,-3226,-8,25,20
8,362,122929,-81,-16139,-3200,-11,21,20
8,363,122934,-65,-16130,-3195,-8,17,21
8,364,122939,-110,-16102,-3161,-8,12,22
8,365,122944,-124,-16109,-3336,-6,10,19
8,366,122949,-167,-16098,-3316,-2,12,18
8,367,122954,-183,-16078,-3311,-2,24,16
8,368,122959,-158,-16032,-3321,-1,26,18
8,369,122964,-134,-16068,-3290,1,27,17
8,370,122969,-105,-16075,-3248,0,26,14
8,371,122974,-93,-16069,-3288,2,22,15
8,372,122979,-162,-16083,-3313,5,20,14
8,373,122984,-206,-16082,-3266,8,19,11
8,374,122989,-197,-16056,-3256,7,18,12
8,375,122994,-160,-16074,-3238,10,15,12
8,376,122999,-142,-16065,-3228,12,13,7
8,377,123004,-145,-16041,-3215,12,11,10
8,378,123009,-125,-16072,-3178,11,9,8
8,379,123014,-132,-16080,-3206,12,5,10
8,380,123019,-105,-16086,-3275,14,1,7
8,381,123024,-89,-16097,-3311,14,3,5
8,382,123029,-86,-16119,-3256,14,8,4
8,383,123034,-68,-16185,-3189,16,13,3
8,384,123039,-50,-16180,-3169,15,15,3
8,385,123044,-25,-16184,-3176,14,20,2
8,386,123049,-26,-16196,-3060,15,30,-1
8,387,123054,-62,-16197,-3041,15,28,0
8,388,123059,7,-16162,-3021,14,17,2
8,389,123064,28,-16198,-3042,16,4,0
8,390,123069,8,-16166,-3079,17,-7,-1
8,391,123074,5,-16233,-3102,14,-17,-2
8,392,123079,33,-16225,-3103,12,-21,-2
8,393,123084,26,-16229,-3191,14,-18,-2
8,394,123089,8,-16215,-3285,16,-13,-1
8,395,123094,-24,-16182,-3262,15,-5,-4
8,396,123099,8,-16147,-3252,15,2,-3
8,397,123104,2,-16141,-3198,14,5,-4
8,398,123109,-22,-16156,-3225,17,6,-5
8,399,123114,12,-16118,-3166,15,13,-5
8,400,123119,47,-16131,-3101,14,16,-7
8,401,123124,75,-16134,-3131,14,15,-6
8,402,123129,76,-16109,-3172,13,7,-7
8,403,123134,-1,-16089,-3092,13,-2,-7
8,404,123139,-5,-16107,-3178,14,-9,-8
8,405,123144,-61,-16119,-3235,18,-13,-9
8,406,123149,-52,-16105,-3271,16,-6,-5
8,407,123154,-30,-16098,-3224,12,2,-6
8,408,123159,-96,-16101,-3219,13,4,-12
8,409,123164,-59,-16076,-3255,15,1,-12
8,410,123169,-63,-16081,-3192,17,-1,-12
8,411,123174,-102,-16076,-3203,16,-4,-14
8,412,123179,-58,-16101,-3235,20,-9,-12
8,413,123184,30,-16118,-3222,18,-12,-11
8,414,123189,-15,-16060,-3157,15,-9,-16
8,415,123194,-43,-16056,-3182,15,-4,-16
8,416,123199,-91,-16044,-3222,15,-3,-11
8,417,123204,-135,-16050,-3147,15,-6,-13
8,418,123209,-185,-16055,-3101,14,-6,-16
8,419,123214,-141,-16039,-3122,15,-3,-14
8,420,123219,-105,-16098,-3131,14,3,-16
8,421,123224,-82,-16120,-3077,11,6,-17
8,422,123229,-63,-16110,-3023,14,4,-14
8,423,123234,-78,-16088,-3054,14,-5,-15
8,424,123239,-90,-16123,-3075,13,-13,-17
8,425,123244,-83,-16103,-3140,11,-20,-16
8,426,123249,-109,-16097,-3161,11,-21,-16
8,427,123254,-82,-16083,-3109,13,-19,-15
8,428,123259,-128,-16061,-3136,12,-17,-13
8,429,123264,-152,-16072,-3168,12,-18,-14
8,430,123269,-45,-16089,-3173,11,-15,-14
8,431,123274,-32,-16125,-3121,6,-13,-14
8,432,123279,-87,-16077,-3082,8,-18,-13
8,433,123284,-103,-16079,-3073,11,-27,-11
8,434,123289,-87,-16076,-3120,12,-24,-10
8,435,123294,-70,-16097,-3150,10,-18,-13
8,436,123299,-68,-16105,-3113,7,-16,-11
8,437,123304,-91,-16112,-3098,10,-20,-11
8,438,123309,-34,-16077,-3171,11,-25,-9
8,439,123314,-56,-16085,-3219,8,-23,-8
8,440,123319,-52,-16113,-3195,7,-20,-10
8,441,123324,-103,-16130,-3144,8,-19,-10
8,442,123329,-140,-16098,-3182,8,-16,-9
8,443,123334,-134,-16096,-3218,8,-15,-10
8,444,123339,-80,-16116,-3233,8,-10,-9
8,445,123344,-44,-16132,-3194,7,-3,-10
8,446,123349,-61,-16154,-3130,7,1,-9
8,447,123354,-27,-16155,-3165,7,-6,-11
8,448,123359,-41,-16125,-3236,8,-12,-8
8,449,123364,-27,-16164,-3184,6,-15,-7
8,450,123369,-47,-16139,-3203,8,-20,-9
8,451,123374,-75,-16132,-3155,7,-21,-10
8,452,123379,-43,-16118,-3189,7,-22,-9
8,453,123384,-5,-16167,-3164,8,-18,-4
8,454,123389,-64,-16179,-3136,7,-16,-5
8,455,123394,-73,-16196,-3143,7,-16,-4
8,456,123399,-99,-16147,-3157,9,-19,-5
8,457,123404,-40,-16142,-3181,10,-18,-2
8,458,123409,-81,-16175,-3201,7,-15,-3
8,459,123414,-69,-16135,-3220,11,-7,-3
8,460,123419,-80,-16084,-3217,9,-5,-4
8,461,123424,-129,-16085,-3201,11,-2,-3
8,462,123429,-130,-16090,-3174,12,-4,1
8,463,123434,-127,-16113,-3263,10,2,-2
8,464,123439,-121,-16099,-3243,9,5,-4
8,465,123444,-126,-16054,-3183,10,6,-2
8,466,123449,-149,-16072,-3136,11,1,-1
8,467,123454,-139,-16100,-3163,12,-4,-4
8,468,123459,-115,-16109,-3155,11,-6,-1
8,469,123464,-114,-16135,-3160,13,-6,2
8,470,123469,-63,-16159,-3160,13,-6,0
8,471,123474,-56,-16177,-3210,14,-8,-1
8,472,123479,-86,-16164,-3212,11,-3,0
8,473,123484,-122,-16142,-3137,11,-2,0
8,474,123489,-112,-16077,-3153,14,-2,-1
8,475,123494,-113,-16121,-3153,16,-3,-2
8,476,123499,-84,-16094,-3139,15,-1,-1
8,477,123504,-86,-16071,-3075,11,-6,0
8,478,123509,-67,-16098,-3019,13,-12,2
8,479,123514,-72,-16096,-3047,14,-19,2
8,480,123519,-72,-16128,-3125,13,-25,-1
8,481,123524,-37,-16152,-3122,12,-28,-2
8,482,123529,-107,-16132,-3046,15,-37,0
8,483,123534,-69,-16111,-3075,14,-44,-1
8,484,123539,-89,-16099,-3075,14,-46,-1
8,485,123544,-65,-16093,-3182,16,-43,-2
8,486,123549,-76,-16080,-3172,15,-37,-1
8,487,123554,-85,-16079,-3166,17,-37,0
8,488,123559,-73,-16063,-3216,16,-43,0
8,489,123564,-74,-16057,-3263,15,-45,-1
8,490,123569,-39,-16089,-3277,17,-42,-2
8,491,123574,-2,-16112,-3202,17,-41,-5
8,492,123579,34,-16096,-3230,18,-41,-4
8,493,123584,-38,-16114,-3250,18,-41,-4
8,494,123589,-77,-16118,-3266,18,-37,-4
8,495,123594,-52,-16112,-3215,20,-28,-4
8,496,123599,-74,-16120,-3123,20,-17,-6
8,497,123604,-60,-16147,-3142,19,-13,-10
8,498,123609,-69,-16167,-3166,17,-17,-7
8,499,123614,-17,-16194,-3162,19,-17,-6
8,500,123619,26,-16221,-3141,18,-14,-9
8,501,123624,-5,-16148,-3074,18,-10,-9
8,502,123629,43,-16111,-3047,16,-7,-12
8,503,123634,58,-16097,-3019,13,-9,-10
8,504,123639,-41,-16076,-3059,17,-17,-10
8,505,123644,-81,-16108,-3077,14,-15,-10
8,506,123649,-67,-16074,-3025,15,-9,-12
8,507,123654,-57,-16083,-2976,15,-4,-15
8,508,123659,-89,-16116,-2977,14,-2,-15
8,509,123664,-44,-16111,-3094,11,2,-14
8,510,123669,-78,-16095,-3050,8,1,-15
8,511,123674,-65,-16094,-2961,7,-13,-16
8,512,123679,11,-16117,-2985,9,-24,-14
8,513,123684,-32,-16140,-3033,10,-30,-13
8,514,123689,-54,-16137,-3134,6,-33,-15
8,515,123694,-69,-16098,-3129,4,-33,-15
8,516,123699,-73,-16152,-3138,5,-35,-13
8,517,123704,-79,-16208,-3076,5,-34,-14
8,518,123709,-92,-16196,-3098,4,-33,-16
8,519,123714,-136,-16216,-3100,5,-39,-13
8,520,123719,-220,-16251,-3036,3,-36,-16
8,521,123724,-260,-16236,-3027,4,-34,-17
8,522,123729,-258,-16284,-3111,3,-36,-15
8,523,123734,-204,-16322,-3185,3,-38,-15
8,524,123739,-201,-16321,-3128,2,-44,-18
8,525,123744,-243,-16374,-3113,2,-54,-17
8,526,123749,-347,-16288,-3133,1,-70,-18
8,527,123754,-361,-16266,-3189,3,-86,-17
8,528,123759,-385,-16310,-3268,3,-92,-18
8,529,123764,-384,-16361,-3302,7,-95,-17
8,530,123769,-332,-16367,-3415,9,-98,-20
8,531,123774,-385,-16334,-3411,8,-98,-25
8,532,123779,-454,-16226,-3470,13,-98,-24
8,533,123784,-373,-16177,-3435,13,-89,-28
8,534,123789,-270,-16138,-3362,12,-82,-31
8,535,123794,-205,-16091,-3296,12,-88,-32
8,536,123799,-133,-16027,-3228,15,-98,-32
8,537,123804,-123,-15999,-3199,15,-105,-31
8,538,123809,-92,-15958,-3104,12,-112,-33
8,539,123814,-44,-15950,-3041,12,-119,-34
8,540,123819,-65,-15980,-3018,16,-133,-32
8,541,123824,-47,-15972,-3259,16,-143,-32
8,542,123829,63,-15949,-3342,12,-141,-35
8,543,123834,98,-15986,-3220,12,-141,-34
8,544,123839,103,-16032,-3093,12,-149,-34
8,545,123844,12,-16087,-3181,14,-156,-35
8,546,123849,219,-15979,-3642,16,-158,-31
8,547,123854,198,-15994,-3431,11,-134,-35
8,548,123859,45,-16005,-3087,7,-142,-38
8,549,123864,94,-16064,-3241,9,-175,-31
8,550,123869,106,-16100,-3398,8,-182,-29
8,551,123874,79,-16128,-3403,7,-166,-34
8,552,123879,59,-16148,-3340,6,-146,-33
8,553,123884,53,-16150,-3337,4,-143,-33
8,554,123889,18,-16149,-3359,4,-147,-34
8,555,123894,-37,-16170,-3434,3,-145,-34
8,556,123899,8,-16212,-3383,3,-138,-35
8,557,123904,5,-16232,-3191,1,-139,-31
8,558,123909,-35,-16297,-3153,1,-152,-31
8,559,123914,-54,-16332,-3298,-1,-169,-35
8,560,123919,-153,-16370,-3324,-4,-179,-32
8,561,123924,-207,-16436,-3326,-7,-180,-30
8,562,123929,-198,-16580,-3265,-6,-180,-24
8,563,123934,-231,-16785,-3302,-4,-176,-25
8,564,123939,-278,-16880,-3447,-5,-170,-24
8,565,123944,-277,-16985,-3405,-9,-155,-22
8,566,123949,-458,-17126,-3290,-9,-151,-24
8,567,123954,-531,-17269,-3312,-14,-154,-22
8,568,123959,-565,-17366,-3351,-15,-145,-19
8,569,123964,-715,-17457,-3390,-15,-133,-24
8,570,123969,-777,-17525,-3538,-15,-118,-22
8,571,123974,-924,-17626,-3612,-17,-90,-21
8,572,123979,-1004,-17662,-3639,-14,-61,-26
8,573,123984,-1370,-17639,-3639,-13,-33,-23
8,574,123989,-1386,-17818,-3441,-18,-10,-24
8,575,123994,-1453,-17800,-3568,-12,16,-25
8,576,123999,-1352,-17906,-3788,-6,57,-25
8,577,124004,-1433,-18070,-3789,-11,119,-29
8,578,124009,-1495,-18113,-2845,-8,175,-37
8,579,124014,-1469,-18166,-3360,-2,119,-25
8,580,124019,-1314,-18392,-3891,-1,129,-21
8,581,124024,-1098,-18496,-3676,-7,188,-31
8,582,124029,-1037,-18278,-3308,-2,208,-31
8,583,124034,-1554,-18343,-3343,7,182,-40
8,584,124039,-2126,-18482,-3685,7,150,-46
8,585,124044,-2242,-18748,-4089,9,147,-38
8,586,124049,-1688,-18353,-4146,12,193,-32
8,587,124054,-1451,-13632,-3055,8,274,-27
8,588,124059,-5053,-17321,-2789,27,285,-96
8,589,124064,-6322,-20454,-4895,38,182,-85
8,590,124069,-972,-20286,-7951,64,224,24
8,591,124074,2479,-19729,-7067,39,697,-48
8,592,124079,643,-18985,-3099,24,999,-140
8,593,124084,-357,-18694,-2762,54,868,-122
8,594,124089,-356,-17557,171,42,739,-88
8,595,124094,-773,-12707,452,-40,567,-66
8,596,124099,-3468,-14518,2899,106,331,-57
8,597,124104,97,-18921,-6927,149,-478,61
8,598,124109,-353,-20576,-3453,49,-440,61
8,599,124114,-1818,-19154,2494,21,-777,-176
8,600,124119,-7490,-15297,10207,-16,-1494,-103
8,601,124124,-3435,-13804,5841,-44,-2326,99
8,602,124129,-718,-14692,-564,133,-2411,196
8,603,124134,3234,-19386,-7397,98,-2267,101
8,604,124139,-5199,-17022,5313,-124,-1966,-134
8,605,124144,-506,-15848,-5717,54,-3528,237
8,606,124149,-2743,-16128,-6581,8,-2641,35
8,607,124154,-6219,-16129,-1189,-103,-2204,-77
8,608,124159,-5562,-16157,863,-91,-2558,27
8,609,124164,-2183,-16346,-3887,-18,-2980,74
8,610,124169,-2499,-17321,-6268,-35,-2789,5
8,611,124174,-5646,-16406,-2901,-99,-2360,-96
8,612,124179,-4902,-16463,-896,-88,-2381,-33
8,613,124184,-2603,-16755,-3485,-45,-2563,6
8,614,124189,-2845,-16743,-4366,-65,-2451,-70
8,615,124194,-4575,-16666,-2502,-100,-2299,-117
8,616,124199,-4718,-16621,-1503,-94,-2284,-78
8,617,124204,-2453,-17517,-3417,-63,-2322,-38
8,618,124209,-1801,-17976,-3049,-81,-2195,-84
8,619,124214,-2700,-17794,-476,-108,-2165,-125
8,620,124219,-3069,-18021,-421,-88,-2383,-78
8,621,124224,-1729,-18273,-2917,-71,-2571,-43
8,622,124229,-1069,-17977,-2654,-104,-2532,-66
8,623,124234,-2249,-17220,406,-142,-2542,-85
8,624,124239,-2022,-16878,787,-118,-2818,-41
8,625,124244,-787,-17137,-1648,-103,-3045,13
8,626,124249,-514,-17180,-1098,-129,-3001,7
8,627,124254,-857,-17364,278,-147,-3062,0
8,628,124259,-943,-17465,485,-134,-3337,39
8,629,124264,32,-17177,-1433,-123,-3644,89
8,630,124269,741,-16809,-1723,-145,-3757,104
8,631,124274,-2360,-16452,-481,-153,-3838,83
8,632,124279,-3349,-17044,-1176,-143,-4102,133
8,633,124284,-2135,-17616,-2569,-123,-4341,203
8,634,124289,-804,-17740,-2756,-122,-4372,206
8,635,124294,-1763,-17708,-1378,-138,-4336,176
8,636,124299,-2926,-17297,-1366,-123,-4495,196
8,637,124304,-2353,-17511,-3066,-121,-4695,258
8,638,124309,-1590,-17209,-3804,-126,-4688,258
8,639,124314,-2116,-16940,-2883,-123,-4563,242
8,640,124319,-2738,-16806,-2803,-105,-4553,253
8,641,124324,-2662,-16767,-3326,-87,-4572,284
8,642,124329,-2113,-16788,-3953,-87,-4558,292
8,643,124334,-2550,-16592,-3541,-86,-4455,275
8,644,124339,-3160,-16513,-3671,-69,-4386,279
8,645,124344,-3126,-16484,-4334,-55,-4321,296
8,646,124349,-2849,-16458,-4496,-51,-4202,291
8,647,124354,-2999,-16385,-4165,-48,-4069,280
8,648,124359,-3371,-16275,-4107,-31,-3979,278
8,649,124364,-3259,-16297,-4633,-13,-3897,285
8,650,124369,-3041,-16122,-4756,-2,-3761,280
8,651,124374,-3090,-16057,-4705,11,-3606,265
8,652,124379,-3346,-15979,-4524,28,-3457,254
8,653,124384,-3353,-15840,-4541,42,-3349,254
8,654,124389,-3285,-15857,-4629,47,-3246,249
8,655,124394,-3307,-15771,-4668,57,-3132,236
8,656,124399,-3423,-15690,-4670,70,-2996,223
8,657,124404,-3467,-15667,-4705,85,-2847,218
8,658,124409,-3462,-15532,-4525,97,-2706,209
8,659,124414,-3542,-15486,-4469,115,-2590,194
8,660,124419,-3511,-15455,-4576,130,-2480,183
8,661,124424,-3514,-15283,-4307,137,-2351,173
8,662,124429,-3640,-15323,-4491,146,-2234,162
8,663,124434,-3581,-15331,-4223,162,-2117,150
8,664,124439,-3614,-15192,-4128,173,-2025,138
8,665,124444,-3537,-15246,-4147,186,-1939,132
8,666,124449,-3613,-15206,-3997,196,-1838,118
8,667,124454,-3572,-15248,-3927,210,-1770,107
8,668,124459,-3544,-15339,-3814,219,-1710,102
8,669,124464,-3481,-15383,-3569,229,-1662,93
8,670,124469,-3507,-15538,-3449,242,-1619,83
8,671,124474,-3540,-15642,-3530,252,-1563,73
8,672,124479,-3556,-15653,-3419,261,-1486,65
8,673,124484,-3609,-15742,-3205,267,-1419,54
8,674,124489,-3784,-15811,-2919,278,-1399,47
8,675,124494,-3596,-15780,-3148,287,-1385,40
8,676,124499,-3653,-15797,-3127,290,-1313,31
8,677,124504,-3548,-15852,-2795,300,-1236,18
8,678,124509,-3584,-15739,-2694,313,-1190,3
8,679,124514,-3640,-15751,-2483,321,-1159,-7
8,680,124519,-3695,-15731,-2481,324,-1121,-12
8,681,124524,-3788,-15738,-2262,327,-1074,-22
8,682,124529,-3576,-15800,-2103,332,-1057,-29
8,683,124534,-3599,-15794,-2093,340,-1058,-35
8,684,124539,-3579,-15830,-2006,341,-1062,-44
8,685,124544,-3576,-15820,-1847,341,-1055,-49
8,686,124549,-3566,-15841,-1818,350,-1046,-56
8,687,124554,-3527,-15996,-1814,351,-1038,-62
8,688,124559,-3585,-16043,-1684,351,-1044,-65
8,689,124564,-3509,-16056,-1462,352,-1060,-71
8,690,124569,-3370,-16128,-1623,356,-1072,-75
8,691,124574,-3357,-15966,-1657,358,-1057,-86
8,692,124579,-3126,-15884,-1636,359,-1045,-87
8,693,124584,-3164,-15789,-1374,357,-1048,-88
8,694,124589,-2711,-15318,-1468,358,-1066,-90
8,695,124594,-3117,-15457,-1682,362,-1070,-93
8,696,124599,-3780,-15766,-1412,363,-1083,-101
8,697,124604,-3407,-15912,-1678,365,-1129,-100
8,698,124609,-3138,-15953,-1411,362,-1104,-95
8,699,124614,-3168,-15988,-1333,366,-1078,-106
8,700,124619,-3364,-16206,-1025,362,-1062,-120
8,701,124624,-3473,-16295,-966,359,-1076,-117
8,702,124629,-3255,-16410,-1334,364,-1081,-114
8,703,124634,-3304,-16443,-1358,362,-1030,-123
8,704,124639,-3384,-16351,-1307,355,-985,-135
8,705,124644,-3196,-16229,-1208,356,-968,-133
8,706,124649,-3041,-16044,-1296,359,-962,-133
8,707,124654,-3022,-15986,-1514,360,-938,-140
8,708,124659,-3103,-15856,-1486,354,-896,-146
8,709,124664,-3219,-15926,-1903,355,-863,-146
8,710,124669,-2802,-15719,-2046,364,-828,-150
8,711,124674,-2397,-15175,-1378,357,-755,-156
8,712,124679,-2587,-14782,-990,348,-721,-156
8,713,124684,-2664,-14766,-1272,362,-713,-155
8,714,124689,-2551,-15095,-2495,372,-703,-149
8,715,124694,-2493,-14910,-2304,361,-638,-153
8,716,124699,-2411,-14536,-1292,356,-603,-156
8,717,124704,-2282,-14223,-1314,370,-642,-149
8,718,124709,-1678,-13596,-2653,382,-657,-143
8,719,124714,-2004,-13924,-2132,380,-600,-148
8,720,124719,-2974,-14262,-1149,370,-611,-146
8,721,124724,-2754,-14554,-1301,384,-694,-130
8,722,124729,-2006,-14615,-2857,397,-694,-126
8,723,124734,-2360,-14962,-2452,394,-594,-133
8,724,124739,-2796,-15202,-1276,386,-569,-139
8,725,124744,-2450,-15034,-1520,398,-663,-126
8,726,124749,-1495,-14913,-2764,418,-699,-112
8,727,124754,-2434,-15048,-1794,413,-613,-129
8,728,124759,-3197,-14968,-1073,405,-639,-134
8,729,124764,-3032,-14997,-1299,413,-715,-114
8,730,124769,-2407,-14861,-2854,431,-726,-104
8,731,124774,-2358,-14947,-2677,430,-604,-118
8,732,124779,-2470,-14921,-1613,417,-539,-131
8,733,124784,-3211,-14658,-962,430,-586,-116
8,734,124789,-3232,-14676,-2124,447,-631,-106
8,735,124794,-2620,-14885,-3005,442,-527,-115
8,736,124799,-2742,-14935,-1818,433,-332,-128
8,737,124804,-2445,-15017,-1341,441,-281,-126
8,738,124809,-2611,-15274,-1817,455,-304,-121
8,739,124814,-2505,-15351,-2621,451,-263,-122
8,740,124819,-2395,-15340,-2344,447,-139,-122
8,741,124824,-2670,-15354,-1462,451,-15,-125
8,742,124829,-2341,-15417,-1671,456,32,-119
8,743,124834,-2541,-15582,-1782,456,88,-117
8,744,124839,-2548,-15630,-1824,454,166,-118
8,745,124844,-2610,-15902,-1547,459,277,-113
8,746,124849,-2630,-16058,-1384,458,374,-115
8,747,124854,-2639,-16226,-1336,455,451,-112
8,748,124859,-2877,-16299,-1132,448,547,-112
8,749,124864,-2934,-16306,-1265,449,648,-110
8,750,124869,-2967,-16362,-1246,450,782,-110
8,751,124874,-3104,-16220,-950,437,1044,-112
8,752,124879,-3157,-16288,-998,433,1179,-117
8,753,124884,-3295,-15995,-1050,428,1325,-116
8,754,124889,-3333,-15605,-1026,421,1480,-117
8,755,124894,-3605,-15419,-564,412,1628,-121
8,756,124899,-3756,-15387,-526,409,1733,-124
8,757,124904,-3766,-15398,-610,402,1859,-124
8,758,124909,-3892,-15223,-428,389,2006,-130
8,759,124914,-3964,-15011,-78,380,2134,-135
8,760,124919,-3979,-14959,93,378,2221,-134
8,761,124924,-4079,-14873,43,366,2280,-133
8,762,124929,-4140,-14843,156,352,2345,-137
8,763,124934,-4276,-14817,416,347,2409,-138
8,764,124939,-4375,-14777,492,340,2450,-135
8,765,124944,-4336,-14717,636,325,2482,-138
8,766,124949,-4580,-14666,927,313,2502,-143
8,767,124954,-4776,-14632,965,305,2504,-144
8,768,124959,-4826,-14627,904,293,2507,-145
8,769,124964,-4750,-14647,1076,281,2516,-146
8,770,124969,-4817,-14656,1364,270,2507,-152
8,771,124974,-5024,-14652,1498,259,2473,-155
8,772,124979,-5024,-14739,1386,248,2429,-158
8,773,124984,-4946,-14822,1241,234,2390,-163
8,774,124989,-4897,-14873,1309,222,2352,-166
8,775,124994,-4891,-14960,1645,210,2290,-168
8,776,124999,-4893,-15056,1556,200,2202,-168
8,777,125004,-4794,-15190,1315,190,2123,-168
8,778,125009,-4899,-15294,785,177,2070,-172
8,779,125014,-4633,-15476,-959,181,1982,-173
8,780,125019,-5054,-15480,232,184,1982,-193
8,781,125024,-5667,-15183,1402,156,1916,-197
8,782,125029,-5506,-15267,2455,145,1851,-187
8,783,125034,-5295,-15412,1708,140,1837,-185
8,784,125039,-4833,-15630,1225,134,1883,-207
8,785,125044,-4629,-15703,1548,108,1914,-229
8,786,125049,-4677,-15486,2139,91,1824,-225
8,787,125054,-4223,-15650,1407,99,1662,-208
8,788,125059,-4309,-15751,640,93,1582,-216
8,789,125064,-4531,-15605,865,69,1551,-230
8,790,125069,-4508,-15427,1349,58,1490,-229
8,791,125074,-4445,-15230,1114,61,1390,-222
8,792,125079,-4456,-15258,682,58,1314,-225
8,793,125084,-4780,-15171,870,38,1270,-237
8,794,125089,-4878,-15172,1133,32,1204,-238
8,795,125094,-4698,-15279,872,27,1135,-234
8,796,125099,-4555,-15343,701,14,1099,-241
8,797,125104,-4669,-15350,947,1,1079,-249
8,798,125109,-4678,-15342,999,-2,1019,-251
8,799,125114,-4470,-15417,799,-3,956,-249
8,800,125119,-4335,-15354,639,-16,922,-255
8,801,125124,-4408,-15262,817,-27,900,-262
8,802,125129,-4442,-15240,909,-34,864,-267
8,803,125134,-4384,-15254,793,-42,813,-265
8,804,125139,-4266,-15245,777,-51,777,-270
8,805,125144,-4263,-15155,866,-60,751,-277
8,806,125149,-4211,-15157,794,-66,718,-276
8,807,125154,-4209,-15207,734,-78,682,-281
8,808,125159,-4296,-15145,947,-85,638,-285
8,809,125164,-4357,-15098,881,-92,581,-286
8,810,125169,-4354,-15098,576,-98,527,-282
8,811,125174,-4284,-15091,468,-107,483,-288
8,812,125180,-4370,-15139,554,-122,376,-292
8,813,125186,-4377,-15116,396,-125,298,-292
8,814,125192,-4382,-15181,293,-130,232,-292
8,815,125198,-4406,-15149,297,-138,180,-298
8,816,125204,-4270,-15169,173,-150,56,-295
8,817,125211,-4264,-15133,83,-152,-14,-296
8,818,125217,-4228,-15166,-4,-158,-87,-296
8,819,125223,-4188,-15175,68,-161,-150,-297
8,820,125229,-4165,-15225,-11,-164,-216,-296
8,821,125235,-3867,-15418,-231,-174,-319,-293
8,822,125241,-3792,-15468,-176,-177,-373,-290
8,823,125247,-3785,-15517,-214,-179,-430,-290
8,824,125253,-3698,-15543,-376,-184,-477,-286
8,825,125259,-3755,-15545,-386,-189,-535,-283
8,826,125265,-3779,-15563,-450,-191,-560,-281
8,827,125271,-3815,-15541,-603,-193,-586,-278
8,828,125272,-3815,-15541,-603,-193,-586,-278
8,829,125273,-3815,-15541,-603,-193,-586,-278
8,830,125274,-3791,-15557,-732,-199,-598,-275
8,831,125274,-3791,-15557,-732,-199,-598,-275
8,832,125279,-3778,-15558,-745,-199,-602,-275
8,833,125284,-3744,-15611,-809,-203,-603,-272
8,834,125289,-3751,-15660,-906,-209,-594,-271
8,835,125294,-3630,-15618,-963,-208,-580,-268
8,836,125299,-3512,-15593,-970,-210,-564,-266
8,837,125304,-3477,-15578,-1058,-213,-532,-268
8,838,125309,-3505,-15551,-1072,-215,-498,-265
8,839,125314,-3477,-15441,-1090,-218,-463,-261
8,840,125319,-3432,-15403,-1148,-221,-425,-258
8,841,125324,-3317,-15350,-1216,-222,-376,-257
8,842,125329,-3315,-15358,-1196,-225,-323,-258
8,843,125334,-3330,-15393,-1185,-229,-270,-255
8,844,125339,-3308,-15484,-1158,-229,-222,-251
8,845,125344,-3238,-15624,-1137,-229,-171,-249
8,846,125349,-3156,-15865,-1157,-234,-114,-248
8,847,125354,-3036,-16040,-1088,-237,-61,-242
8,848,125359,-2946,-16158,-1036,-237,-12,-237
8,849,125364,-2888,-16271,-1029,-238,34,-238
8,850,125369,-2797,-16289,-1000,-239,78,-232
8,851,125374,-2679,-16320,-988,-243,119,-226
8,852,125379,-2610,-16355,-975,-245,155,-223
8,853,125384,-2577,-16393,-977,-247,191,-217
8,854,125389,-2591,-16492,-920,-247,225,-210
8,855,125394,-2595,-16740,-847,-250,258,-204
8,856,125399,-2593,-17128,-778,-254,288,-197
8,857,125404,-2597,-17593,-686,-256,322,-186
8,858,125409,-2636,-18126,-566,-260,352,-182
8,859,125414,-2590,-18801,-478,-262,378,-177
8,860,125419,-2665,-19478,-417,-264,396,-170
8,861,125424,-2722,-20103,-233,-272,409,-161
8,862,125429,-2852,-20629,-207,-273,419,-156
8,863,125434,-2829,-20987,-219,-276,424,-151
8,864,125439,-2704,-21160,-310,-278,425,-144
8,865,125444,-2628,-21027,-410,-279,420,-139
8,866,125449,-2720,-20672,-583,-285,397,-139
8,867,125454,-2866,-20140,-844,-281,350,-131
8,868,125459,-2760,-19474,-1336,-280,294,-121
8,869,125464,-2787,-18708,-1380,-280,252,-112
8,870,125471,-2766,-17182,-1895,-273,107,-99
8,871,125474,-2766,-17182,-1895,-273,107,-99
8,872,125479,-2750,-16512,-2068,-265,42,-88
8,873,125484,-2734,-15987,-2145,-260,-24,-79
8,874,125489,-2700,-15572,-2162,-259,-92,-74
8,875,125494,-2799,-15405,-2118,-257,-142,-66
8,876,125499,-2811,-15397,-1985,-250,-183,-58
8,877,125504,-2849,-15553,-1953,-247,-195,-53
8,878,125509,-2889,-15832,-1801,-245,-172,-54
8,879,125514,-3101,-16077,-1629,-245,-140,-51
8,880,125519,-3456,-16199,-2082,-238,-124,-51
8,881,125524,-3234,-16332,-1667,-232,-87,-62
8,882,125529,-3043,-16452,-875,-250,-36,-60
8,883,125534,-2816,-16914,196,-263,16,-42
8,884,125539,-2570,-17443,315,-255,63,-53
8,885,125544,-2690,-18087,-85,-255,138,-54
8,886,125549,-2672,-18352,231,-283,230,-58
8,887,125554,-2437,-18414,804,-295,276,-55
8,888,125559,-2613,-18739,534,-292,275,-55
8,889,125564,-2738,-18859,237,-306,279,-60
8,890,125569,-2634,-18903,413,-327,294,-50
8,891,125574,-2669,-18916,641,-336,306,-45
8,892,125579,-2558,-18958,562,-339,307,-45
8,893,125584,-2463,-19038,494,-350,303,-41
8,894,125589,-2288,-18924,583,-366,291,-34
8,895,125594,-1885,-18893,575,-370,270,-25
8,896,125599,-1544,-18848,267,-377,249,-22
8,897,125604,-2398,-18307,68,-402,243,-11
8,898,125610,-2814,-18416,-510,-398,192,-2
8,899,125616,-1845,-17990,-459,-419,200,0
8,900,125622,-1116,-17904,-380,-428,276,15
8,901,125628,-1156,-17978,406,-433,364,10
8,902,125634,-1665,-17713,-150,-446,267,24
8,903,125640,-1854,-17422,-536,-460,300,33
8,904,125646,-1850,-17185,-363,-469,382,25
8,905,125652,-1891,-17031,199,-479,436,26
8,906,125658,-2191,-16750,-311,-487,417,34
8,907,125664,-2221,-16481,-474,-497,460,26
8,908,125670,-2530,-16292,-264,-512,524,22
8,909,125676,-2470,-15968,166,-520,563,20
8,910,125682,-2767,-15729,37,-526,572,19
8,911,125688,-2600,-15461,-249,-547,659,5
8,912,125694,-2616,-15245,108,-553,707,-1
8,913,125700,-2583,-15235,156,-562,727,-6
8,914,125706,-2472,-15182,-149,-572,736,-12
8,915,125712,-2569,-14914,32,-594,817,-27
8,916,125718,-2534,-14832,161,-598,842,-36
8,917,125724,-2564,-14630,350,-610,868,-44
8,918,125730,-2465,-14583,631,-622,899,-49
8,919,125736,-2420,-14953,-1015,-629,911,-59
8,920,125742,-1713,-14836,974,-651,1040,-70
8,921,125749,-2046,-14760,1197,-651,1010,-78
8,922,125754,-2429,-15266,-269,-660,981,-82
8,923,125761,-1875,-15334,-398,-675,1039,-87
8,924,125767,-1672,-15258,1249,-694,1116,-111
8,925,125773,-2023,-15543,594,-692,1039,-109
8,926,125779,-1796,-15645,154,-702,1014,-100
8,927,125785,-1352,-15643,354,-716,1047,-105
8,928,125791,-1735,-15873,582,-722,1077,-123
8,929,125797,-1141,-15864,890,-736,941,-115
8,930,125803,-860,-15911,592,-738,905,-112
8,931,125809,-1151,-15935,564,-747,907,-127
8,932,125815,-1657,-16102,649,-758,868,-128
8,933,125821,-909,-16293,533,-763,714,-107
8,934,125827,-866,-16537,551,-767,673,-118
8,935,125833,-718,-16553,897,-774,614,-118
8,936,125839,-319,-16582,942,-781,509,-99
8,937,125845,487,-16481,1013,-781,411,-86
8,938,125851,-529,-16624,811,-787,225,-79
8,939,125857,-18,-16471,729,-792,89,-54
8,940,125863,623,-16382,472,-793,-1,-36
8,941,125869,832,-16306,854,-793,-59,-31
8,942,125875,604,-16160,987,-798,-172,-26
8,943,125881,750,-15904,230,-799,-489,31
8,944,125887,786,-15819,193,-801,-557,43
8,945,125893,565,-15668,417,-803,-629,54
8,946,125899,381,-15634,510,-800,-755,79
8,947,125905,536,-15761,-343,-796,-975,122
8,948,125911,294,-15769,-252,-794,-1022,134
8,949,125917,163,-15789,-67,-791,-1085,153
8,950,125923,318,-15855,-330,-784,-1187,176
8,951,125929,171,-15874,-862,-779,-1326,205
8,952,125935,43,-15876,-946,-773,-1364,224
8,953,125942,88,-15888,-1049,-761,-1401,245
8,954,125948,146,-15916,-1169,-757,-1444,259
8,955,125948,146,-15916,-1169,-757,-1444,259
8,956,125949,115,-15939,-1262,-748,-1494,272
8,957,125950,115,-15939,-1262,-748,-1494,272
8,958,125951,115,-15939,-1262,-748,-1494,272
8,959,125951,115,-15939,-1262,-748,-1494,272
8,960,125952,115,-15939,-1262,-748,-1494,272
8,961,125953,115,-15939,-1262,-748,-1494,272
8,962,125954,115,-15939,-1262,-748,-1494,272
8,963,125954,21,-15948,-1313,-735,-1542,286
8,964,125955,21,-15948,-1313,-735,-1542,286
8,965,125956,21,-15948,-1313,-735,-1542,286
8,966,125957,21,-15948,-1313,-735,-1542,286
8,967,125957,21,-15948,-1313,-735,-1542,286
8,968,125959,21,-15948,-1313,-735,-1542,286
8,969,125964,36,-15995,-1676,-724,-1589,310
8,970,125969,81,-16060,-2060,-712,-1615,326
8,971,125974,-190,-16138,-1716,-688,-1627,347
8,972,125979,-117,-16233,-2204,-667,-1699,368
8,973,125984,-91,-16347,-2710,-653,-1720,388
8,974,125989,-152,-16376,-2888,-641,-1686,391
8,975,125994,-288,-16331,-2750,-620,-1659,400
8,976,125999,-388,-16329,-3043,-598,-1680,416
8,977,126004,-498,-16305,-3424,-581,-1676,429
8,978,126009,-729,-16311,-3598,-565,-1649,432
8,979,126014,-999,-16351,-3818,-543,-1611,442
8,980,126019,-1083,-16517,-3960,-517,-1561,453
8,981,126024,-1236,-16644,-4019,-495,-1511,454
8,982,126029,-1367,-16806,-4175,-472,-1466,453
8,983,126034,-1483,-16970,-4371,-447,-1405,454
8,984,126039,-1578,-17136,-4730,-424,-1322,455
8,985,126044,-1708,-17189,-4373,-402,-1205,450
8,986,126049,-1684,-17195,-4576,-377,-1142,449
8,987,126054,-1807,-17269,-4881,-347,-1076,447
8,988,126059,-1874,-17306,-5213,-324,-983,438
8,989,126064,-2094,-17348,-5075,-299,-856,430
8,990,126069,-2216,-17472,-5109,-273,-753,427
8,991,126074,-2362,-17599,-5088,-246,-654,421
8,992,126079,-2412,-17762,-5204,-220,-564,407
8,993,126084,-2479,-17902,-5478,-196,-460,399
8,994,126089,-2465,-17986,-5419,-169,-320,389
8,995,126094,-2452,-18035,-5159,-140,-180,377
8,996,126099,-2461,-18060,-5089,-116,-78,367
8,997,126104,-2591,-18036,-5267,-93,21,353
8,998,126109,-2565,-18106,-5340,-65,138,343
8,999,126114,-2429,-18289,-5539,-37,269,338
