event_id,seq,ts_ms,ax,ay,az,gx,gy,gz
16,0,186050,-2754,-15881,-3706,3,-11,8
16,1,186055,-2791,-15898,-3656,3,-10,6
16,2,186060,-2737,-15881,-3584,3,-10,2
16,3,186065,-2695,-15901,-3548,4,-9,-1
16,4,186070,-2675,-15936,-3522,5,-9,0
16,5,186075,-2634,-15898,-3545,4,-12,-1
16,6,186080,-2592,-15886,-3519,3,-8,-5
16,7,186085,-2570,-15912,-3567,8,-8,-5
16,8,186090,-2498,-15935,-3534,6,-8,-1
16,9,186095,-2497,-15881,-3514,4,-16,-2
16,10,186100,-2448,-15867,-3557,6,-20,-2
16,11,186105,-2398,-15862,-3596,6,-15,-5
16,12,186110,-2408,-15893,-3595,6,-12,-7
16,13,186115,-2383,-15845,-3582,4,-13,-8
16,14,186120,-2307,-15821,-3585,8,-19,-10
16,15,186125,-2289,-15836,-3574,9,-18,-11
16,16,186130,-2262,-15860,-3486,6,-14,-15
16,17,186135,-2236,-15845,-3341,5,-12,-13
16,18,186140,-2174,-15862,-3351,6,-17,-16
16,19,186145,-2208,-15883,-3340,6,-21,-17
16,20,186150,-2220,-15856,-3423,4,-23,-15
16,21,186155,-2242,-15868,-3537,3,-24,-13
16,22,186160,-2246,-15886,-3640,6,-24,-9
16,23,186165,-2263,-15908,-3628,5,-22,-9
16,24,186170,-2306,-15937,-3658,4,-24,-10
16,25,186175,-2319,-15908,-3698,8,-29,-5
16,26,186180,-2324,-15922,-3905,10,-35,1
16,27,186186,-2255,-15948,-4108,8,-35,3
16,28,186190,-2267,-15938,-3984,8,-26,-3
16,29,186195,-2437,-15901,-3787,9,-31,-10
16,30,186200,-2466,-15932,-3816,17,-44,-3
16,31,186205,-2492,-15939,-3937,23,-47,-2
16,32,186210,-2512,-15928,-4070,23,-37,-10
16,33,186215,-2452,-15912,-3990,23,-26,-13
16,34,186220,-2386,-15928,-3904,22,-28,-15
16,35,186225,-2336,-15863,-3854,29,-37,-17
16,36,186230,-2345,-15872,-3880,30,-45,-16
16,37,186235,-2333,-15892,-3876,29,-44,-17
16,38,186240,-2294,-15905,-3852,29,-41,-14
16,39,186245,-2205,-15877,-3816,32,-39,-12
16,40,186250,-2192,-15903,-3801,36,-37,-14
16,41,186255,-2213,-15876,-3764,37,-35,-14
16,42,186260,-2215,-15854,-3754,38,-35,-15
16,43,186265,-2268,-15853,-3742,37,-38,-17
16,44,186270,-2314,-15838,-3793,38,-41,-17
16,45,186275,-2329,-15850,-3774,37,-42,-20
16,46,186280,-2261,-15861,-3685,36,-37,-21
16,47,186285,-2270,-15859,-3710,38,-38,-20
16,48,186290,-2289,-15835,-3789,38,-37,-22
16,49,186295,-2410,-15826,-3704,39,-31,-27
16,50,186300,-2554,-15836,-3516,39,-29,-33
16,51,186305,-2643,-15863,-3285,38,-31,-35
16,52,186310,-2508,-15906,-3176,40,-35,-32
16,53,186315,-2281,-15925,-3159,41,-32,-29
16,54,186320,-2145,-15865,-2986,40,-20,-30
16,55,186325,-2206,-15899,-3017,39,-26,-26
16,56,186330,-2153,-15878,-3200,40,-29,-28
16,57,186335,-2101,-15857,-3180,38,-20,-28
16,58,186340,-2096,-15884,-3012,35,-4,-31
16,59,186345,-2237,-15865,-2961,36,-1,-33
16,60,186350,-2273,-15886,-3131,36,-14,-34
16,61,186355,-2277,-15869,-3022,30,-17,-31
16,62,186360,-2143,-15823,-2758,29,-25,-36
16,63,186365,-1996,-15874,-2650,29,-38,-33
16,64,186370,-2058,-15856,-2725,24,-46,-34
16,65,186375,-2008,-15871,-2777,21,-45,-32
16,66,186380,-1806,-15912,-2840,17,-44,-26
16,67,186385,-1600,-15869,-2773,15,-35,-23
16,68,186390,-1478,-15887,-2824,14,-29,-20
16,69,186395,-1588,-15911,-2897,9,-25,-16
16,70,186400,-1772,-15901,-2927,9,-21,-16
16,71,186405,-1868,-15913,-3001,3,-19,-12
16,72,186410,-1903,-15907,-3012,-3,-12,-8
16,73,186415,-2012,-15916,-2940,-4,-13,-5
16,74,186420,-2030,-15925,-2835,-7,-22,-6
16,75,186425,-1982,-15934,-2851,-7,-28,-2
16,76,186430,-2033,-15897,-3057,-7,-25,4
16,77,186435,-1996,-15941,-3233,-7,-17,5
16,78,186440,-1993,-15953,-3302,-11,-6,3
16,79,186445,-2124,-15945,-3115,-12,-3,1
16,80,186450,-2455,-15899,-2834,-14,-13,-4
16,81,186455,-2791,-15921,-2775,-15,-34,-5
16,82,186460,-2853,-15950,-3053,-12,-40,-5
16,83,186465,-2510,-15927,-3288,-19,-21,2
16,84,186470,-2216,-15881,-3211,-24,6,0
16,85,186475,-1950,-15853,-3059,-23,15,-7
16,86,186480,-1948,-15871,-3040,-23,-3,-11
16,87,186485,-2222,-15858,-3201,-25,-24,-6
16,88,186490,-2165,-15903,-3652,-26,-29,-2
16,89,186495,-2105,-15878,-3722,-30,-1,-7
16,90,186500,-2172,-15874,-3177,-32,32,-13
16,91,186505,-2147,-15850,-2814,-31,14,-13
16,92,186510,-2316,-15890,-2894,-23,-16,-10
16,93,186515,-2371,-15910,-3272,-19,-29,-8
16,94,186520,-2287,-15885,-3471,-24,-13,-8
16,95,186525,-2121,-15839,-3455,-29,10,-11
16,96,186530,-2034,-15862,-3388,-30,20,-14
16,97,186535,-2118,-15857,-3476,-26,7,-16
16,98,186540,-2129,-15827,-3689,-22,-14,-14
16,99,186545,-2172,-15815,-3630,-27,-21,-14
16,100,186550,-2210,-15830,-3521,-27,-13,-13
16,101,186555,-2228,-15869,-3506,-28,0,-13
16,102,186560,-2193,-15869,-3467,-28,20,-15
16,103,186565,-2109,-15818,-3419,-27,27,-16
16,104,186570,-2210,-15908,-3387,-23,20,-14
16,105,186575,-2348,-15966,-3397,-19,13,-14
16,106,186580,-2373,-15934,-3528,-20,7,-13
16,107,186585,-2268,-15950,-3633,-22,7,-11
16,108,186590,-2202,-15969,-3684,-20,9,-8
16,109,186595,-2226,-15956,-3704,-21,-3,-6
16,110,186600,-2227,-15983,-3941,-15,-20,-6
16,111,186605,-2355,-15991,-4135,-12,-28,-3
16,112,186610,-2273,-15988,-4317,-9,-26,2
16,113,186615,-2183,-15971,-4441,-9,-13,1
16,114,186620,-2270,-15937,-4389,-7,-4,-3
16,115,186625,-2427,-15928,-4295,0,-14,-3
16,116,186630,-2385,-15924,-4374,3,-35,-2
16,117,186635,-2330,-15941,-4447,6,-42,-4
16,118,186640,-2435,-15931,-4332,6,-34,-8
16,119,186645,-2497,-15930,-4194,9,-30,-9
16,120,186650,-2372,-15899,-4017,13,-39,-8
16,121,186655,-2093,-15874,-4012,15,-42,-6
16,122,186660,-2010,-15867,-4041,23,-28,-10
16,123,186665,-2205,-15882,-3941,26,-13,-17
16,124,186670,-2411,-15904,-3754,25,-17,-17
16,125,186675,-2235,-15850,-3688,28,-39,-12
16,126,186680,-2013,-15850,-3770,27,-36,-8
16,127,186685,-1986,-15924,-3423,28,-9,-15
16,128,186690,-2006,-15833,-3271,26,-18,-14
16,129,186695,-1970,-15850,-3333,25,-33,-12
16,130,186700,-1972,-15859,-3298,24,-24,-14
16,131,186705,-2115,-15836,-3130,23,-9,-18
16,132,186710,-2110,-15821,-2982,18,-7,-20
16,133,186715,-2087,-15774,-2962,18,-16,-16
16,134,186720,-2070,-15728,-2841,15,-19,-19
16,135,186725,-2059,-15778,-2726,15,-24,-24
16,136,186730,-2035,-15781,-2712,14,-32,-25
16,137,186735,-1947,-15734,-2632,10,-39,-25
16,138,186740,-1916,-15760,-2537,7,-44,-22
16,139,186745,-1942,-15839,-2562,5,-52,-18
16,140,186750,-2058,-15940,-2704,5,-65,-13
16,141,186755,-2154,-15907,-2978,-1,-73,-9
16,142,186760,-2056,-15869,-2840,-6,-68,-7
16,143,186765,-2145,-15877,-2548,-11,-68,-5
16,144,186770,-2246,-15966,-2672,-10,-81,-1
16,145,186775,-2314,-15989,-2849,-13,-86,2
16,146,186780,-2298,-15965,-2928,-16,-92,3
16,147,186785,-2528,-15960,-2686,-19,-101,3
16,148,186790,-2532,-15923,-2733,-21,-117,9
16,149,186795,-2414,-15974,-2896,-22,-119,16
16,150,186800,-2293,-15982,-3072,-21,-97,14
16,151,186805,-1964,-15963,-3074,-22,-83,13
16,152,186810,-1987,-16010,-2988,-27,-84,11
16,153,186815,-2195,-16025,-3177,-27,-86,9
16,154,186820,-2099,-16018,-3681,-24,-76,11
16,155,186825,-2139,-15930,-3727,-28,-13,4
16,156,186830,-2120,-15915,-3465,-33,35,-5
16,157,186835,-2131,-15907,-3312,-31,30,-2
16,158,186840,-2106,-15983,-3552,-25,-7,3
16,159,186845,-1982,-15917,-3819,-22,-23,7
16,160,186850,-1953,-15833,-3818,-24,3,-3
16,161,186855,-2147,-15823,-3643,-28,22,-8
16,162,186860,-2265,-15855,-3524,-29,12,-5
16,163,186865,-1921,-15856,-3686,-24,-23,3
16,164,186870,-1691,-15833,-3852,-24,-23,5
16,165,186875,-1781,-15783,-3780,-29,2,-3
16,166,186880,-2009,-15830,-3556,-28,4,-6
16,167,186885,-2021,-15870,-3442,-28,-18,-4
16,168,186890,-1963,-15881,-3514,-29,-35,-3
16,169,186895,-1928,-15931,-3617,-24,-22,2
16,170,186900,-2087,-15867,-3539,-26,4,-3
16,171,186905,-2174,-15851,-3583,-23,3,-3
16,172,186910,-2321,-15894,-3705,-24,-10,1
16,173,186915,-2504,-15934,-3523,-25,-17,-5
16,174,186920,-2484,-15948,-3432,-25,-20,-1
16,175,186925,-2309,-15906,-3282,-24,-4,2
16,176,186930,-2318,-15932,-3228,-23,12,-5
16,177,186935,-2534,-15922,-3386,-19,0,-5
16,178,186940,-2557,-15886,-3667,-15,-19,0
16,179,186945,-2169,-15832,-3902,-17,-20,3
16,180,186950,-1934,-15845,-3841,-18,14,3
16,181,186955,-1998,-15907,-3673,-19,35,-4
16,182,186960,-2316,-15887,-3501,-15,15,-1
16,183,186965,-2461,-15877,-3689,-12,-30,3
16,184,186970,-2359,-15913,-3994,-14,-49,5
16,185,186975,-2118,-15900,-3894,-19,-14,5
16,186,186980,-2066,-15884,-3414,-23,20,-1
16,187,186985,-2137,-15839,-3097,-20,8,-6
16,188,186990,-2248,-15848,-3290,-17,-32,1
16,189,186995,-2167,-15887,-3709,-15,-43,1
16,190,187000,-2168,-15922,-3815,-17,-12,-2
16,191,187005,-2247,-15879,-3476,-19,17,-7
16,192,187010,-2237,-15872,-3291,-18,5,-6
16,193,187015,-2248,-15889,-3428,-16,-12,-5
16,194,187020,-2341,-15858,-3599,-15,-15,-5
16,195,187025,-2280,-15860,-3538,-13,-5,-4
16,196,187030,-2120,-15888,-3473,-11,0,-3
16,197,187035,-2041,-15834,-3467,-14,-2,-2
16,198,187040,-1977,-15845,-3583,-11,-8,-1
16,199,187045,-1874,-15861,-3803,-13,-6,-1
16,200,187050,-2045,-15890,-3638,-19,4,0
16,201,187055,-2133,-15880,-3563,-18,-8,4
16,202,187060,-2078,-15860,-3744,-17,-15,4
16,203,187065,-2288,-15880,-3679,-18,-6,3
16,204,187070,-2505,-15871,-3481,-19,-6,-2
16,205,187075,-2570,-15861,-3526,-13,-28,4
16,206,187080,-2437,-15896,-3653,-12,-30,5
16,207,187085,-2272,-15892,-3672,-13,-13,0
16,208,187090,-2188,-15883,-3519,-11,-1,-2
16,209,187095,-2149,-15850,-3478,-11,-9,0
16,210,187100,-2231,-15873,-3429,-12,-19,2
16,211,187105,-2203,-15930,-3675,-10,-23,6
16,212,187110,-2246,-15960,-3719,-8,-7,7
16,213,187115,-2210,-15953,-3670,-9,10,10
16,214,187120,-2025,-15972,-3782,-7,18,10
16,215,187125,-1920,-15970,-3880,-7,31,11
16,216,187130,-2069,-15993,-3742,-10,42,8
16,217,187135,-2234,-15945,-3482,-11,39,9
16,218,187140,-2226,-15867,-3365,-11,36,12
16,219,187145,-2161,-15798,-3417,-13,47,10
16,220,187150,-2152,-15823,-3555,-11,59,7
16,221,187155,-2201,-15844,-3532,-13,58,3
16,222,187160,-2291,-15802,-3447,-14,28,2
16,223,187165,-2426,-15787,-3570,-11,-9,4
16,224,187170,-2496,-15750,-3948,-10,-17,8
16,225,187175,-2504,-15768,-4040,-7,4,4
16,226,187180,-2458,-15816,-3837,-9,23,0
16,227,187185,-2456,-15861,-3624,-10,30,0
16,228,187190,-2394,-15858,-3634,-7,24,3
16,229,187195,-2339,-15856,-3913,-3,29,7
16,230,187200,-2267,-15834,-4065,-3,50,5
16,231,187205,-2123,-15809,-3922,-11,61,4
16,232,187210,-1946,-15818,-3782,-13,59,5
16,233,187215,-1849,-15816,-3850,-8,64,7
16,234,187220,-1890,-15860,-4065,-7,98,6
16,235,187225,-2133,-15937,-4110,-9,146,0
16,236,187230,-2229,-15946,-3909,-17,192,1
16,237,187235,-2087,-15985,-3598,-22,223,2
16,238,187240,-1980,-15959,-3258,-20,258,1
16,239,187245,-1875,-15981,-2957,-18,292,-2
16,240,187250,-1857,-16031,-2744,-18,302,-6
16,241,187255,-1788,-16009,-2618,-21,271,-4
16,242,187260,-1725,-15874,-2514,-21,206,3
16,243,187265,-1687,-15780,-2442,-21,130,10
16,244,187270,-1772,-15832,-2622,-21,53,13
16,245,187275,-2031,-15937,-2824,-19,-8,12
16,246,187280,-2237,-15986,-3175,-16,-65,15
16,247,187285,-2130,-16011,-3329,-15,-107,14
16,248,187290,-2053,-15937,-3205,-15,-134,16
16,249,187295,-2016,-16006,-3529,-11,-172,24
16,250,187300,-2123,-16128,-4304,-4,-195,21
16,251,187305,-2319,-16159,-4767,-5,-177,14
16,252,187310,-2460,-15940,-4489,-12,-130,9
16,253,187315,-2531,-15855,-4218,-11,-84,2
16,254,187320,-2477,-15946,-4418,-4,-33,2
16,255,187325,-2417,-16055,-4556,-1,42,-2
16,256,187330,-2396,-15981,-4115,-1,109,-13
16,257,187335,-2255,-15797,-3605,4,117,-12
16,258,187340,-2177,-15737,-3364,6,83,-12
16,259,187345,-2114,-15769,-3263,10,41,-11
16,260,187350,-1978,-15868,-3330,12,-5,-6
16,261,187355,-1893,-15960,-3390,13,-45,-5
16,262,187360,-2102,-15978,-3476,17,-73,-8
16,263,187365,-2389,-15936,-3750,21,-88,-9
16,264,187370,-2422,-15844,-4029,20,-79,-7
16,265,187375,-2299,-15774,-3767,18,-51,-5
16,266,187380,-2220,-15809,-3408,19,-29,-12
16,267,187385,-2322,-15916,-3740,23,-29,-12
16,268,187390,-2297,-15898,-4177,22,-15,-12
16,269,187395,-2333,-15706,-3834,14,19,-21
16,270,187400,-2459,-15682,-3230,13,29,-18
16,271,187405,-2219,-15830,-3317,18,10,-10
16,272,187410,-1819,-15874,-3635,20,22,-10
16,273,187415,-1799,-15724,-3459,16,57,-18
16,274,187420,-2305,-15526,-3027,15,16,-13
16,275,187425,-2411,-15528,-3476,19,-19,-8
16,276,187430,-2534,-15540,-3834,14,-2,-10
16,277,187435,-2494,-15389,-3890,9,27,-11
16,278,187440,-2370,-15363,-3591,3,21,-12
16,279,187445,-2397,-15483,-3276,8,-24,-5
16,280,187450,-2241,-15453,-3369,16,-71,-1
16,281,187455,-2179,-15505,-3872,16,-71,1
16,282,187460,-2184,-15575,-4066,8,-28,-5
16,283,187465,-2299,-15681,-3699,2,-10,-4
16,284,187470,-2238,-15795,-3385,-4,-36,4
16,285,187475,-2344,-15797,-3502,-8,-52,6
16,286,187480,-2445,-15902,-3916,-8,-24,6
16,287,187485,-2403,-16014,-4041,-17,30,5
16,288,187490,-2355,-16045,-3800,-23,49,3
16,289,187495,-2351,-16074,-3690,-24,11,5
16,290,187500,-2374,-16078,-3759,-21,-20,7
16,291,187505,-2310,-16013,-3897,-19,-3,7
16,292,187510,-2266,-16093,-4189,-17,44,5
16,293,187515,-2271,-16051,-4136,-21,86,1
16,294,187520,-2184,-15865,-3835,-23,86,2
16,295,187525,-2080,-15711,-3688,-19,67,8
16,296,187530,-2069,-15752,-3664,-16,66,11
16,297,187535,-2141,-15779,-3724,-19,75,14
16,298,187540,-2223,-15789,-3576,-21,73,12
16,299,187545,-2351,-15770,-3482,-23,52,16
16,300,187550,-2335,-15731,-3334,-25,44,13
16,301,187555,-2368,-15638,-3094,-22,42,13
16,302,187560,-2417,-15733,-3000,-20,18,21
16,303,187565,-2272,-15812,-3138,-19,-25,27
16,304,187570,-2202,-15837,-3368,-18,-59,33
16,305,187575,-2240,-15880,-3292,-20,-59,31
16,306,187580,-2369,-15847,-3298,-22,-53,29
16,307,187585,-2526,-15817,-3656,-20,-53,33
16,308,187590,-2719,-15915,-3925,-20,-65,32
16,309,187595,-2800,-15969,-3882,-23,-84,34
16,310,187600,-2601,-16071,-3751,-23,-87,37
16,311,187605,-2353,-15982,-3535,-20,-68,36
16,312,187610,-2343,-15925,-3537,-16,-52,34
16,313,187615,-2427,-16004,-3660,-12,-57,35
16,314,187620,-2488,-16019,-3703,-7,-60,38
16,315,187625,-2457,-15956,-3568,-10,-53,37
16,316,187630,-2502,-15873,-3507,-6,-36,38
16,317,187635,-2730,-15962,-3709,1,-31,38
16,318,187640,-2653,-16086,-3909,2,-34,37
16,319,187645,-2607,-16018,-3769,5,-25,36
16,320,187650,-2825,-15762,-3370,8,-23,31
16,321,187655,-3061,-15582,-3360,14,-54,34
16,322,187660,-3079,-15596,-3860,23,-94,40
16,323,187665,-3101,-15802,-4127,25,-108,42
16,324,187670,-3090,-15903,-3897,30,-96,38
16,325,187675,-3025,-15826,-3707,36,-90,36
16,326,187680,-3136,-15727,-3759,40,-84,34
16,327,187685,-3398,-15653,-3757,43,-57,28
16,328,187690,-3468,-15655,-3535,50,-36,25
16,329,187695,-3149,-15702,-3209,55,-14,28
16,330,187700,-2696,-15741,-3193,54,-3,29
16,331,187705,-2530,-15827,-3324,57,1,27
16,332,187710,-2681,-15822,-3306,60,-13,23
16,333,187715,-3021,-15655,-3308,64,-44,28
16,334,187720,-3109,-15556,-3557,66,-58,33
16,335,187725,-3164,-15650,-3770,69,-30,34
16,336,187730,-3347,-15774,-3778,73,5,36
16,337,187735,-3387,-15823,-3445,74,2,37
16,338,187740,-3337,-15791,-3167,77,-54,38
16,339,187745,-3099,-15813,-3323,89,-121,48
16,340,187750,-3090,-15857,-3565,94,-144,51
16,341,187755,-3408,-15807,-3619,93,-138,49
16,342,187760,-3485,-15655,-3812,97,-144,57
16,343,187765,-3146,-15585,-3831,99,-146,64
16,344,187770,-3198,-15759,-3232,96,-136,64
16,345,187775,-3467,-16005,-2693,99,-137,67
16,346,187780,-3430,-16050,-2943,106,-141,77
16,347,187785,-3175,-16054,-3068,96,-35,81
16,348,187790,-3010,-16184,-2431,94,-12,85
16,349,187795,-2955,-16275,-2167,94,-31,91
16,350,187800,-3054,-16213,-2619,94,-39,96
16,351,187805,-3090,-16068,-3028,92,-16,103
16,352,187810,-3092,-15832,-3109,86,21,107
16,353,187815,-3298,-15763,-3342,86,29,114
16,354,187820,-3505,-15768,-3800,87,22,124
16,355,187825,-3691,-15722,-4036,88,37,129
16,356,187830,-3784,-15680,-4095,88,62,136
16,357,187835,-3842,-15659,-4123,89,81,141
16,358,187840,-3932,-15571,-4058,87,88,144
16,359,187845,-4004,-15526,-3811,90,87,146
16,360,187850,-4157,-15559,-3590,98,77,150
16,361,187855,-3951,-15544,-3476,102,70,160
16,362,187860,-3698,-15541,-3208,104,72,166
16,363,187865,-3649,-15529,-2704,103,62,168
16,364,187870,-3673,-15585,-2338,107,23,177
16,365,187875,-3659,-15608,-2425,105,-32,189
16,366,187880,-3652,-15630,-2602,106,-79,200
16,367,187885,-3625,-15813,-2455,98,-113,206
16,368,187890,-3561,-15910,-2247,95,-146,217
16,369,187895,-3514,-15879,-2551,97,-157,230
16,370,187900,-3767,-15853,-3116,100,-117,232
16,371,187905,-4092,-15748,-3315,95,-46,232
16,372,187910,-4265,-15629,-3102,86,5,237
16,373,187915,-4136,-15687,-3317,85,21,246
16,374,187920,-3747,-15857,-3770,86,32,258
16,375,187925,-3864,-15749,-3310,76,62,252
16,376,187930,-4304,-15566,-2522,73,36,251
16,377,187935,-4495,-15622,-2577,84,-44,268
16,378,187940,-4273,-15741,-3029,89,-81,280
16,379,187945,-4170,-15813,-2885,83,-52,280
16,380,187950,-4147,-15882,-2244,79,-34,283
16,381,187955,-4078,-15993,-2188,86,-66,294
16,382,187960,-3818,-16156,-2825,87,-103,304
16,383,187965,-3823,-16048,-2920,84,-82,305
16,384,187970,-4267,-15844,-2493,77,-58,301
16,385,187975,-4571,-15847,-2401,80,-79,312
16,386,187980,-4457,-15837,-2802,86,-95,321
16,387,187985,-4219,-15758,-3224,85,-60,324
16,388,187990,-4281,-15688,-3427,83,-9,320
16,389,187995,-4501,-15724,-3193,80,1,318
16,390,188000,-4576,-15773,-3107,84,-48,329
16,391,188005,-4440,-15737,-3402,85,-69,338
16,392,188010,-4433,-15659,-3681,88,-18,332
16,393,188015,-4532,-15584,-3455,89,60,326
16,394,188020,-4581,-15562,-2889,89,90,326
16,395,188025,-4561,-15619,-2596,97,62,330
16,396,188030,-4323,-15752,-2822,104,41,337
16,397,188035,-4126,-15836,-2725,101,66,331
16,398,188040,-4003,-15815,-2351,98,64,331
16,399,188045,-3955,-15828,-2274,108,10,338
16,400,188050,-4021,-15673,-2538,112,-52,339
16,401,188055,-4239,-15560,-2791,118,-80,345
16,402,188060,-4202,-15627,-2944,123,-81,353
16,403,188065,-4117,-15713,-2973,129,-81,355
16,404,188070,-4190,-15716,-3008,131,-100,352
16,405,188075,-4453,-15701,-3036,134,-128,355
16,406,188080,-4647,-15665,-2981,139,-152,363
16,407,188085,-4459,-15722,-3113,145,-154,370
16,408,188090,-4051,-15908,-3447,152,-137,370
16,409,188095,-4050,-16030,-3334,153,-97,362
16,410,188100,-4412,-15943,-2913,157,-86,359
16,411,188105,-4398,-15863,-3043,160,-100,369
16,412,188110,-4283,-15910,-3345,164,-55,367
16,413,188115,-4516,-16001,-3047,164,48,356
16,414,188120,-4628,-16024,-2536,162,116,354
16,415,188125,-4270,-16038,-2298,163,133,355
16,416,188130,-4041,-15987,-1905,164,134,351
16,417,188135,-4123,-15841,-1655,166,98,353
16,418,188140,-4149,-15824,-2045,174,24,367
16,419,188145,-4071,-15800,-2695,177,-25,377
16,420,188150,-4283,-15458,-2802,176,32,370
16,421,188155,-4230,-15390,-2866,179,68,378
16,422,188160,-4116,-15379,-3223,184,102,385
16,423,188165,-4013,-15373,-3129,185,148,384
16,424,188170,-4056,-15380,-2660,182,179,380
16,425,188175,-4140,-15482,-2457,185,166,386
16,426,188180,-4131,-15716,-2573,192,140,392
16,427,188185,-4105,-15751,-2426,194,131,386
16,428,188190,-4036,-15639,-2429,193,115,384
16,429,188195,-4102,-15513,-2482,195,86,390
16,430,188200,-4381,-15429,-2291,194,36,396
16,431,188205,-4498,-15575,-2286,197,-35,400
16,432,188210,-4537,-15988,-2473,203,-66,404
16,433,188215,-4413,-16176,-2483,206,-28,400
16,434,188220,-4327,-16140,-2337,200,26,399
16,435,188225,-4542,-16086,-2234,197,48,395
16,436,188230,-4501,-16115,-2375,199,34,399
16,437,188235,-4329,-16081,-2384,196,37,399
16,438,188240,-4443,-16033,-2078,195,70,394
16,439,188245,-4565,-15978,-2358,194,83,395
16,440,188250,-4395,-15980,-2975,196,88,399
16,441,188255,-4577,-15949,-2923,192,114,391
16,442,188260,-4891,-15887,-2418,189,134,386
16,443,188265,-4770,-15830,-2413,193,137,391
16,444,188270,-4423,-15743,-2628,190,153,391
16,445,188275,-4309,-15680,-2279,185,163,380
16,446,188280,-4394,-15555,-1635,184,114,375
16,447,188285,-4335,-15503,-1373,187,7,386
16,448,188290,-4249,-15679,-1602,190,-81,396
16,449,188295,-4139,-15909,-2097,189,-115,396
16,450,188300,-4235,-15973,-2472,187,-97,387
16,451,188305,-4410,-15803,-2438,179,-65,379
16,452,188310,-4639,-15681,-2189,171,-42,375
16,453,188315,-4688,-15611,-2366,175,-20,378
16,454,188320,-4606,-15617,-2878,176,40,378
16,455,188325,-4588,-15596,-2995,170,123,367
16,456,188330,-4655,-15532,-2646,161,175,361
16,457,188335,-4641,-15373,-2397,161,176,358
16,458,188340,-4647,-15322,-2543,162,168,359
16,459,188345,-4715,-15389,-2555,161,176,354
16,460,188350,-4724,-15434,-2328,155,177,352
16,461,188355,-4674,-15489,-1895,154,150,349
16,462,188360,-4455,-15566,-1692,156,93,349
16,463,188365,-4257,-15612,-1847,159,44,349
16,464,188370,-4114,-15663,-2096,158,14,349
16,465,188375,-4148,-15696,-2137,156,-5,348
16,466,188380,-4325,-15699,-2297,156,-27,343
16,467,188385,-4293,-15762,-2633,156,-29,345
16,468,188390,-4268,-15764,-2749,150,26,338
16,469,188395,-4329,-15702,-2524,145,90,328
16,470,188400,-4391,-15666,-2214,142,109,327
16,471,188405,-4380,-15675,-2269,143,76,327
16,472,188410,-4291,-15768,-2607,145,42,324
16,473,188415,-4293,-15715,-2581,137,41,318
16,474,188420,-4311,-15515,-2226,129,54,307
16,475,188425,-4230,-15435,-2186,131,32,306
16,476,188430,-4209,-15501,-2605,136,7,307
16,477,188435,-4139,-15554,-2938,131,14,302
16,478,188440,-4093,-15512,-2688,124,48,290
16,479,188445,-4191,-15473,-2298,121,68,282
16,480,188450,-4103,-15524,-2331,125,52,284
16,481,188455,-3973,-15639,-2489,125,29,283
16,482,188460,-3947,-15653,-2390,117,13,272
16,483,188465,-3886,-15696,-2302,112,-15,265
16,484,188470,-3868,-15647,-2405,117,-39,263
16,485,188475,-3922,-15600,-2694,117,-32,256
16,486,188480,-3997,-15447,-2894,112,-7,243
16,487,188485,-3970,-15442,-3033,106,17,234
16,488,188490,-3900,-15541,-3084,99,31,223
16,489,188495,-3844,-15532,-3012,95,39,214
16,490,188500,-3864,-15375,-2845,92,37,201
16,491,188505,-3909,-15318,-2664,84,33,194
16,492,188510,-3907,-15373,-2638,85,38,182
16,493,188515,-3488,-15307,-2639,79,92,163
16,494,188520,-3365,-15241,-2411,76,106,151
16,495,188525,-3458,-15234,-2314,76,69,142
16,496,188530,-3530,-15312,-2550,74,9,133
16,497,188535,-3544,-15352,-2753,66,-26,127
16,498,188540,-3577,-15296,-2862,59,-21,114
16,499,188545,-3598,-15318,-2978,54,3,97
16,500,188550,-3443,-15356,-3108,48,19,84
16,501,188555,-3294,-15352,-2993,47,29,74
16,502,188560,-3485,-15344,-2685,45,27,58
16,503,188565,-3361,-15227,-2959,44,11,54
16,504,188570,-3149,-15272,-3327,40,17,42
16,505,188575,-3256,-15390,-3173,29,38,17
16,506,188580,-3446,-15424,-2866,25,21,5
16,507,188585,-3225,-15315,-2930,24,-17,0
16,508,188590,-2999,-15343,-3204,26,-26,-8
16,509,188595,-2937,-15483,-3181,20,-3,-26
16,510,188600,-3024,-15636,-2883,12,10,-45
16,511,188605,-3051,-15726,-2945,8,-2,-57
16,512,188610,-3019,-15639,-3082,5,2,-68
16,513,188615,-3166,-15554,-2972,-5,40,-88
16,514,188620,-3222,-15490,-2683,-10,62,-103
16,515,188625,-3102,-15502,-2484,-15,53,-112
16,516,188630,-2922,-15508,-2500,-21,22,-123
16,517,188635,-2798,-15507,-2635,-23,1,-137
16,518,188640,-2850,-15449,-2747,-25,-7,-156
16,519,188645,-2979,-15307,-2829,-29,-30,-167
16,520,188650,-2955,-15310,-3043,-37,-55,-178
16,521,188655,-2972,-15384,-3173,-42,-53,-190
16,522,188660,-2877,-15368,-3439,-44,-25,-206
16,523,188665,-2720,-15270,-3596,-50,19,-223
16,524,188670,-2669,-15219,-3203,-60,41,-239
16,525,188675,-2695,-15392,-2943,-60,3,-250
16,526,188680,-2499,-15674,-2974,-55,-49,-258
16,527,188685,-2255,-15837,-3271,-62,-64,-270
16,528,188690,-2237,-15946,-3310,-68,-47,-290
16,529,188695,-2393,-15997,-2985,-74,-43,-311
16,530,188700,-2659,-15896,-2635,-80,-75,-326
16,531,188705,-2604,-15887,-2955,-80,-106,-332
16,532,188710,-2323,-15991,-3315,-84,-75,-338
16,533,188715,-2159,-16058,-3042,-92,-12,-361
16,534,188720,-2123,-16053,-2530,-97,-1,-381
16,535,188725,-2305,-15967,-2496,-95,-55,-389
16,536,188730,-2348,-15867,-3009,-98,-111,-397
16,537,188735,-2309,-15880,-3366,-105,-116,-411
16,538,188740,-2499,-15929,-3348,-112,-98,-431
16,539,188745,-2626,-15865,-3252,-116,-97,-448
16,540,188750,-2589,-15872,-3365,-119,-104,-463
16,541,188755,-2285,-15962,-3716,-120,-78,-473
16,542,188760,-2083,-16020,-3747,-122,-13,-491
16,543,188765,-2089,-16012,-3494,-129,43,-519
16,544,188770,-2101,-16067,-3317,-132,54,-534
16,545,188775,-2042,-16187,-3398,-135,53,-546
16,546,188780,-2044,-16218,-3451,-139,77,-566
16,547,188785,-2014,-16201,-3310,-146,108,-587
16,548,188790,-1974,-16119,-3017,-149,112,-603
16,549,188795,-1899,-16189,-2829,-149,64,-617
16,550,188800,-1693,-16277,-2912,-151,-14,-621
16,551,188805,-1457,-16372,-3036,-156,-67,-631
16,552,188810,-1353,-16462,-3017,-163,-93,-652
16,553,188815,-1443,-16452,-2984,-164,-121,-667
16,554,188820,-1609,-16440,-3026,-164,-143,-677
16,555,188825,-1547,-16485,-3468,-167,-150,-684
16,556,188830,-1349,-16620,-3852,-170,-99,-699
16,557,188835,-1182,-16725,-3901,-179,-20,-720
16,558,188840,-1087,-16740,-3597,-189,32,-739
16,559,188845,-1289,-16720,-3146,-192,47,-755
16,560,188850,-1429,-16766,-3189,-195,54,-771
16,561,188855,-1339,-16866,-3468,-197,94,-786
16,562,188860,-1309,-16951,-3353,-206,162,-807
16,563,188865,-1449,-17011,-2934,-211,198,-829
16,564,188870,-1367,-17040,-2722,-216,175,-838
16,565,188875,-1124,-17099,-2776,-220,134,-846
16,566,188880,-906,-17069,-2929,-229,48,-873
16,567,188885,-811,-17166,-2766,-239,-31,-886
16,568,188890,-929,-17321,-2796,-239,-122,-900
16,569,188895,-1215,-17473,-3406,-235,-183,-913
16,570,188900,-1406,-17521,-4075,-237,-171,-927
16,571,188905,-1505,-17432,-4208,-247,-108,-946
16,572,188910,-1582,-17447,-3982,-253,-56,-968
16,573,188915,-1488,-17581,-4026,-254,-45,-981
16,574,188920,-1351,-17696,-4079,-259,-25,-999
16,575,188925,-1182,-17651,-3912,-264,29,-1021
16,576,188930,-1147,-17708,-3684,-266,96,-1043
16,577,188935,-1132,-17946,-3482,-269,144,-1059
16,578,188940,-1062,-18160,-3287,-269,172,-1076
16,579,188945,-993,-18075,-3110,-278,205,-1092
16,580,188950,-1125,-17927,-3027,-282,234,-1106
16,581,188955,-1464,-18031,-2945,-282,247,-1127
16,582,188960,-1573,-18158,-2673,-289,227,-1138
16,583,188965,-1249,-18267,-2254,-302,181,-1146
16,584,188970,-915,-18217,-1909,-307,120,-1158
16,585,188975,-679,-18028,-1728,-308,27,-1171
16,586,188980,-967,-17975,-1578,-308,-113,-1184
16,587,188985,-1416,-18054,-2110,-307,-288,-1183
16,588,188990,-1361,-18007,-3231,-308,-406,-1185
16,589,188995,-1597,-17813,-3926,-322,-393,-1204
16,590,189000,-2259,-17828,-3839,-334,-348,-1224
16,591,189005,-2428,-17830,-3906,-335,-357,-1229
16,592,189010,-2529,-17806,-3499,-339,-345,-1245
16,593,189015,-3304,-11917,-4113,-339,-323,-1260
16,594,189020,-4415,-12429,-2761,-329,-212,-1209
16,595,189025,-6964,-8319,6963,-279,44,-1171
16,596,189030,7675,-13621,-13290,-168,-405,-235
16,597,189035,5606,-19979,-2091,-248,1298,-966
16,598,189040,-7250,-18535,10022,-342,1019,-1451
16,599,189045,-1064,-19449,-1927,-132,-1576,-659
16,600,189050,-1172,-15389,-8604,-181,-1563,-780
16,601,189055,-4722,-17649,-11037,-303,-570,-962
16,602,189060,-4164,-19538,-4333,-350,427,-978
16,603,189065,-2668,-16631,-365,-387,690,-1060
16,604,189070,-314,-16989,-2721,-274,281,-969
16,605,189075,-976,-18305,-3923,-253,243,-998
16,606,189080,-2513,-17566,-2537,-296,413,-1072
16,607,189085,-2108,-16828,-813,-316,396,-1049
16,608,189090,-1554,-16422,-696,-330,159,-1050
16,609,189095,-1164,-17237,-2808,-315,-182,-1016
16,610,189100,-1497,-17385,-4153,-316,-238,-1026
16,611,189105,-1859,-16880,-4009,-323,-58,-1055
16,612,189110,-1913,-16783,-3396,-312,86,-1058
16,613,189115,-2015,-16621,-2915,-319,98,-1066
16,614,189120,-1640,-16646,-2847,-325,3,-1049
16,615,189125,-1076,-16764,-2842,-332,-44,-1045
16,616,189130,-1057,-16695,-2070,-336,-24,-1051
16,617,189135,-1165,-16411,-1415,-333,-69,-1046
16,618,189140,-1194,-16291,-1752,-320,-204,-1030
16,619,189145,-1157,-16300,-2547,-309,-340,-1007
16,620,189150,-1210,-16284,-3124,-315,-394,-999
16,621,189155,-1212,-16297,-3354,-322,-383,-997
16,622,189160,-1225,-16349,-3556,-329,-361,-990
16,623,189165,-1072,-16188,-3609,-329,-347,-984
16,624,189170,-1046,-16205,-3719,-330,-330,-975
16,625,189175,-1064,-16263,-3702,-325,-281,-968
16,626,189180,-1167,-16383,-3713,-323,-228,-958
16,627,189185,-1093,-16254,-3777,-323,-200,-951
16,628,189190,-1031,-16279,-3603,-328,-192,-935
16,629,189195,-892,-16371,-3386,-329,-213,-922
16,630,189200,-773,-16377,-3011,-321,-212,-906
16,631,189205,-570,-16297,-2946,-317,-196,-894
16,632,189210,-453,-16282,-3211,-306,-169,-881
16,633,189215,-318,-16140,-3405,-300,-150,-861
16,634,189220,-152,-15930,-3428,-298,-147,-844
16,635,189225,-140,-15800,-3507,-296,-154,-823
16,636,189230,-88,-15783,-3860,-293,-154,-798
16,637,189235,44,-15798,-4178,-285,-124,-777
16,638,189240,67,-15827,-4191,-283,-93,-760
16,639,189245,77,-15782,-3673,-279,-74,-744
16,640,189250,45,-15967,-3823,-256,-80,-700
16,641,189255,75,-15959,-3778,-254,-47,-687
16,642,189260,335,-15775,-3564,-255,-33,-669
16,643,189265,363,-15673,-3161,-253,-57,-652
16,644,189270,246,-15714,-3212,-241,-120,-631
16,645,189275,82,-15730,-3478,-230,-168,-609
16,646,189280,1,-15628,-3816,-223,-162,-592
16,647,189285,-48,-15516,-4054,-215,-120,-577
16,648,189290,-45,-15595,-4076,-211,-72,-565
16,649,189295,-59,-15762,-3888,-208,-44,-552
16,650,189300,33,-15844,-3851,-203,-40,-533
16,651,189305,292,-15753,-3905,-197,-30,-516
16,652,189310,345,-15686,-3767,-193,5,-512
16,653,189315,21,-15714,-3753,-188,17,-504
16,654,189320,-16,-15630,-3929,-184,9,-489
16,655,189325,127,-15390,-3822,-181,17,-480
16,656,189330,354,-15449,-3510,-175,37,-470
16,657,189335,465,-15701,-3240,-167,50,-466
16,658,189340,475,-15653,-3230,-160,32,-454
16,659,189345,539,-15556,-3486,-158,-6,-442
16,660,189350,578,-15487,-3767,-156,-22,-434
16,661,189355,670,-15448,-3970,-153,-22,-424
16,662,189360,537,-15567,-3980,-150,-15,-421
16,663,189365,373,-15554,-4080,-147,-21,-413
16,664,189370,414,-15421,-4302,-140,-30,-402
16,665,189375,675,-15421,-4242,-132,-16,-398
16,666,189380,794,-15726,-3921,-125,-6,-398
16,667,189385,862,-16024,-3701,-117,-35,-391
16,668,189390,909,-15905,-3723,-115,-79,-384
16,669,189395,604,-15624,-4017,-110,-96,-381
16,670,189400,400,-15496,-4444,-106,-77,-365
16,671,189405,406,-15483,-4328,-105,-35,-355
16,672,189410,676,-15416,-3899,-107,-14,-348
16,673,189415,968,-15459,-3826,-102,-8,-337
16,674,189420,925,-15456,-4165,-94,6,-334
16,675,189425,946,-15247,-4389,-96,33,-332
16,676,189430,1070,-15080,-4252,-97,52,-325
16,677,189435,1091,-15130,-3861,-100,53,-318
16,678,189440,1163,-15170,-3719,-94,35,-307
16,679,189445,1365,-14982,-3684,-91,18,-295
16,680,189450,1536,-15029,-3640,-86,12,-284
16,681,189455,1666,-15265,-3499,-82,-13,-274
16,682,189460,1841,-15384,-3751,-76,-58,-260
16,683,189465,1819,-15283,-3969,-72,-82,-252
16,684,189470,1636,-15080,-4169,-75,-72,-243
16,685,189475,1613,-15041,-4326,-75,-43,-227
16,686,189480,1806,-15151,-4243,-74,-15,-216
16,687,189485,2067,-15224,-4091,-72,5,-208
16,688,189490,2153,-15279,-4250,-67,9,-196
16,689,189495,2128,-15246,-4444,-66,21,-181
16,690,189500,2030,-15178,-4545,-66,43,-168
16,691,189505,1933,-15148,-4366,-69,64,-160
16,692,189510,1820,-15145,-4136,-72,76,-150
16,693,189515,1845,-15197,-4205,-66,75,-137
16,694,189520,1956,-15053,-4271,-63,73,-126
16,695,189525,1957,-14918,-4207,-61,75,-124
16,696,189530,1933,-14959,-4148,-54,54,-109
16,697,189535,2098,-14946,-4280,-52,20,-95
16,698,189540,2370,-14957,-4368,-50,8,-83
16,699,189545,2445,-15034,-4443,-47,13,-76
16,700,189550,2439,-15106,-4479,-47,25,-75
16,701,189555,2330,-14961,-4529,-42,48,-69
16,702,189560,2171,-14788,-4587,-40,73,-62
16,703,189565,2051,-14573,-4201,-43,108,-61
16,704,189570,2121,-14553,-3752,-40,116,-53
16,705,189575,2303,-14739,-3773,-38,73,-41
16,706,189580,2368,-14951,-4031,-34,15,-29
16,707,189585,2253,-14899,-4200,-32,-43,-24
16,708,189590,2114,-14886,-4495,-28,-88,-14
16,709,189595,2218,-14972,-4885,-24,-99,-2
16,710,189600,2416,-15122,-4975,-23,-74,0
16,711,189605,2545,-15297,-4959,-20,-47,-1
16,712,189610,2637,-15341,-4869,-16,-20,4
16,713,189615,2693,-15299,-4425,-11,33,10
16,714,189620,2836,-15380,-4544,-8,40,19
16,715,189625,3004,-15497,-4534,-8,57,28
16,716,189630,3051,-15376,-4452,-5,65,33
16,717,189635,3100,-15349,-4709,-4,64,31
16,718,189640,3005,-15390,-4768,-10,87,26
16,719,189645,2804,-15303,-4537,-8,104,28
16,720,189650,2758,-15179,-4481,-4,92,38
16,721,189655,3008,-15181,-4757,0,66,52
16,722,189660,3167,-15084,-4893,3,74,53
16,723,189665,3029,-14991,-4876,8,87,51
16,724,189670,2773,-14940,-4864,12,73,55
16,725,189675,2635,-14893,-5045,18,41,59
16,726,189680,2740,-14891,-5010,20,26,64
16,727,189685,2886,-14855,-4950,23,20,67
16,728,189690,2957,-15035,-4837,24,12,69
16,729,189695,3014,-15206,-4762,23,0,70
16,730,189700,3208,-15314,-4715,24,0,71
16,731,189705,3233,-15390,-4556,26,11,69
16,732,189710,3279,-15431,-4661,29,26,69
16,733,189715,3216,-15487,-4591,29,60,71
16,734,189720,3207,-15474,-4623,26,79,71
16,735,189725,3317,-15480,-4655,27,94,77
16,736,189730,3560,-15617,-4668,26,116,81
16,737,189735,3561,-15650,-4444,24,132,77
16,738,189740,3528,-15667,-4452,24,116,76
16,739,189745,3584,-15494,-4617,23,91,76
16,740,189750,3508,-15432,-4829,22,77,78
16,741,189755,3459,-15326,-5063,26,85,76
16,742,189760,3418,-15301,-5230,30,93,77
16,743,189765,3346,-15226,-5108,30,88,77
16,744,189770,3290,-15185,-4925,30,55,75
16,745,189775,3291,-15193,-4964,36,13,76
16,746,189780,3298,-15183,-5344,41,-28,74
16,747,189785,3116,-14941,-5263,42,-31,70
16,748,189790,3238,-14750,-5021,38,-43,67
16,749,189795,3425,-14781,-4696,42,-63,66
16,750,189800,3518,-14987,-4593,49,-81,63
16,751,189805,3596,-15061,-4477,51,-82,65
16,752,189810,3865,-15035,-4683,52,-75,64
16,753,189815,3993,-15092,-4776,51,-53,57
16,754,189820,3756,-15208,-4489,45,-39,43
16,755,189825,3550,-15200,-4390,38,-59,43
16,756,189830,3664,-15245,-4827,41,-87,53
16,757,189835,3796,-15278,-5360,43,-73,50
16,758,189840,3669,-15350,-5433,39,-32,39
16,759,189845,3504,-15377,-5442,35,-3,35
16,760,189850,3625,-15401,-5486,40,11,37
16,761,189855,3707,-15464,-5542,39,34,37
16,762,189860,3734,-15506,-5452,35,78,27
16,763,189865,3653,-15486,-5116,34,117,20
16,764,189870,3540,-15412,-4803,33,130,12
16,765,189875,3613,-15306,-4850,33,124,14
16,766,189880,3636,-15381,-4689,32,136,10
16,767,189885,3645,-15340,-4415,33,128,3
16,768,189890,3731,-15380,-4237,34,87,6
16,769,189895,3853,-15337,-4493,29,32,5
16,770,189900,3871,-15310,-4797,28,11,1
16,771,189905,3812,-15292,-4987,27,12,-4
16,772,189910,3630,-15250,-4886,24,29,-7
16,773,189915,3599,-15175,-4875,18,34,-4
16,774,189920,3747,-15252,-5091,17,38,-5
16,775,189925,3946,-15334,-5274,19,54,-13
16,776,189930,3969,-15459,-5141,17,66,-11
16,777,189935,3950,-15408,-4885,17,56,-20
16,778,189940,3880,-15354,-4918,17,28,-21
16,779,189945,3913,-15392,-5048,17,7,-20
16,780,189950,3896,-15577,-5095,14,7,-21
16,781,189955,3898,-15587,-4905,11,10,-22
16,782,189960,3970,-15418,-4912,16,15,-21
16,783,189965,3880,-15475,-5061,19,24,-20
16,784,189970,3894,-15486,-5266,14,36,-17
16,785,189975,3956,-15480,-4949,12,41,-19
16,786,189980,3930,-15496,-4650,11,-4,-15
16,787,189985,3706,-15472,-4875,13,-42,-13
16,788,189990,3639,-15386,-5391,18,-83,-17
16,789,189995,3526,-15302,-5859,19,-83,-24
16,790,190000,3158,-15239,-5821,18,-53,-31
16,791,190005,3004,-15194,-5900,20,-30,-27
16,792,190010,3175,-15114,-5786,17,20,-28
16,793,190015,3417,-15187,-5323,16,80,-36
16,794,190020,3511,-15327,-4716,15,118,-42
16,795,190025,3605,-15322,-4730,15,112,-42
16,796,190030,3623,-15296,-4460,13,120,-46
16,797,190035,3715,-15335,-4430,10,115,-51
16,798,190040,3731,-15442,-4395,11,117,-49
16,799,190045,3712,-15445,-4390,7,107,-50
16,800,190050,3703,-15326,-4546,3,80,-48
16,801,190055,3681,-15278,-4857,5,52,-42
16,802,190060,3665,-15251,-5032,8,50,-41
16,803,190065,3618,-15222,-5026,7,68,-38
16,804,190070,3740,-15295,-4845,6,78,-37
16,805,190075,3858,-15364,-4575,4,71,-38
16,806,190080,3916,-15354,-4363,6,38,-32
16,807,190085,3903,-15339,-4612,9,-24,-25
16,808,190090,3744,-15314,-4766,10,-58,-21
16,809,190095,3849,-15285,-4842,7,-88,-18
16,810,190100,3801,-15184,-4979,9,-108,-14
16,811,190105,3668,-15304,-5098,12,-110,-17
16,812,190110,3554,-15372,-4931,6,-95,-16
16,813,190115,3513,-15245,-4693,5,-90,-15
16,814,190120,3476,-15248,-4759,7,-106,-15
16,815,190125,3442,-15272,-5033,8,-117,-13
16,816,190130,3316,-15235,-5241,2,-102,-17
16,817,190135,3193,-15131,-5241,-2,-63,-25
16,818,190140,3296,-15195,-5038,-1,-22,-18
16,819,190145,3459,-15286,-4954,-2,-6,-11
16,820,190150,3559,-15397,-4783,0,-8,-11
16,821,190155,3540,-15432,-4851,1,-10,-13
16,822,190160,3494,-15367,-4753,-1,6,-15
16,823,190165,3492,-15357,-4734,0,12,-13
16,824,190170,3543,-15386,-4745,-3,12,-12
16,825,190175,3630,-15434,-4932,-6,2,-8
16,826,190180,3735,-15339,-4965,-6,1,-5
16,827,190185,3762,-15312,-4852,-12,4,-2
16,828,190190,3776,-15295,-4869,-14,5,-3
16,829,190195,3779,-15255,-4718,-13,10,-3
16,830,190200,3865,-15226,-4496,-16,5,1
16,831,190205,3887,-15362,-4391,-17,-13,5
16,832,190210,3871,-15396,-4412,-17,-38,8
16,833,190215,3761,-15293,-4684,-19,-64,9
16,834,190220,3399,-15253,-4911,-22,-66,8
16,835,190225,3199,-15164,-4958,-26,-59,6
16,836,190230,3322,-15118,-5033,-29,-55,10
16,837,190235,3496,-15290,-5198,-25,-46,13
16,838,190240,3519,-15360,-5015,-27,-34,5
16,839,190245,3481,-15146,-4897,-30,-33,0
16,840,190250,3401,-15029,-5119,-25,-33,2
16,841,190255,3322,-14978,-5233,-24,-18,3
16,842,190260,3497,-15006,-5079,-24,-6,6
16,843,190265,3653,-15171,-4993,-25,-14,8
16,844,190270,3702,-15341,-4987,-29,-31,3
16,845,190275,3626,-15313,-4889,-29,-43,-2
16,846,190280,3488,-15321,-4926,-27,-47,-1
16,847,190285,3421,-15303,-5175,-30,-26,2
16,848,190290,3667,-15273,-5215,-30,12,0
16,849,190295,3750,-15225,-5024,-31,57,-9
16,850,190300,3594,-15284,-4702,-29,77,-11
16,851,190305,3590,-15256,-4650,-30,58,-8
16,852,190310,3700,-15209,-4570,-31,33,-4
16,853,190315,3713,-15239,-4519,-31,6,-4
16,854,190320,3736,-15236,-4462,-32,-25,-6
16,855,190325,3751,-15135,-4730,-29,-55,-3
16,856,190330,3652,-15154,-4633,-28,-61,-2
16,857,190335,3662,-15309,-4491,-29,-74,-1
16,858,190340,3846,-15443,-4469,-28,-100,9
16,859,190345,3743,-15576,-4606,-30,-138,9
16,860,190350,3547,-15475,-4869,-30,-159,12
16,861,190355,3410,-15540,-4977,-32,-157,13
16,862,190360,3553,-15580,-5088,-33,-138,12
16,863,190365,3560,-15564,-5075,-34,-99,10
16,864,190370,3341,-15610,-5038,-36,-59,5
16,865,190375,3113,-15452,-4737,-38,-25,1
16,866,190380,3210,-15368,-4678,-36,-16,0
16,867,190385,3394,-15340,-4613,-38,0,-7
16,868,190390,3533,-15385,-4360,-37,0,-8
16,869,190395,3568,-15341,-4420,-39,-35,-8
16,870,190400,3477,-15292,-4628,-37,-64,-8
16,871,190405,3269,-15291,-4815,-30,-67,-9
16,872,190410,3269,-15154,-4890,-34,-40,-6
16,873,190415,3415,-15081,-4942,-37,6,-5
16,874,190420,3479,-15144,-4801,-36,42,-8
16,875,190425,3622,-15197,-4619,-35,38,-3
16,876,190430,3769,-15216,-4477,-34,15,-1
16,877,190435,3833,-15302,-4588,-33,-33,1
16,878,190440,3818,-15392,-4977,-31,-73,2
16,879,190445,3661,-15340,-4739,-36,-65,-3
16,880,190450,3519,-15290,-4683,-36,-65,2
16,881,190455,3559,-15294,-4806,-29,-54,7
16,882,190460,3701,-15343,-4809,-31,-19,4
16,883,190465,3721,-15435,-4700,-32,26,3
16,884,190470,3705,-15400,-4463,-32,61,-3
16,885,190475,3711,-15464,-4606,-31,55,0
16,886,190480,3688,-15438,-4517,-30,42,3
16,887,190485,3571,-15311,-4482,-31,21,1
16,888,190490,3394,-15181,-4600,-27,0,0
16,889,190495,3308,-15121,-4675,-26,-13,2
16,890,190500,3315,-14998,-4520,-24,-12,1
16,891,190505,3408,-14947,-4542,-20,-25,1
16,892,190510,3434,-15056,-4710,-14,-51,4
16,893,190515,3567,-15104,-4883,-13,-80,4
16,894,190520,3627,-15147,-4982,-13,-104,8
16,895,190525,3633,-15221,-5026,-10,-113,4
16,896,190530,3590,-15246,-5072,-7,-102,-2
16,897,190535,3561,-15310,-5177,-5,-91,-1
16,898,190540,3645,-15175,-5092,-8,-72,-13
16,899,190545,3694,-15139,-4898,-8,-53,-15
16,900,190550,3683,-15274,-4930,1,-58,-8
16,901,190555,3788,-15308,-4987,4,-61,-13
16,902,190560,3836,-15359,-4932,3,-63,-11
16,903,190565,3798,-15474,-4990,4,-64,-10
16,904,190570,3690,-15359,-5049,4,-51,-16
16,905,190575,3565,-15267,-5174,5,-20,-19
16,906,190580,3534,-15158,-5152,7,21,-16
16,907,190585,3445,-15016,-4916,6,56,-17
16,908,190590,3540,-15175,-5026,12,61,-16
16,909,190595,3717,-15322,-5015,12,73,-17
16,910,190600,3834,-15326,-4912,14,84,-19
16,911,190605,3880,-15173,-4804,14,79,-21
16,912,190610,3771,-15070,-4777,15,52,-20
16,913,190615,3775,-15061,-4904,18,14,-15
16,914,190620,3922,-15101,-4958,17,-12,-16
16,915,190625,4007,-15157,-5109,20,-23,-15
16,916,190630,4014,-15218,-5271,26,-19,-15
16,917,190635,3988,-15169,-5296,25,-3,-19
16,918,190640,3829,-15251,-5091,21,14,-24
16,919,190645,3808,-15354,-4760,19,20,-20
16,920,190650,3960,-15318,-4547,20,18,-17
16,921,190655,4010,-15314,-4524,24,4,-19
16,922,190660,3902,-15346,-4720,23,-20,-21
16,923,190665,3824,-15321,-5032,23,-43,-20
16,924,190670,3750,-15378,-5130,23,-42,-21
16,925,190675,3721,-15321,-5098,20,-22,-25
16,926,190680,3689,-15214,-5120,20,12,-29
16,927,190685,3618,-15247,-5331,26,46,-27
16,928,190690,3637,-15248,-5407,22,79,-31
16,929,190695,3620,-15231,-5241,18,89,-38
16,930,190700,3665,-15170,-4985,16,83,-38
16,931,190705,3687,-15110,-4871,13,70,-37
16,932,190710,3752,-15081,-4915,16,69,-36
16,933,190715,3686,-15125,-4714,14,67,-38
16,934,190720,3680,-15166,-4537,12,42,-40
16,935,190725,3747,-15146,-4516,13,10,-40
16,936,190730,3634,-15272,-4584,14,-11,-40
16,937,190735,3623,-15427,-4696,14,-23,-43
16,938,190740,3655,-15431,-4722,12,-24,-43
16,939,190745,3743,-15441,-4859,8,-30,-43
16,940,190750,3779,-15460,-5040,5,-17,-40
16,941,190755,3744,-15435,-5050,-1,14,-43
16,942,190760,3607,-15296,-4810,-3,38,-49
16,943,190765,3514,-15294,-4730,-5,26,-48
16,944,190770,3527,-15375,-4860,-4,-2,-42
16,945,190775,3598,-15326,-4991,-8,-23,-40
16,946,190780,3446,-15216,-4940,-7,-26,-45
16,947,190785,3231,-15220,-4905,-1,-31,-45
16,948,190790,3326,-15129,-5019,-2,-28,-43
16,949,190795,3440,-15132,-5064,-3,-15,-40
16,950,190800,3705,-15241,-4935,-3,-3,-40
16,951,190805,3744,-15265,-4814,-4,-11,-44
16,952,190810,3656,-15303,-4787,-4,-34,-46
16,953,190815,3519,-15225,-5062,-5,-50,-44
16,954,190820,3453,-15168,-5308,-2,-34,-38
16,955,190825,3500,-15177,-5286,-2,12,-40
16,956,190830,3582,-15223,-4923,-9,59,-42
16,957,190835,3558,-15285,-4647,-10,75,-39
16,958,190840,3641,-15260,-4607,-11,68,-36
16,959,190845,3885,-15166,-4610,-12,53,-33
16,960,190850,3900,-15142,-4455,-11,37,-36
16,961,190855,3798,-15207,-4425,-10,4,-29
16,962,190860,3771,-15240,-4529,-8,-36,-23
16,963,190865,3709,-15231,-4901,-6,-56,-22
16,964,190870,3584,-15237,-5178,-3,-41,-17
16,965,190875,3523,-15148,-5095,-6,-12,-14
16,966,190880,3528,-15159,-4913,-4,-5,-10
16,967,190885,3515,-15207,-4935,-2,-18,-4
16,968,190890,3448,-15224,-5079,0,-39,-3
16,969,190895,3510,-15249,-5046,1,-64,0
16,970,190900,3488,-15293,-4938,4,-89,3
16,971,190905,3622,-15325,-5229,9,-107,9
16,972,190910,3645,-15313,-5426,11,-95,7
16,973,190915,3522,-15246,-5404,9,-57,3
16,974,190920,3409,-15247,-5272,11,-14,2
16,975,190925,3428,-15127,-5155,8,22,1
16,976,190930,3502,-15038,-4995,7,51,2
16,977,190935,3499,-15120,-4728,4,63,1
16,978,190940,3516,-15184,-4474,2,51,5
16,979,190945,3665,-15164,-4432,4,17,10
16,980,190950,3873,-15115,-4624,8,-13,12
16,981,190955,3794,-15119,-4526,9,-21,7
16,982,190960,3737,-15120,-4632,10,-33,10
16,983,190965,3660,-15092,-4729,11,-39,13
16,984,190970,3604,-15045,-4760,8,-33,12
16,985,190975,3598,-15110,-4826,8,-28,18
16,986,190980,3750,-15235,-4778,3,-25,19
16,987,190985,3831,-15257,-4591,1,-28,18
16,988,190990,3566,-15252,-4565,1,-54,22
16,989,190995,3618,-15305,-4916,3,-86,23
16,990,191000,3608,-15408,-5191,1,-93,25
16,991,191005,3499,-15382,-5134,-3,-79,15
16,992,191010,3345,-15349,-5013,-2,-61,12
16,993,191015,3329,-15435,-5345,0,-42,16
16,994,191020,3281,-15475,-5524,3,-3,15
16,995,191025,3464,-15527,-5285,-4,30,7
16,996,191030,3624,-15536,-4997,-6,33,8
16,997,191035,3531,-15559,-4894,-4,14,2
16,998,191040,3384,-15500,-5010,0,-11,1
16,999,191045,3464,-15465,-5064,0,-15,5
