event_id,seq,ts_ms,ax,ay,az,gx,gy,gz
2,0,29896,-1128,-15947,-3720,0,3,7
2,1,29901,-1152,-15960,-3691,2,-1,7
2,2,29906,-1140,-15957,-3659,4,-7,7
2,3,29911,-1176,-15934,-3752,3,-10,6
2,4,29916,-1160,-15926,-3736,2,-11,4
2,5,29921,-1162,-15899,-3725,2,-16,4
2,6,29926,-1161,-15913,-3767,2,-21,9
2,7,29931,-1136,-15921,-3777,2,-18,9
2,8,29936,-1146,-15904,-3759,4,-16,9
2,9,29941,-1178,-15930,-3776,4,-14,8
2,10,29946,-1219,-15917,-3767,4,-15,6
2,11,29951,-1236,-15930,-3730,6,-16,8
2,12,29956,-1268,-15894,-3756,8,-16,10
2,13,29961,-1216,-15918,-3744,5,-10,7
2,14,29966,-1259,-15974,-3756,4,-8,10
2,15,29971,-1245,-15971,-3776,3,-12,7
2,16,29976,-1246,-15964,-3767,5,-15,6
2,17,29981,-1210,-15877,-3729,4,-16,6
2,18,29986,-1207,-15839,-3769,5,-13,4
2,19,29991,-1219,-15835,-3764,5,-8,4
2,20,29996,-1223,-15895,-3789,5,3,4
2,21,30001,-1298,-15902,-3769,6,4,0
2,22,30006,-1312,-15915,-3787,9,-3,0
2,23,30011,-1308,-15926,-3753,7,-2,2
2,24,30016,-1264,-15913,-3702,4,6,0
2,25,30021,-1248,-15942,-3627,6,6,-2
2,26,30026,-1245,-15979,-3635,7,-2,0
2,27,30031,-1234,-15953,-3708,5,-12,0
2,28,30036,-1182,-15979,-3755,4,-15,-1
2,29,30041,-1165,-15955,-3724,4,-15,2
2,30,30046,-1110,-15921,-3668,7,-20,-1
2,31,30051,-1163,-15950,-3756,8,-20,-3
2,32,30056,-1151,-15890,-3838,9,-12,-3
2,33,30061,-1134,-15887,-3788,9,-6,-3
2,34,30066,-1146,-15941,-3731,8,-2,-1
2,35,30071,-1163,-15927,-3730,10,-4,-4
2,36,30076,-1186,-15967,-3759,7,-4,-3
2,37,30081,-1192,-15976,-3720,6,-1,-3
2,38,30086,-1178,-15978,-3682,8,-4,-5
2,39,30091,-1133,-15987,-3626,8,-10,-1
2,40,30096,-1107,-15941,-3609,4,-14,-1
2,41,30101,-1174,-15940,-3648,5,-19,-4
2,42,30106,-1199,-15925,-3739,9,-25,-4
2,43,30111,-1180,-15924,-3764,6,-26,-3
2,44,30116,-1174,-15912,-3724,7,-20,-5
2,45,30121,-1216,-15892,-3689,6,-20,-5
2,46,30126,-1198,-15906,-3764,6,-22,-7
2,47,30131,-1159,-15909,-3777,6,-15,-6
2,48,30136,-1228,-15941,-3705,5,-12,-5
2,49,30141,-1238,-15960,-3715,7,-8,-4
2,50,30146,-1243,-15970,-3733,7,-11,-4
2,51,30151,-1186,-15994,-3670,3,-13,-5
2,52,30156,-1178,-15974,-3641,5,-13,-5
2,53,30161,-1196,-15990,-3693,7,-18,-4
2,54,30166,-1208,-15966,-3746,6,-22,-6
2,55,30171,-1132,-15941,-3793,6,-20,-6
2,56,30176,-1171,-15945,-3793,5,-13,-8
2,57,30181,-1232,-15947,-3772,3,-7,-6
2,58,30186,-1208,-15907,-3775,3,-9,-6
2,59,30191,-1204,-15906,-3738,1,-3,-8
2,60,30196,-1212,-15971,-3696,5,1,-7
2,61,30201,-1241,-15996,-3690,7,-2,-10
2,62,30206,-1255,-15982,-3702,4,-10,-9
2,63,30211,-1265,-15976,-3691,4,-13,-6
2,64,30216,-1234,-16024,-3698,5,-12,-9
2,65,30221,-1187,-15999,-3748,2,-13,-9
2,66,30226,-1212,-15974,-3749,5,-14,-10
2,67,30231,-1176,-16024,-3744,6,-10,-10
2,68,30236,-1160,-16002,-3758,4,-6,-10
2,69,30241,-1200,-15941,-3781,2,-3,-10
2,70,30246,-1159,-15897,-3718,5,-2,-9
2,71,30251,-1161,-15865,-3702,5,-3,-12
2,72,30256,-1251,-15817,-3749,5,-3,-14
2,73,30261,-1218,-15847,-3760,5,-2,-11
2,74,30266,-1193,-15876,-3774,5,0,-10
2,75,30271,-1192,-15892,-3771,5,-3,-10
2,76,30276,-1161,-15908,-3751,5,-9,-10
2,77,30281,-1159,-15935,-3786,3,-8,-11
2,78,30286,-1123,-15902,-3798,4,-1,-12
2,79,30291,-1171,-15939,-3777,5,1,-9
2,80,30296,-1183,-15978,-3782,3,1,-8
2,81,30301,-1158,-15990,-3744,3,-2,-9
2,82,30306,-1123,-16000,-3706,4,1,-10
2,83,30311,-1092,-16004,-3730,5,1,-11
2,84,30316,-1160,-15991,-3670,3,0,-9
2,85,30321,-1153,-15998,-3661,3,-6,-10
2,86,30326,-1114,-16014,-3725,3,-8,-9
2,87,30331,-1126,-16044,-3674,4,-7,-10
2,88,30336,-1141,-16029,-3663,5,-9,-7
2,89,30341,-1115,-16063,-3684,4,-13,-10
2,90,30346,-1153,-16053,-3715,5,-20,-8
2,91,30351,-1229,-16010,-3722,3,-18,-9
2,92,30356,-1165,-15999,-3760,2,-18,-4
2,93,30361,-1199,-15958,-3696,2,-19,-2
2,94,30366,-1193,-15944,-3713,1,-18,-3
2,95,30371,-1181,-15909,-3735,3,-14,-7
2,96,30376,-1187,-15923,-3749,1,-9,-8
2,97,30381,-1188,-15918,-3810,-1,-5,-9
2,98,30386,-1181,-15916,-3806,-2,-2,-10
2,99,30391,-1185,-15920,-3730,-3,-1,-7
2,100,30396,-1226,-15916,-3738,0,-4,-9
2,101,30401,-1187,-15885,-3799,-3,-2,-8
2,102,30406,-1179,-15893,-3794,-1,-2,-7
2,103,30411,-1150,-15922,-3776,0,-4,-7
2,104,30416,-1090,-15902,-3736,1,-11,-4
2,110,30446,-1161,-15939,-3738,-2,-17,-5
2,111,30451,-1140,-15897,-3748,-3,-18,-4
2,112,30456,-1139,-15901,-3758,-3,-16,-4
2,113,30461,-1206,-15960,-3669,-2,-17,-5
2,114,30466,-1189,-15938,-3672,-2,-21,-3
2,115,30471,-1150,-15967,-3781,-3,-23,-5
2,116,30476,-1175,-15944,-3758,-3,-22,-6
2,117,30481,-1209,-15976,-3724,-2,-24,-5
2,118,30486,-1233,-15997,-3799,-2,-22,-3
2,119,30491,-1182,-15966,-3838,-4,-14,-3
2,120,30496,-1170,-15975,-3748,-3,-5,-5
2,121,30501,-1192,-15963,-3686,-3,-2,-6
2,122,30506,-1160,-15965,-3696,-2,-2,-5
2,123,30511,-1189,-15974,-3658,-6,2,-4
2,124,30516,-1208,-15996,-3651,-4,-4,-7
2,125,30521,-1201,-15997,-3665,-3,-13,-3
2,126,30526,-1187,-15961,-3761,-4,-18,-6
2,127,30531,-1165,-15954,-3714,-6,-16,-4
2,128,30536,-1173,-15965,-3698,-2,-13,-5
2,129,30541,-1128,-15931,-3731,-4,-12,-5
2,130,30546,-1162,-15856,-3789,-7,-11,-2
2,131,30551,-1194,-15870,-3741,-6,-5,-6
2,132,30556,-1217,-15869,-3727,-3,-6,-5
2,133,30561,-1194,-15847,-3712,-2,-7,-4
2,134,30566,-1183,-15839,-3664,-6,-5,-5
2,135,30571,-1208,-15840,-3670,-7,-7,-5
2,136,30576,-1164,-15870,-3689,-3,-10,-4
2,137,30581,-1136,-15872,-3737,-5,-8,-8
2,138,30586,-1113,-15896,-3726,-6,-6,-7
2,139,30591,-1129,-15966,-3758,-3,-6,-5
2,140,30596,-1123,-15976,-3803,-7,-4,-3
2,141,30601,-1125,-15998,-3787,-8,-1,-3
2,142,30606,-1076,-15992,-3672,-4,-3,-3
2,143,30611,-1084,-15975,-3691,-3,-4,-5
2,144,30616,-1120,-15984,-3775,-2,-6,-5
2,145,30621,-1120,-15951,-3765,-4,-7,-4
2,146,30626,-1165,-15948,-3720,-2,-6,-3
2,147,30631,-1176,-15903,-3733,-3,-7,-4
2,148,30636,-1169,-15932,-3790,-1,-8,-5
2,149,30641,-1209,-15904,-3754,-1,-5,-6
2,150,30646,-1226,-15872,-3729,-4,-4,-8
2,151,30651,-1197,-15850,-3767,-2,-6,-6
2,152,30656,-1154,-15879,-3765,-2,-9,-5
2,153,30661,-1139,-15876,-3761,-1,-6,-6
2,154,30666,-1118,-15871,-3786,1,-5,-8
2,155,30671,-1148,-15897,-3759,2,-6,-4
2,156,30676,-1158,-15952,-3804,0,-10,-7
2,157,30681,-1155,-15960,-3804,0,-9,-5
2,158,30686,-1174,-15992,-3792,2,-11,-5
2,159,30691,-1155,-15993,-3815,6,-8,-6
2,160,30696,-1090,-16004,-3847,5,-6,-6
2,161,30701,-1091,-16000,-3805,4,-2,-5
2,162,30706,-1089,-15981,-3783,6,5,-8
2,163,30711,-1157,-15976,-3760,4,6,-8
2,164,30716,-1099,-15995,-3825,5,2,-5
2,165,30721,-1064,-15948,-3787,6,5,-5
2,166,30726,-1100,-15935,-3754,9,9,-6
2,167,30731,-1147,-15911,-3697,8,4,-4
2,168,30736,-1137,-15836,-3741,6,-4,-3
2,169,30741,-1092,-15862,-3812,7,-4,-6
2,170,30746,-1208,-15867,-3707,8,1,-5
2,171,30751,-1210,-15889,-3713,9,-4,-6
2,172,30756,-1141,-15957,-3757,8,-7,-4
2,173,30761,-1138,-15945,-3781,9,0,-6
2,174,30766,-1158,-15978,-3748,11,2,-7
2,175,30771,-1118,-15974,-3739,8,3,-7
2,176,30776,-1088,-15978,-3765,5,5,-7
2,177,30781,-1075,-15946,-3760,8,7,-5
2,178,30786,-1125,-15975,-3690,11,8,-6
2,179,30791,-1088,-15992,-3728,9,8,-7
2,180,30796,-1132,-16008,-3785,9,10,-5
2,181,30801,-1156,-15983,-3726,10,10,-5
2,182,30806,-1172,-15983,-3677,10,6,-6
2,183,30811,-1142,-15939,-3663,10,2,-8
2,184,30816,-1189,-15895,-3685,8,3,-6
2,370,31746,-1141,-16006,-3721,9,-13,-15
2,371,31751,-1049,-16031,-3771,9,-11,-14
2,372,31756,-1100,-15983,-3762,10,-10,-14
2,373,31761,-1124,-15930,-3736,10,-13,-13
2,374,31766,-1111,-15917,-3735,12,-17,-9
2,375,31771,-1111,-15931,-3773,11,-16,-10
2,376,31776,-1070,-15919,-3787,11,-12,-11
2,377,31781,-1041,-15910,-3789,13,-13,-10
2,378,31786,-1054,-15943,-3762,14,-16,-7
2,379,31791,-1049,-15902,-3793,14,-17,-9
2,380,31796,-1095,-15882,-3783,12,-10,-8
2,381,31801,-1066,-15904,-3759,14,-4,-8
2,382,31806,-1128,-15966,-3721,14,-1,-7
2,383,31811,-1129,-15997,-3747,12,-2,-7
2,384,31816,-1128,-16043,-3735,12,-3,-4
2,385,31821,-1060,-16015,-3761,12,-4,-2
2,386,31826,-1038,-15957,-3716,10,-3,-2
2,387,31831,-1065,-15955,-3727,12,-4,-3
2,388,31836,-1025,-15937,-3713,12,-4,-1
2,389,31841,-1096,-15973,-3704,14,-4,-2
2,390,31846,-1125,-15965,-3721,12,-6,-2
2,391,31851,-1113,-15894,-3783,10,-7,-1
2,392,31856,-1119,-15872,-3749,12,-5,-1
2,393,31861,-1122,-15820,-3686,15,-6,1
2,394,31866,-1082,-15826,-3715,14,-8,1
2,395,31871,-1132,-15857,-3734,14,-9,5
2,396,31876,-1153,-15868,-3675,15,-10,3
2,397,31881,-1140,-15853,-3727,16,-15,2
2,398,31886,-1179,-15898,-3772,14,-17,4
2,399,31891,-1143,-15944,-3757,14,-21,2
2,400,31896,-1159,-15935,-3717,15,-20,0
2,401,31901,-1120,-15994,-3736,13,-18,2
2,402,31906,-1089,-15993,-3709,11,-15,3
2,403,31911,-1141,-15996,-3734,11,-10,3
2,404,31916,-1178,-16016,-3775,11,-1,1
2,405,31921,-1195,-15968,-3824,9,3,1
2,406,31926,-1138,-15963,-3771,9,8,3
2,407,31931,-1139,-15967,-3687,7,13,1
2,408,31936,-1152,-15944,-3678,6,9,1
2,409,31941,-1140,-15911,-3699,8,6,1
2,515,32471,-995,-15894,-3758,-2,-4,-12
2,516,32476,-1029,-15919,-3707,-2,-1,-11
2,517,32481,-1033,-15948,-3667,0,-7,-11
2,518,32486,-1047,-15964,-3681,1,-11,-12
2,519,32491,-1046,-15972,-3674,2,-13,-11
2,520,32496,-988,-15971,-3699,-2,-11,-10
2,521,32501,-997,-15993,-3678,-2,-10,-11
2,522,32506,-1041,-15996,-3689,0,-16,-10
2,523,32511,-996,-15987,-3667,1,-25,-11
2,524,32516,-1079,-15975,-3749,-1,-29,-10
2,525,32521,-1101,-15977,-3770,0,-25,-11
2,526,32526,-1089,-15988,-3750,0,-25,-13
2,527,32531,-1141,-15917,-3807,0,-29,-10
2,528,32536,-1189,-15927,-3824,3,-27,-12
2,529,32541,-1145,-15934,-3833,1,-20,-12
2,530,32546,-1179,-15940,-3773,2,-11,-11
2,531,32551,-1177,-15923,-3728,3,-11,-13
2,532,32556,-1147,-15919,-3762,2,-12,-13
2,533,32561,-1105,-15931,-3721,4,-10,-12
2,534,32566,-1088,-15947,-3683,3,-8,-12
2,535,32571,-1065,-15957,-3726,1,-11,-15
2,536,32576,-1075,-15914,-3751,4,-15,-14
2,537,32581,-1088,-15914,-3821,4,-16,-12
2,538,32586,-1142,-15946,-3782,3,-15,-16
2,539,32591,-1143,-15944,-3761,3,-14,-15
2,540,32596,-1136,-15932,-3839,5,-12,-14
2,541,32601,-1133,-15940,-3810,4,-8,-16
2,542,32606,-1162,-15941,-3778,4,-9,-14
2,543,32611,-1161,-15949,-3745,6,-6,-14
2,544,32616,-1201,-15882,-3741,6,-9,-14
2,545,32621,-1149,-15869,-3708,7,-13,-13
2,546,32626,-1168,-15895,-3711,2,-19,-11
2,547,32631,-1147,-15828,-3711,3,-20,-10
2,548,32636,-1169,-15834,-3756,5,-15,-12
2,549,32641,-1260,-15825,-3726,6,-17,-12
2,550,32646,-1310,-15815,-3732,4,-19,-9
2,551,32651,-1263,-15868,-3744,3,-16,-8
2,552,32656,-1239,-15900,-3695,4,-11,-8
2,553,32661,-1238,-15963,-3639,4,-10,-9
2,554,32666,-1277,-15937,-3599,4,-20,-10
2,660,33196,-1952,-15929,-3520,27,296,193
2,661,33201,-1940,-15920,-3665,27,302,197
2,662,33206,-1867,-16004,-3587,22,316,199
2,663,33211,-1728,-16011,-3540,17,327,200
2,664,33216,-1682,-16033,-3673,19,326,206
2,665,33221,-1656,-16030,-3726,15,327,209
2,666,33226,-1695,-16025,-3746,13,338,212
2,667,33231,-1670,-15967,-3659,12,344,217
2,668,33236,-1730,-15956,-3604,13,346,221
2,669,33241,-1880,-15915,-3701,13,349,224
2,670,33246,-1963,-15902,-3716,14,358,229
2,671,33251,-1953,-15881,-3667,11,365,237
2,672,33256,-1911,-15867,-3545,7,369,237
2,673,33261,-1934,-15890,-3566,8,364,239
2,674,33266,-1966,-15875,-3575,6,359,244
2,675,33271,-1970,-15860,-3636,5,357,251
2,676,33276,-2040,-15949,-3555,4,357,254
2,677,33281,-2063,-15987,-3554,7,344,256
2,678,33286,-2029,-15953,-3666,7,328,264
2,679,33291,-2011,-15970,-3750,3,322,263
2,680,33296,-2017,-15988,-3715,6,321,266
2,681,33301,-2048,-16011,-3782,5,324,271
2,682,33306,-2073,-16008,-3937,4,331,271
2,683,33311,-2169,-16021,-3937,5,346,274
2,684,33316,-2198,-16028,-3887,4,358,275
2,685,33321,-2152,-16053,-3783,5,366,277
2,686,33326,-2101,-16023,-3780,3,375,278
2,687,33331,-2119,-16007,-3838,3,381,281
2,688,33336,-2144,-16024,-3878,4,382,284
2,689,33341,-2068,-15967,-3864,6,382,287
2,690,33346,-2104,-15937,-3866,9,390,287
2,691,33351,-2195,-15967,-3878,9,399,287
2,692,33356,-2305,-15957,-3880,7,406,289
2,693,33361,-2319,-15867,-3835,9,406,291
2,694,33366,-2288,-15842,-3799,12,409,291
2,695,33371,-2336,-15851,-3799,10,414,289
2,696,33376,-2365,-15872,-3792,12,413,291
2,697,33381,-2380,-15896,-3830,16,409,294
2,698,33386,-2333,-15854,-3895,14,413,295
2,699,33391,-2267,-15863,-3893,12,420,298
2,700,33396,-2227,-15904,-3879,12,427,295
2,701,33401,-2276,-15904,-3918,13,429,292
2,702,33406,-2348,-15858,-3900,17,432,294
2,703,33411,-2347,-15843,-3865,18,436,294
2,704,33416,-2332,-15811,-3845,18,441,292
2,705,33421,-2385,-15795,-3904,19,444,294
2,706,33426,-2360,-15822,-3858,17,443,292
2,707,33431,-2275,-15771,-3823,18,452,289
2,708,33436,-2302,-15773,-3926,19,466,287
2,709,33441,-2415,-15785,-3832,20,473,283
2,710,33446,-2521,-15790,-3778,20,466,282
2,711,33451,-2624,-15752,-3767,20,460,285
2,712,33456,-2634,-15767,-3797,18,459,287
2,713,33461,-2540,-15792,-3610,17,466,283
2,714,33466,-2579,-15793,-3515,19,457,280
2,715,33471,-2611,-15825,-3753,21,447,276
2,716,33476,-2567,-15857,-3908,19,457,275
2,717,33481,-2497,-15918,-3782,17,475,272
2,718,33486,-2424,-15921,-3676,17,479,273
2,719,33491,-2344,-15907,-3797,16,477,269
2,720,33496,-2374,-15849,-3820,15,486,268
2,721,33501,-2425,-15757,-3708,15,494,267
2,722,33506,-2455,-15794,-3665,15,496,263
2,723,33511,-2512,-15831,-3723,15,489,261
2,724,33516,-2442,-15836,-3660,14,484,260
2,725,33521,-2439,-15847,-3604,11,478,259
2,726,33526,-2428,-15836,-3643,16,464,260
2,727,33531,-2383,-15764,-3641,15,455,258
2,728,33536,-2354,-15767,-3681,12,453,253
2,729,33541,-2350,-15775,-3786,12,457,252
2,730,33546,-2302,-15785,-3861,11,466,251
2,731,33551,-2273,-15766,-3811,10,476,249
2,732,33556,-2284,-15764,-3795,8,478,249
2,733,33561,-2255,-15701,-3702,14,476,244
2,734,33566,-2260,-15641,-3640,12,477,243
2,735,33571,-2281,-15645,-3652,11,473,240
2,736,33576,-2286,-15646,-3707,12,460,242
2,737,33581,-2294,-15669,-3766,11,449,242
2,738,33586,-2293,-15714,-3706,11,438,242
2,739,33591,-2228,-15775,-3808,12,428,239
2,740,33596,-2161,-15856,-3761,10,429,237
2,741,33601,-2134,-15782,-3715,10,422,234
2,742,33606,-2157,-15746,-3787,11,417,233
2,743,33611,-2184,-15832,-3843,11,417,231
2,744,33616,-2163,-15906,-3806,10,417,232
2,745,33621,-2124,-15905,-3744,9,416,231
2,746,33626,-2119,-15939,-3756,13,404,228
2,747,33631,-2145,-15943,-3829,13,393,225
2,748,33636,-2162,-15888,-3975,12,395,223
2,749,33641,-2181,-15866,-3920,13,397,223
2,750,33646,-2176,-15834,-3924,15,395,221
2,751,33651,-2171,-15795,-3987,14,396,218
2,752,33656,-2185,-15791,-4023,13,397,216
2,753,33661,-2137,-15731,-3987,16,394,213
2,754,33666,-2128,-15692,-3958,18,391,212
2,755,33671,-2127,-15632,-4071,17,385,210
2,756,33676,-2162,-15602,-4121,17,377,211
2,757,33681,-2126,-15564,-4074,21,374,207
2,758,33686,-2074,-15502,-4025,22,374,205
2,759,33691,-2135,-15422,-4074,23,370,201
2,760,33696,-2205,-15424,-4073,23,368,200
2,761,33701,-2152,-15428,-4148,22,361,200
2,762,33706,-2110,-15458,-4014,24,358,194
2,763,33711,-2108,-15441,-3926,25,348,192
2,764,33716,-2105,-15428,-3989,28,329,194
2,765,33721,-2100,-15476,-4078,28,308,193
2,766,33726,-2110,-15495,-4052,29,297,190
2,767,33731,-2137,-15539,-4082,31,289,186
2,768,33736,-2182,-15521,-4082,30,282,185
2,769,33741,-2240,-15519,-4087,32,276,185
2,770,33746,-2279,-15577,-4185,33,278,182
2,771,33751,-2308,-15650,-4120,35,278,178
2,772,33756,-2326,-15658,-4047,37,273,175
2,773,33761,-2323,-15711,-4028,33,267,174
2,774,33766,-2315,-15680,-4096,33,261,170
2,775,33771,-2349,-15663,-4064,39,256,167
2,776,33776,-2406,-15686,-4071,36,248,163
2,777,33781,-2438,-15723,-4127,34,234,158
2,778,33786,-2486,-15754,-4115,39,228,157
2,779,33791,-2564,-15784,-4007,37,217,147
2,780,33796,-2554,-15749,-3990,37,210,144
2,781,33801,-2579,-15751,-4069,37,204,139
2,782,33806,-2541,-15727,-3988,38,205,137
2,783,33811,-2468,-15695,-3881,37,206,132
2,784,33816,-2533,-15663,-3922,38,202,126
2,785,33821,-2662,-15687,-4027,39,194,124
2,786,33826,-2711,-15680,-4030,38,188,121
2,787,33831,-2666,-15630,-3959,37,183,119
2,788,33836,-2610,-15637,-3896,35,178,116
2,789,33841,-2581,-15619,-3790,31,168,113
2,790,33846,-2609,-15562,-3898,32,162,108
2,791,33851,-2641,-15480,-4014,32,154,104
2,792,33856,-2696,-15490,-4013,33,154,99
2,793,33861,-2719,-15433,-4074,32,154,94
2,794,33866,-2637,-15355,-4125,29,155,88
2,795,33871,-2662,-15288,-4093,28,160,86
2,796,33876,-2700,-15275,-4071,28,163,84
2,797,33881,-2539,-15250,-4058,25,159,81
2,798,33886,-2516,-15299,-3992,25,158,75
2,799,33891,-2531,-15350,-3929,26,153,70
2,800,33896,-2575,-15368,-3961,26,137,68
2,801,33901,-2523,-15375,-4005,24,123,70
2,802,33906,-2415,-15392,-3907,24,114,68
2,803,33911,-2404,-15424,-3841,24,102,64
2,804,33916,-2387,-15439,-3913,25,85,62
2,805,33921,-2323,-15491,-4055,27,76,60
2,806,33926,-2349,-15555,-4086,21,70,58
2,807,33931,-2334,-15564,-4081,23,65,57
2,808,33936,-2278,-15655,-3982,25,55,57
2,809,33941,-2343,-15687,-4025,21,44,55
2,810,33946,-2393,-15670,-4060,20,34,54
2,811,33951,-2346,-15638,-4054,21,27,54
2,812,33956,-2363,-15674,-4024,19,21,51
2,813,33961,-2497,-15704,-4086,19,15,50
2,814,33966,-2540,-15708,-4129,21,11,47
2,815,33971,-2537,-15746,-4108,20,12,48
2,816,33976,-2531,-15754,-4109,20,9,46
2,817,33981,-2536,-15734,-4118,21,6,44
2,818,33986,-2545,-15702,-4135,20,2,41
2,819,33991,-2567,-15703,-4115,21,1,38
2,820,33996,-2554,-15712,-4090,22,3,34
2,821,34001,-2592,-15724,-4109,21,3,30
2,822,34006,-2647,-15683,-4134,21,0,28
2,823,34011,-2707,-15694,-4124,21,-3,27
2,824,34016,-2775,-15721,-4060,23,-8,25
2,825,34021,-2813,-15691,-4031,22,-13,22
2,826,34026,-2818,-15597,-4123,23,-14,19
2,827,34031,-2924,-15563,-4091,20,-16,17
2,828,34036,-2962,-15541,-4036,19,-21,11
2,829,34041,-2934,-15556,-4073,24,-28,9
2,830,34046,-2931,-15556,-4119,23,-30,6
2,831,34051,-2918,-15582,-4071,22,-30,4
2,832,34056,-2843,-15568,-4145,20,-34,2
2,833,34061,-2766,-15589,-4199,20,-38,-4
2,834,34066,-2783,-15596,-4208,24,-32,-4
2,835,34071,-2850,-15631,-4227,24,-32,-10
2,836,34076,-2831,-15639,-4259,25,-32,-14
2,837,34081,-2806,-15676,-4295,25,-30,-14
2,838,34086,-2776,-15692,-4275,23,-27,-17
2,839,34091,-2757,-15643,-4298,26,-24,-24
2,840,34096,-2828,-15631,-4273,27,-25,-25
2,841,34101,-2825,-15646,-4332,28,-26,-28
2,842,34106,-2772,-15572,-4266,27,-20,-30
2,843,34111,-2741,-15569,-4256,28,-11,-34
2,844,34116,-2761,-15597,-4215,31,-11,-38
2,845,34121,-2813,-15543,-4192,27,-18,-40
2,846,34126,-2770,-15572,-4240,30,-23,-42
2,847,34131,-2791,-15585,-4202,33,-20,-44
2,848,34136,-2805,-15638,-4141,32,-24,-46
2,849,34141,-2735,-15671,-4115,34,-37,-45
2,850,34146,-2739,-15706,-4202,33,-46,-52
2,851,34151,-2782,-15714,-4175,34,-48,-51
2,852,34156,-2864,-15743,-4213,34,-56,-53
2,853,34161,-2853,-15716,-4254,34,-64,-56
2,854,34166,-2845,-15658,-4229,31,-59,-61
2,855,34171,-2805,-15644,-4223,32,-58,-65
2,856,34176,-2852,-15617,-4216,33,-50,-69
2,857,34181,-2810,-15599,-4240,33,-45,-70
2,858,34186,-2768,-15562,-4182,32,-42,-71
2,859,34191,-2759,-15505,-4095,30,-35,-76
2,860,34196,-2792,-15455,-3966,31,-39,-76
2,861,34201,-2797,-15462,-4018,29,-51,-75
2,862,34206,-2707,-15473,-4076,32,-60,-77
2,863,34211,-2640,-15481,-3998,30,-62,-81
2,864,34216,-2707,-15482,-3988,27,-70,-82
2,865,34221,-2698,-15479,-4023,26,-83,-84
2,866,34226,-2675,-15509,-4031,24,-89,-84
2,867,34231,-2668,-15496,-3989,22,-89,-84
2,868,34236,-2594,-15473,-3978,20,-85,-86
2,869,34241,-2590,-15487,-3959,20,-87,-85
2,870,34246,-2647,-15547,-4014,19,-90,-90
2,871,34251,-2719,-15520,-4026,17,-94,-93
2,872,34256,-2691,-15577,-4021,15,-98,-94
2,873,34261,-2552,-15616,-3990,13,-101,-91
2,874,34266,-2479,-15618,-3936,14,-108,-89
2,875,34271,-2523,-15603,-3931,11,-112,-93
2,876,34276,-2569,-15638,-4023,11,-113,-95
2,877,34281,-2609,-15655,-4041,10,-115,-96
2,878,34286,-2669,-15660,-3925,9,-113,-95
2,879,34291,-2704,-15695,-3802,9,-120,-94
2,880,34296,-2710,-15761,-3753,8,-139,-97
2,881,34301,-2707,-15788,-3791,6,-155,-101
2,882,34306,-2697,-15799,-3781,2,-163,-101
2,883,34311,-2656,-15830,-3756,4,-179,-100
2,884,34316,-2636,-15940,-3856,6,-193,-101
2,885,34321,-2639,-16001,-3990,5,-200,-104
2,886,34326,-2711,-16020,-3950,4,-197,-106
2,887,34331,-2674,-15990,-3890,1,-191,-108
2,888,34336,-2603,-15959,-3900,1,-185,-110
2,889,34341,-2600,-15895,-3872,3,-181,-112
2,890,34346,-2571,-15865,-3808,1,-178,-114
2,891,34351,-2549,-15816,-3812,2,-175,-118
2,892,34356,-2482,-15727,-3891,3,-181,-116
2,893,34361,-2412,-15595,-3883,1,-193,-119
2,894,34366,-2492,-15495,-3849,2,-204,-122
2,895,34371,-2504,-15356,-3942,1,-217,-121
2,896,34376,-2441,-15248,-4088,5,-221,-122
2,897,34381,-2368,-15151,-4018,6,-216,-124
2,898,34386,-2293,-15086,-3996,7,-222,-127
2,899,34391,-2276,-15052,-4020,9,-235,-129
2,900,34396,-2250,-14954,-4088,9,-243,-130
2,901,34401,-2160,-14941,-4005,10,-248,-134
2,902,34406,-2042,-14934,-3975,13,-259,-132
2,903,34411,-2000,-14920,-3908,13,-271,-134
2,904,34416,-2103,-14954,-3960,17,-286,-135
2,905,34421,-2121,-15004,-4031,18,-302,-135
2,906,34426,-2016,-15007,-4030,19,-306,-136
2,907,34431,-1822,-15042,-3977,19,-300,-140
2,908,34436,-1653,-15119,-3830,22,-297,-141
2,909,34441,-1565,-15223,-3741,23,-298,-143
2,910,34446,-1490,-15311,-3718,22,-308,-142
2,911,34451,-1550,-15357,-3693,25,-319,-140
2,912,34456,-1558,-15436,-3620,25,-337,-139
2,913,34461,-1497,-15531,-3487,24,-364,-138
2,914,34466,-1343,-15594,-3441,24,-390,-139
2,915,34471,-1269,-15665,-3422,26,-416,-137
2,916,34476,-1192,-15723,-3417,26,-441,-135
2,917,34481,-1240,-15807,-3498,25,-464,-136
2,918,34486,-1275,-15820,-3627,26,-484,-139
2,919,34491,-1441,-15835,-3505,27,-488,-140
2,920,34496,-1510,-15954,-3539,29,-495,-140
2,921,34501,-1487,-16087,-3563,27,-494,-138
2,922,34506,-1499,-16208,-3442,25,-495,-143
2,923,34511,-1531,-16289,-3250,24,-504,-148
2,924,34516,-1533,-16446,-3279,25,-523,-151
2,925,34521,-1489,-16600,-3366,24,-539,-153
2,926,34526,-1532,-16714,-3319,19,-579,-161
2,927,34531,-1604,-16730,-3500,17,-594,-166
2,928,34536,-1571,-16744,-3587,15,-597,-171
2,929,34541,-1483,-16662,-3486,13,-581,-175
2,930,34546,-1455,-16646,-3476,12,-564,-179
2,931,34551,-1509,-16564,-3444,12,-561,-188
2,932,34556,-1565,-16514,-3389,9,-563,-197
2,933,34561,-1618,-16551,-3336,9,-573,-201
2,934,34566,-1780,-16576,-3331,10,-580,-209
2,935,34571,-1729,-16538,-3453,7,-596,-216
2,936,34576,-1761,-16550,-3422,2,-614,-223
2,937,34581,-1893,-16518,-3403,-1,-632,-232
2,938,34586,-1955,-16467,-3558,-3,-648,-242
2,939,34591,-1962,-16404,-3687,-4,-644,-251
2,940,34596,-1986,-16419,-3765,-5,-630,-262
2,941,34601,-1920,-16398,-3771,-8,-620,-275
2,942,34606,-1814,-16297,-3719,-11,-618,-292
2,943,34611,-1805,-16203,-3715,-13,-613,-297
2,944,34616,-1804,-16134,-3678,-15,-610,-308
2,945,34621,-1792,-16096,-3633,-17,-611,-321
2,946,34626,-1697,-16051,-3632,-20,-623,-328
2,947,34631,-1752,-16003,-3564,-25,-640,-339
2,948,34636,-1757,-16014,-3451,-27,-658,-351
2,949,34641,-1722,-16012,-3523,-26,-683,-360
2,950,34646,-1707,-16045,-3584,-27,-698,-370
2,951,34651,-1747,-16204,-3678,-34,-705,-383
2,952,34656,-1774,-16289,-3626,-39,-716,-391
2,953,34661,-1814,-16302,-3721,-42,-721,-402
2,954,34666,-1827,-16281,-3805,-45,-710,-414
2,955,34671,-1804,-16304,-3662,-52,-687,-425
2,956,34676,-1741,-16339,-3600,-55,-669,-441
2,957,34681,-1723,-16326,-3614,-59,-658,-456
2,958,34686,-1774,-16342,-3671,-63,-647,-468
2,959,34691,-1904,-16314,-3620,-70,-635,-478
2,960,34696,-1939,-16345,-3557,-73,-628,-487
2,961,34701,-1896,-16382,-3533,-75,-622,-500
2,962,34706,-1880,-16363,-3362,-82,-618,-515
2,963,34711,-1921,-16337,-3273,-88,-623,-527
2,964,34716,-1973,-16401,-3394,-92,-631,-536
2,965,34721,-1969,-16488,-3406,-94,-636,-547
2,966,34726,-1862,-16480,-3272,-98,-638,-559
2,967,34731,-1794,-16472,-3244,-104,-655,-569
2,968,34736,-1741,-16513,-3369,-108,-681,-581
2,969,34741,-1743,-16543,-3433,-114,-691,-589
2,970,34746,-1783,-16550,-3473,-118,-697,-595
2,971,34751,-1709,-16554,-3511,-119,-695,-607
2,972,34756,-1740,-16547,-3595,-127,-679,-620
2,973,34761,-1824,-16537,-3707,-130,-649,-632
2,974,34766,-1839,-16556,-3640,-134,-620,-644
2,975,34771,-1776,-16530,-3591,-138,-604,-653
2,976,34776,-1791,-16610,-3481,-141,-595,-664
2,977,34781,-1835,-16757,-3601,-142,-596,-673
2,978,34786,-1811,-16799,-3645,-146,-592,-681
2,979,34791,-1763,-16751,-3670,-154,-589,-690
2,980,34796,-1829,-16734,-3552,-156,-579,-700
2,981,34801,-1876,-16749,-3611,-158,-571,-710
2,982,34806,-1750,-16701,-3879,-158,-553,-716
2,983,34811,-1667,-16671,-3938,-162,-521,-725
2,984,34816,-1606,-16624,-3832,-168,-501,-737
2,985,34821,-1527,-16500,-3812,-170,-502,-745
2,986,34826,-1394,-16405,-3927,-176,-503,-749
2,987,34831,-1196,-16275,-3860,-181,-490,-756
2,988,34836,-1143,-16123,-3778,-182,-474,-763
2,989,34841,-1161,-16046,-3802,-181,-476,-768
2,990,34846,-1312,-16020,-3768,-185,-478,-774
2,991,34851,-1429,-15956,-3626,-186,-477,-775
2,992,34856,-1472,-15859,-3486,-189,-476,-772
2,993,34861,-1553,-15839,-3299,-194,-491,-776
2,994,34866,-1472,-15794,-3178,-201,-521,-780
2,995,34871,-1457,-15682,-3128,-203,-547,-784
2,996,34876,-1494,-15638,-3262,-208,-565,-788
2,997,34881,-1478,-15636,-3374,-213,-565,-786
2,998,34886,-1402,-15689,-3337,-219,-562,-787
2,999,34891,10068,-6244,-5102,-249,-616,-745
2,1000,34896,-13464,757,17259,-236,-254,-1144
2,1001,34901,8065,-17795,-20179,-23,-2225,-20
2,1002,34906,10260,-18304,-21356,-168,-1219,19
2,1003,34911,-1509,-12914,13116,-333,1970,-1218
2,1004,34916,-14189,-13547,13951,-221,-443,-868
2,1005,34921,-2070,-14643,-19262,-99,-2730,-174
2,1006,34926,4586,-19828,-14145,-225,-421,-425
2,1007,34931,-2207,-15865,4395,-270,709,-702
2,1008,34936,-600,-16511,7344,-214,-17,-694
2,1009,34941,-2554,-14978,-5875,-196,-1530,-530
2,1010,34946,-329,-16689,-10292,-226,-1307,-498
2,1011,34951,-1672,-17901,-2963,-257,-275,-568
2,1012,34956,-2406,-15253,567,-223,-220,-585
2,1013,34961,426,-16575,-3251,-221,-767,-526
2,1014,34966,-1271,-16311,-4975,-240,-1017,-540
2,1015,34971,-1014,-16924,-5350,-246,-745,-556
2,1016,34976,-2129,-16249,-3090,-243,-381,-554
2,1017,34981,-986,-15741,-3111,-236,-456,-531
2,1018,34986,16,-16616,-3591,-242,-667,-511
2,1019,34991,-731,-16241,-4268,-242,-740,-527
2,1020,34996,-885,-16188,-4480,-239,-596,-523
2,1021,35001,-1210,-15855,-3622,-238,-474,-509
2,1022,35006,-372,-15949,-3751,-233,-541,-489
2,1023,35011,-269,-16082,-3948,-234,-618,-483
2,1024,35016,-600,-15892,-4564,-228,-616,-487
2,1025,35021,-692,-15950,-4556,-224,-526,-473
2,1026,35026,-564,-15795,-4192,-221,-483,-459
2,1027,35031,-274,-15867,-4181,-217,-511,-448
2,1028,35036,-558,-15866,-4236,-214,-533,-444
2,1029,35041,-726,-15708,-4436,-209,-509,-434
2,1030,35046,-663,-15662,-4377,-201,-452,-425
2,1031,35051,-431,-15720,-4248,-197,-431,-414
2,1032,35056,-189,-15829,-4324,-193,-442,-404
2,1033,35061,-223,-15778,-4517,-184,-447,-397
2,1034,35066,-286,-15698,-4527,-180,-422,-388
2,1035,35071,-237,-15699,-4336,-176,-401,-375
2,1036,35076,-140,-15688,-4281,-167,-404,-360
2,1037,35081,-152,-15680,-4342,-157,-419,-347
2,1038,35086,-241,-15727,-4353,-147,-427,-338
2,1039,35091,-248,-15802,-4387,-143,-429,-326
2,1040,35096,-235,-15791,-4411,-136,-430,-312
2,1041,35101,-199,-15753,-4461,-132,-432,-300
2,1042,35106,-99,-15763,-4595,-128,-423,-290
2,1043,35111,-79,-15721,-4766,-120,-402,-280
2,1044,35116,-123,-15691,-4745,-112,-368,-272
2,1045,35121,-187,-15624,-4647,-107,-344,-262
2,1046,35126,-218,-15529,-4616,-101,-332,-249
2,1047,35131,-159,-15464,-4645,-96,-313,-238
2,1048,35136,-118,-15485,-4518,-84,-290,-227
2,1049,35141,-250,-15531,-4459,-79,-281,-219
2,1050,35146,-296,-15514,-4519,-73,-288,-210
2,1051,35151,-250,-15505,-4651,-65,-285,-199
2,1052,35156,-185,-15535,-4598,-62,-259,-191
2,1053,35161,-223,-15481,-4583,-56,-237,-182
2,1054,35166,-243,-15413,-4748,-50,-219,-174
2,1055,35171,-262,-15410,-4831,-47,-190,-164
2,1056,35176,-146,-15364,-4678,-41,-151,-156
2,1057,35181,-126,-15310,-4430,-37,-117,-151
2,1058,35186,-201,-15270,-4288,-32,-106,-146
2,1059,35191,-226,-15276,-4269,-26,-108,-137
2,1060,35196,-202,-15279,-4296,-22,-109,-128
2,1061,35201,-126,-15275,-4292,-20,-112,-120
2,1062,35206,-97,-15311,-4237,-16,-123,-111
2,1063,35211,-37,-15328,-4200,-15,-131,-103
2,1064,35216,24,-15302,-4311,-9,-132,-98
2,1065,35221,-129,-15274,-4423,-5,-116,-95
2,1066,35226,-244,-15313,-4320,-5,-101,-87
2,1067,35231,-140,-15294,-4179,-3,-99,-79
2,1068,35236,-4,-15326,-4204,0,-103,-71
2,1069,35241,53,-15405,-4256,0,-92,-68
2,1070,35246,15,-15471,-4370,5,-81,-66
2,1071,35251,-21,-15508,-4350,3,-75,-61
2,1072,35256,201,-15558,-4431,9,-55,-48
2,1073,35261,230,-15576,-4333,9,-28,-45
2,1074,35266,213,-15560,-4189,9,-16,-41
2,1075,35271,178,-15577,-4196,9,-19,-35
2,1076,35276,311,-15570,-4315,11,-19,-30
2,1077,35281,375,-15649,-4247,13,-16,-21
2,1078,35286,373,-15754,-4076,13,-23,-21
2,1079,35291,318,-15743,-4205,13,-50,-17
2,1080,35296,272,-15688,-4285,8,-69,-14
2,1081,35301,201,-15629,-4239,12,-68,-9
2,1082,35306,384,-15638,-4259,16,-58,0
2,1083,35311,415,-15721,-4252,14,-52,1
2,1084,35316,340,-15760,-4227,14,-64,0
2,1085,35321,292,-15687,-4360,16,-86,1
2,1086,35326,310,-15662,-4421,16,-97,6
2,1087,35331,422,-15694,-4472,14,-98,7
2,1088,35336,439,-15686,-4502,15,-96,8
2,1089,35341,441,-15689,-4562,16,-89,11
2,1090,35346,413,-15698,-4718,13,-79,11
2,1091,35351,484,-15720,-4747,16,-54,12
2,1092,35356,528,-15689,-4547,16,-35,9
2,1093,35361,538,-15654,-4315,18,-37,7
2,1094,35366,466,-15675,-4315,16,-67,10
2,1095,35371,366,-15740,-4474,15,-91,11
2,1096,35376,379,-15789,-4396,19,-102,14
2,1097,35381,443,-15786,-4333,17,-115,13
2,1098,35386,376,-15822,-4446,19,-135,11
2,1099,35391,246,-15787,-4787,19,-144,7
2,1100,35396,163,-15781,-5000,17,-126,7
2,1101,35401,313,-15719,-4942,15,-97,2
2,1102,35406,453,-15660,-4841,15,-65,0
2,1103,35411,472,-15639,-4810,15,-33,-4
2,1104,35416,438,-15661,-4752,15,-16,-9
2,1105,35421,410,-15648,-4695,15,-10,-12
2,1106,35426,564,-15626,-4613,12,-8,-14
2,1107,35431,696,-15580,-4545,12,-19,-15
2,1108,35436,747,-15568,-4497,14,-34,-13
2,1109,35441,650,-15629,-4562,14,-55,-17
2,1110,35446,600,-15642,-4619,15,-65,-20
2,1111,35451,576,-15667,-4738,13,-69,-20
2,1112,35456,511,-15710,-4643,13,-69,-23
2,1113,35461,518,-15728,-4708,14,-71,-26
2,1114,35466,596,-15807,-4804,14,-62,-28
2,1115,35471,626,-15840,-4812,9,-45,-30
2,1116,35476,700,-15861,-4682,7,-34,-34
2,1117,35481,621,-15857,-4642,8,-26,-38
2,1118,35486,575,-15898,-4711,7,-28,-40
2,1119,35491,647,-15911,-4683,4,-26,-39
2,1120,35496,751,-15899,-4689,3,-24,-41
2,1121,35501,734,-15870,-4679,5,-23,-45
2,1122,35506,672,-15884,-4695,3,-25,-48
2,1123,35511,653,-15886,-4780,1,-27,-47
2,1124,35516,641,-15921,-4889,2,-13,-48
2,1125,35521,735,-15957,-4813,-1,2,-50
2,1126,35526,706,-15919,-4723,-4,3,-54
2,1127,35531,678,-15866,-4741,-8,-1,-57
2,1128,35536,675,-15802,-4831,-8,4,-59
2,1129,35541,732,-15795,-4878,-5,23,-58
2,1130,35546,830,-15755,-4751,-8,43,-59
2,1131,35551,860,-15794,-4691,-9,46,-61
2,1132,35556,745,-15770,-4660,-14,39,-61
2,1133,35561,720,-15729,-4710,-12,33,-63
2,1134,35566,743,-15727,-4643,-12,30,-63
2,1135,35571,782,-15777,-4500,-15,25,-60
2,1136,35576,820,-15825,-4570,-16,10,-61
2,1137,35581,752,-15814,-4663,-16,-4,-59
2,1138,35586,735,-15856,-4801,-18,-15,-58
2,1139,35591,782,-15829,-4815,-18,-12,-58
2,1140,35596,871,-15817,-4904,-18,0,-58
2,1141,35601,897,-15836,-4947,-22,19,-64
2,1142,35606,834,-15827,-4914,-25,41,-68
2,1143,35611,768,-15820,-4845,-28,60,-66
2,1144,35616,806,-15829,-4797,-26,69,-63
2,1145,35621,916,-15793,-4646,-29,71,-62
2,1146,35626,942,-15764,-4723,-27,59,-61
2,1147,35631,980,-15741,-4767,-26,52,-61
2,1148,35636,981,-15793,-4753,-28,51,-59
2,1149,35641,937,-15817,-4702,-28,52,-56
2,1150,35646,941,-15781,-4746,-29,40,-57
2,1151,35651,948,-15758,-4735,-29,32,-57
2,1152,35656,993,-15712,-4666,-28,36,-56
2,1153,35661,1020,-15655,-4641,-28,36,-51
2,1154,35666,1037,-15670,-4684,-29,30,-52
2,1155,35671,994,-15673,-4647,-31,23,-53
2,1156,35676,981,-15666,-4747,-29,17,-47
2,1157,35681,1003,-15656,-4724,-29,19,-47
2,1158,35686,957,-15625,-4630,-34,21,-50
2,1159,35691,869,-15588,-4642,-31,7,-45
2,1160,35696,927,-15588,-4807,-29,2,-42
2,1161,35701,984,-15668,-4675,-31,15,-45
2,1162,35706,975,-15691,-4501,-35,19,-43
2,1163,35711,1056,-15668,-4620,-33,5,-47
2,1164,35716,1012,-15694,-4859,-29,-3,-42
2,1165,35721,1026,-15733,-4738,-30,3,-42
2,1166,35726,1120,-15682,-4593,-30,0,-39
2,1167,35731,1127,-15673,-4629,-29,-9,-39
2,1168,35736,978,-15696,-4612,-29,-15,-37
2,1169,35741,880,-15704,-4624,-29,-24,-34
2,1170,35746,921,-15695,-4684,-27,-27,-30
2,1171,35751,971,-15693,-4702,-28,-22,-32
2,1172,35756,885,-15689,-4598,-31,-22,-34
2,1173,35761,803,-15722,-4667,-29,-21,-32
2,1174,35766,797,-15720,-4831,-24,0,-35
2,1175,35771,788,-15741,-4711,-25,28,-34
2,1176,35776,919,-15781,-4496,-28,33,-33
2,1177,35781,1021,-15783,-4529,-28,21,-30
2,1178,35786,1065,-15777,-4643,-25,16,-35
2,1179,35791,1030,-15721,-4626,-22,18,-36
2,1180,35796,984,-15736,-4617,-22,15,-31
2,1181,35801,981,-15737,-4669,-21,7,-31
2,1182,35806,971,-15689,-4641,-21,1,-30
2,1183,35811,918,-15649,-4640,-17,3,-29
2,1184,35816,895,-15598,-4661,-15,10,-31
2,1185,35821,958,-15603,-4716,-16,11,-30
2,1186,35826,1036,-15633,-4722,-14,14,-25
2,1187,35831,1012,-15605,-4605,-14,18,-26
2,1188,35836,966,-15582,-4569,-14,11,-28
2,1189,35841,923,-15578,-4661,-13,4,-26
2,1190,35846,979,-15618,-4681,-9,1,-25
2,1191,35851,1030,-15602,-4653,-8,-2,-22
2,1192,35856,1085,-15585,-4658,-6,-5,-24
2,1193,35861,1097,-15566,-4650,-6,-5,-24
2,1194,35866,1167,-15504,-4761,-6,-5,-24
2,1195,35871,1186,-15576,-4698,-5,1,-21
2,1196,35876,1113,-15564,-4619,-2,1,-21
2,1197,35881,1045,-15561,-4578,1,-12,-18
2,1198,35886,1023,-15568,-4588,3,-30,-15
2,1199,35891,1025,-15571,-4618,3,-44,-16
2,1200,35896,977,-15573,-4608,5,-51,-16
2,1201,35901,898,-15613,-4733,10,-54,-13
2,1202,35906,873,-15607,-4777,10,-54,-15
2,1203,35911,921,-15534,-4787,11,-49,-14
2,1204,35916,901,-15537,-4678,12,-36,-12
2,1205,35921,874,-15569,-4670,12,-32,-14
2,1206,35926,865,-15571,-4701,14,-33,-12
2,1207,35931,902,-15552,-4802,16,-30,-12
2,1208,35936,899,-15518,-4689,17,-24,-12
2,1209,35941,923,-15503,-4637,13,-24,-12
2,1210,35946,981,-15477,-4662,15,-27,-11
2,1211,35951,866,-15453,-4658,18,-22,-10
2,1212,35956,834,-15510,-4696,18,-19,-11
2,1213,35961,882,-15513,-4697,19,-11,-11
2,1214,35966,938,-15528,-4648,19,-10,-11
2,1215,35971,960,-15569,-4566,23,-14,-9
2,1216,35976,921,-15564,-4600,21,-16,-9
2,1217,35981,875,-15584,-4676,19,-18,-10
2,1218,35986,959,-15558,-4544,23,-10,-7
2,1219,35991,993,-15607,-4543,25,-8,-5
2,1220,35996,959,-15591,-4516,23,-13,-4
2,1221,36001,970,-15568,-4541,22,-17,-7
2,1222,36006,963,-15563,-4555,26,-21,-5
2,1223,36011,1060,-15615,-4490,25,-25,-2
2,1224,36016,1133,-15641,-4545,26,-29,-1
2,1225,36021,1090,-15638,-4539,25,-31,0
2,1226,36026,1003,-15625,-4584,23,-37,1
2,1227,36031,977,-15620,-4631,28,-40,2
2,1228,36036,1028,-15642,-4600,28,-33,4
2,1229,36041,1026,-15679,-4581,26,-27,5
2,1230,36046,995,-15644,-4547,27,-28,4
2,1231,36051,967,-15570,-4587,25,-36,1
2,1232,36056,1010,-15554,-4641,27,-39,6
2,1233,36061,1053,-15574,-4610,29,-28,9
2,1234,36066,1103,-15612,-4548,30,-21,7
2,1235,36071,1059,-15629,-4618,29,-24,7
2,1236,36076,1016,-15615,-4624,30,-30,4
2,1237,36081,983,-15602,-4659,31,-35,7
2,1238,36086,955,-15612,-4631,29,-35,12
2,1239,36091,901,-15581,-4607,31,-37,11
2,1240,36096,809,-15632,-4650,32,-38,10
2,1241,36101,846,-15631,-4688,29,-35,8
2,1242,36106,917,-15609,-4730,32,-27,7
2,1243,36111,904,-15589,-4731,33,-19,5
2,1244,36116,858,-15590,-4679,33,-18,5
2,1245,36121,876,-15571,-4684,35,-22,7
2,1246,36126,906,-15514,-4708,34,-16,9
2,1247,36131,876,-15548,-4712,37,-11,9
2,1248,36136,871,-15620,-4666,37,-11,5
2,1249,36141,922,-15652,-4711,39,-17,7
2,1250,36146,959,-15659,-4776,40,-20,7
2,1251,36151,959,-15658,-4771,41,-13,3
2,1252,36156,954,-15685,-4757,42,-9,7
2,1253,36161,945,-15705,-4765,43,-8,8
2,1254,36166,928,-15769,-4733,43,-14,8
2,1255,36171,966,-15770,-4764,45,-16,6
2,1256,36176,983,-15805,-4823,47,-10,7
2,1257,36181,1034,-15816,-4788,49,-11,8
2,1258,36186,1042,-15837,-4802,49,-16,8
2,1259,36191,1054,-15827,-4838,51,-16,7
2,1260,36196,1085,-15853,-4884,50,-9,10
2,1261,36201,1095,-15815,-4826,54,2,9
2,1262,36206,1067,-15841,-4713,55,5,7
2,1263,36211,1007,-15883,-4745,54,6,6
2,1264,36216,1017,-15900,-4782,54,7,8
2,1265,36221,1063,-15895,-4774,54,14,7
2,1266,36226,1079,-15896,-4718,54,13,7
2,1267,36231,1076,-15882,-4721,54,16,9
2,1268,36236,1084,-15910,-4756,54,14,8
2,1269,36241,1095,-15941,-4733,55,20,5
2,1270,36246,1082,-15909,-4717,56,28,10
2,1271,36251,1075,-15890,-4653,53,28,9
2,1272,36256,1064,-15851,-4617,56,19,9
2,1273,36261,1072,-15811,-4606,55,14,9
2,1274,36266,1068,-15793,-4586,55,18,6
2,1275,36271,1065,-15755,-4585,56,20,9
2,1276,36276,1017,-15816,-4607,56,22,8
2,1277,36281,966,-15849,-4607,52,20,6
2,1278,36286,983,-15850,-4587,49,19,6
2,1279,36291,1006,-15777,-4563,50,23,6
2,1280,36296,1102,-15728,-4492,50,22,7
2,1281,36301,1087,-15731,-4414,49,12,6
2,1282,36306,1036,-15712,-4487,49,0,3
2,1283,36311,968,-15669,-4596,48,-2,4
2,1284,36316,1000,-15667,-4591,46,1,5
2,1285,36321,1005,-15677,-4531,43,3,4
2,1286,36326,991,-15684,-4546,39,0,4
2,1287,36331,918,-15601,-4587,41,1,1
2,1288,36336,919,-15654,-4520,38,4,0
2,1289,36341,953,-15682,-4432,33,1,0
2,1290,36346,964,-15673,-4456,32,-4,-4
2,1291,36351,887,-15651,-4561,30,-23,-5
2,1292,36356,904,-15633,-4577,28,-17,-4
2,1293,36361,956,-15646,-4526,26,-10,-8
2,1294,36366,936,-15601,-4544,25,-5,-12
2,1295,36371,851,-15627,-4539,22,0,-10
2,1296,36376,805,-15666,-4552,21,6,-12
2,1297,36381,900,-15647,-4492,19,8,-13
2,1298,36386,953,-15691,-4387,14,7,-14
2,1299,36391,989,-15742,-4369,15,-8,-13
2,1300,36396,1080,-15822,-4448,13,-24,-17
2,1301,36401,1032,-15890,-4504,14,-30,-19
2,1302,36406,991,-15958,-4489,14,-32,-17
2,1303,36411,920,-16000,-4578,14,-28,-15
2,1304,36416,968,-15997,-4672,9,-27,-16
2,1305,36421,983,-16051,-4598,8,-19,-21
2,1306,36426,986,-16047,-4511,6,-6,-19
2,1307,36431,1017,-16049,-4501,6,-2,-19
2,1308,36436,953,-16021,-4530,4,-2,-22
2,1309,36441,955,-16001,-4568,3,-6,-22
2,1310,36446,1027,-15985,-4574,4,-8,-23
2,1311,36451,1106,-16030,-4510,1,-10,-26
2,1312,36456,1095,-15954,-4586,3,-8,-28
2,1313,36461,990,-15950,-4618,2,-9,-26
2,1314,36466,973,-15922,-4660,-3,-7,-26
2,1315,36471,991,-15893,-4661,-4,2,-28
2,1316,36476,983,-15823,-4563,-4,16,-28
2,1317,36481,1035,-15796,-4556,-2,24,-27
2,1318,36486,1064,-15773,-4543,-2,25,-29
2,1319,36491,1039,-15728,-4438,-3,24,-34
2,1320,36496,1036,-15734,-4403,-3,17,-29
2,1321,36501,1063,-15743,-4468,-4,2,-30
2,1322,36506,1111,-15754,-4495,-5,-5,-30
2,1323,36511,1072,-15688,-4516,-5,-8,-30
2,1324,36516,1017,-15673,-4467,-3,-10,-29
2,1325,36521,982,-15685,-4522,-5,-7,-30
2,1326,36526,1057,-15717,-4602,-5,1,-31
2,1327,36531,1104,-15762,-4566,-5,7,-29
2,1328,36536,1074,-15801,-4486,-6,10,-29
2,1329,36541,1073,-15781,-4421,-7,2,-30
2,1330,36546,1096,-15779,-4482,-6,-2,-29
2,1331,36551,1121,-15766,-4502,-8,0,-30
2,1332,36556,1023,-15749,-4455,-6,-4,-30
2,1333,36561,1023,-15745,-4479,-5,-8,-31
2,1334,36566,1009,-15754,-4496,-3,-9,-29
2,1335,36571,1059,-15751,-4537,-5,-3,-30
2,1336,36576,1067,-15741,-4527,-6,1,-28
2,1337,36581,1066,-15771,-4465,-4,-2,-29
2,1338,36586,1050,-15790,-4455,-7,-7,-29
2,1339,36591,1034,-15751,-4509,-6,-5,-31
2,1340,36596,1063,-15753,-4514,-7,-2,-29
2,1341,36601,957,-15748,-4464,-7,3,-27
2,1342,36606,946,-15692,-4447,-5,2,-28
2,1343,36611,988,-15723,-4500,-4,8,-28
2,1344,36616,1035,-15776,-4427,-4,10,-24
2,1345,36621,1088,-15782,-4395,-5,7,-25
2,1346,36626,1135,-15769,-4464,-5,-4,-25
2,1347,36631,1094,-15791,-4498,-8,-12,-25
2,1348,36636,1094,-15809,-4588,-6,-13,-25
2,1349,36641,1145,-15842,-4604,-6,-10,-21
2,1350,36646,1187,-15886,-4532,-3,-1,-21
2,1351,36651,1188,-15856,-4486,-6,2,-20
2,1352,36656,1116,-15787,-4484,-9,-1,-21
2,1353,36661,1096,-15796,-4493,-5,-6,-19
2,1354,36666,1103,-15831,-4465,-6,-4,-16
2,1355,36671,1099,-15834,-4425,-7,-3,-13
2,1356,36676,1124,-15827,-4393,-6,-11,-12
2,1357,36681,1096,-15807,-4470,-5,-23,-11
2,1358,36686,1107,-15793,-4456,-7,-27,-9
2,1359,36691,1117,-15775,-4448,-7,-27,-9
2,1360,36696,1072,-15730,-4504,-8,-28,-9
2,1361,36701,994,-15697,-4609,-10,-29,-8
2,1362,36706,933,-15662,-4586,-8,-27,-8
2,1363,36711,933,-15632,-4563,-10,-19,-6
2,1364,36716,1000,-15623,-4436,-10,9,-8
2,1365,36721,973,-15620,-4481,-9,4,-6
2,1366,36726,964,-15621,-4557,-12,2,-10
2,1367,36731,988,-15632,-4507,-9,2,-9
2,1368,36736,1029,-15612,-4462,-11,-1,-8
2,1369,36741,977,-15647,-4472,-14,-5,-9
2,1370,36746,919,-15677,-4502,-11,-11,-7
2,1371,36751,967,-15639,-4575,-11,-10,-6
2,1372,36756,976,-15658,-4599,-14,-1,-7
2,1373,36761,960,-15682,-4519,-13,0,-8
2,1374,36766,978,-15682,-4577,-10,-7,-10
2,1375,36771,1034,-15768,-4646,-10,-6,-4
2,1376,36776,1047,-15784,-4617,-13,5,-4
2,1377,36781,1081,-15761,-4537,-12,3,-8
2,1378,36786,1042,-15806,-4587,-8,-1,-8
2,1379,36791,1043,-15832,-4662,-7,-4,-7
2,1380,36796,1034,-15853,-4728,-9,2,-6
2,1381,36801,1049,-15873,-4706,-9,15,-8
2,1382,36806,1140,-15862,-4605,-5,20,-10
2,1383,36811,1173,-15837,-4630,-6,19,-7
2,1384,36816,1206,-15879,-4593,-5,27,-5
2,1385,36821,1243,-15862,-4524,-2,28,-8
2,1386,36826,1174,-15831,-4489,-1,20,-7
2,1387,36831,1113,-15806,-4533,-2,11,-9
2,1388,36836,1145,-15818,-4576,-2,7,-8
2,1389,36841,1184,-15843,-4534,-1,11,-5
2,1390,36846,1217,-15820,-4538,0,11,-4
2,1391,36851,1192,-15766,-4568,2,8,-6
2,1392,36856,1188,-15731,-4553,0,8,-7
2,1393,36861,1165,-15728,-4545,2,10,-3
2,1394,36866,1177,-15687,-4507,5,12,-6
2,1395,36871,1190,-15642,-4464,3,16,-9
2,1396,36876,1161,-15617,-4493,5,12,-6
2,1397,36881,1188,-15639,-4491,5,12,-7
2,1398,36886,1146,-15652,-4391,5,15,-7
2,1399,36891,1100,-15607,-4327,6,9,-10
2,1400,36896,1086,-15606,-4336,5,-6,-7
2,1401,36901,1133,-15626,-4345,3,-9,-7
2,1402,36906,1110,-15616,-4367,7,-5,-7
2,1403,36911,1092,-15626,-4355,6,-5,-7
2,1404,36916,1096,-15652,-4298,5,-10,-9
2,1405,36921,1111,-15659,-4321,2,-11,-13
2,1406,36926,1128,-15647,-4302,3,-8,-11
2,1407,36931,1141,-15675,-4276,4,-4,-10
2,1408,36936,1156,-15670,-4251,4,-7,-10
2,1409,36941,1066,-15718,-4290,5,-10,-12
2,1410,36946,1034,-15751,-4353,6,-15,-10
2,1411,36951,996,-15755,-4343,5,-16,-11
2,1412,36956,1083,-15751,-4313,5,-17,-12
2,1413,36961,1116,-15786,-4344,7,-17,-11
2,1414,36966,1091,-15779,-4515,6,-12,-13
2,1415,36971,1115,-15780,-4565,8,-5,-15
2,1416,36976,1151,-15791,-4510,8,5,-17
2,1417,36981,1141,-15763,-4521,7,9,-13
2,1418,36986,1178,-15765,-4557,7,12,-14
2,1419,36991,1252,-15753,-4604,10,19,-17
2,1420,36996,1210,-15711,-4533,9,23,-18
2,1421,37001,1166,-15708,-4439,8,12,-16
2,1422,37006,1174,-15713,-4615,12,-1,-14
2,1423,37011,1209,-15626,-4619,14,0,-14
2,1424,37016,1164,-15616,-4515,15,4,-16
2,1425,37021,1091,-15636,-4579,17,1,-18
2,1426,37026,1099,-15610,-4714,18,4,-16
2,1427,37031,1162,-15619,-4692,18,18,-19
2,1428,37036,1097,-15680,-4571,19,28,-21
2,1429,37041,1169,-15713,-4606,23,26,-17
2,1430,37046,1193,-15783,-4569,23,33,-17
2,1431,37051,1181,-15794,-4454,22,34,-19
2,1432,37056,1171,-15806,-4401,22,23,-18
2,1433,37061,1169,-15851,-4428,23,6,-14
2,1434,37066,1196,-15868,-4486,23,-3,-15
2,1435,37071,1168,-15946,-4419,25,-4,-16
2,1436,37076,1217,-15925,-4453,28,-8,-18
2,1437,37081,1296,-15966,-4531,27,5,-18
2,1438,37086,1249,-15966,-4424,30,9,-19
2,1439,37091,1213,-15987,-4440,29,10,-21
2,1440,37096,1251,-15968,-4506,29,10,-20
2,1441,37101,1334,-15949,-4443,25,12,-19
2,1442,37106,1302,-15967,-4280,30,13,-20
2,1443,37111,1311,-15896,-4365,29,1,-20
2,1444,37116,1271,-15852,-4423,26,-4,-22
2,1445,37121,1239,-15827,-4458,29,-2,-20
2,1446,37126,1232,-15825,-4446,29,6,-18
2,1447,37131,1260,-15780,-4470,24,9,-19
2,1448,37136,1278,-15729,-4404,23,10,-21
2,1449,37141,1265,-15670,-4240,24,9,-22
2,1450,37146,1255,-15593,-4226,24,6,-21
2,1451,37151,1228,-15659,-4351,23,4,-21
2,1452,37156,1169,-15649,-4330,24,-5,-19
2,1453,37161,1239,-15607,-4277,22,-18,-15
2,1454,37166,1285,-15572,-4283,20,-26,-18
2,1455,37171,1234,-15537,-4378,18,-24,-22
2,1456,37176,1201,-15534,-4217,19,-15,-23
2,1457,37181,1101,-15550,-4310,17,-18,-21
2,1458,37186,1113,-15562,-4356,14,-15,-20
2,1459,37191,1108,-15540,-4208,11,-7,-22
2,1460,37196,1151,-15541,-4120,11,-13,-22
2,1461,37201,1230,-15552,-4146,10,-21,-20
2,1462,37206,1229,-15591,-4189,5,-28,-23
2,1463,37211,1200,-15642,-4227,2,-32,-25
2,1464,37216,1231,-15687,-4271,6,-41,-22
2,1465,37221,1179,-15730,-4291,6,-43,-24
2,1466,37226,1076,-15774,-4344,4,-37,-28
2,1467,37231,1069,-15796,-4406,1,-35,-26
2,1468,37236,1189,-15833,-4416,-2,-33,-24
2,1469,37241,1235,-15811,-4324,-3,-20,-29
2,1470,37246,1126,-15846,-4288,0,-18,-31
2,1471,37251,1112,-15861,-4457,1,-24,-31
2,1472,37256,1228,-15940,-4487,-1,-20,-30
2,1473,37261,1217,-15950,-4458,-3,-16,-28
2,1474,37266,1269,-15914,-4502,-2,-20,-29
2,1475,37271,1258,-15846,-4556,-2,-27,-28
2,1476,37276,1174,-15827,-4634,0,-34,-28
2,1477,37281,1134,-15783,-4677,0,-31,-31
2,1478,37286,1151,-15720,-4676,2,-18,-29
2,1479,37291,1160,-15701,-4549,2,-16,-33
2,1480,37296,1128,-15687,-4511,5,-25,-35
2,1481,37301,1148,-15650,-4664,9,-27,-32
2,1482,37306,1192,-15695,-4728,7,-18,-34
2,1483,37311,1265,-15756,-4650,9,-11,-33
2,1484,37316,1335,-15757,-4606,10,-16,-34
2,1485,37321,1341,-15745,-4613,11,-23,-32
2,1486,37326,1339,-15790,-4653,15,-23,-32
2,1487,37331,1406,-15805,-4662,14,-20,-34
2,1488,37336,1450,-15838,-4624,14,-23,-32
2,1489,37341,1458,-15855,-4596,18,-30,-33
2,1490,37346,1422,-15845,-4667,20,-37,-30
2,1491,37351,1434,-15852,-4722,20,-31,-31
2,1492,37356,1428,-15846,-4673,21,-21,-29
2,1493,37361,1539,-15813,-4575,20,-18,-29
2,1494,37366,1558,-15806,-4598,22,-21,-25
2,1495,37371,1529,-15835,-4668,24,-25,-23
2,1496,37376,1522,-15791,-4588,24,-27,-24
2,1497,37381,1503,-15745,-4490,25,-32,-20
2,1498,37386,1511,-15708,-4568,24,-50,-21
2,1499,37391,1511,-15623,-4606,24,-52,-17
2,1500,37396,1449,-15591,-4587,26,-51,-20
2,1501,37401,1380,-15576,-4603,28,-48,-18
2,1502,37406,1378,-15553,-4631,27,-38,-16
2,1503,37411,1304,-15626,-4534,24,-28,-13
2,1504,37416,1273,-15579,-4503,24,-26,-14
2,1505,37421,1148,-15581,-4396,24,-20,-17
2,1506,37426,1228,-15562,-4406,26,-23,-18
2,1507,37431,1229,-15588,-4337,24,-19,-15
2,1508,37436,1128,-15686,-4356,22,-17,-16
2,1509,37441,1129,-15776,-4332,21,-20,-14
2,1510,37446,1176,-15848,-4381,19,-29,-15
2,1511,37451,1170,-15914,-4356,15,-26,-20
2,1512,37456,1080,-15956,-4418,12,-26,-19
2,1513,37461,1062,-15953,-4457,14,-24,-16
2,1514,37466,1052,-15978,-4461,10,-20,-17
2,1515,37471,1071,-15998,-4448,6,-11,-21
2,1516,37476,1097,-16017,-4377,8,-4,-20
2,1517,37481,995,-15957,-4377,4,0,-21
2,1518,37486,1014,-15975,-4363,2,-4,-20
2,1519,37491,1122,-15985,-4374,3,-2,-17
2,1520,37496,1193,-15990,-4397,2,-3,-20
2,1521,37501,1172,-15928,-4368,-4,-4,-25
2,1522,37506,1153,-15881,-4454,-6,-8,-24
2,1523,37511,1214,-15851,-4526,-2,-7,-21
2,1524,37516,1225,-15851,-4507,-5,2,-19
2,1525,37521,1169,-15831,-4391,-9,16,-22
2,1526,37526,1140,-15789,-4421,-11,17,-22
2,1527,37531,1165,-15797,-4409,-12,17,-22
2,1528,37536,1158,-15749,-4392,-12,19,-21
2,1529,37541,1174,-15648,-4334,-14,19,-20
2,1530,37546,1219,-15633,-4333,-17,17,-21
2,1531,37551,1301,-15615,-4384,-16,21,-20
2,1532,37556,1245,-15593,-4351,-17,18,-21
2,1533,37561,1208,-15650,-4354,-20,6,-21
2,1534,37566,1223,-15648,-4378,-19,-3,-19
2,1535,37571,1235,-15633,-4462,-17,-11,-17
2,1536,37576,1297,-15667,-4544,-19,-3,-19
2,1537,37581,1263,-15676,-4486,-23,-1,-18
2,1538,37586,1253,-15700,-4497,-25,-6,-19
2,1539,37591,1291,-15748,-4500,-27,-10,-17
2,1540,37596,1288,-15746,-4560,-25,-7,-16
2,1541,37601,1344,-15774,-4532,-22,-2,-14
2,1542,37606,1269,-15775,-4504,-27,2,-18
2,1543,37611,1330,-15781,-4483,-25,-4,-16
2,1544,37616,1329,-15833,-4493,-22,-4,-15
2,1545,37621,1356,-15842,-4500,-26,1,-13
2,1546,37626,1398,-15878,-4434,-26,3,-11
2,1547,37631,1448,-15860,-4430,-22,-4,-9
2,1548,37636,1416,-15777,-4448,-23,-7,-6
2,1549,37641,1391,-15719,-4475,-27,-9,-7
2,1550,37646,1356,-15689,-4436,-24,-6,-8
2,1551,37651,1319,-15697,-4380,-24,-11,-6
2,1552,37656,1269,-15723,-4472,-23,-18,-4
2,1553,37661,1226,-15684,-4451,-23,-20,-5
2,1554,37666,1286,-15654,-4450,-23,-15,-2
2,1555,37671,1330,-15660,-4503,-23,-11,-2
2,1556,37676,1323,-15648,-4537,-23,-8,-3
2,1557,37681,1282,-15587,-4474,-22,-3,-3
2,1558,37686,1254,-15573,-4466,-24,3,-2
2,1559,37691,1315,-15658,-4481,-20,4,1
2,1560,37696,1348,-15650,-4463,-20,-1,1
2,1561,37701,1312,-15607,-4361,-18,-7,-1
2,1562,37706,1240,-15641,-4397,-17,-19,-1
2,1563,37711,1247,-15681,-4456,-18,-18,2
2,1564,37716,1250,-15740,-4377,-15,-14,6
2,1565,37721,1231,-15784,-4349,-16,-17,-1
2,1566,37726,1232,-15782,-4450,-14,-25,1
2,1567,37731,1295,-15792,-4568,-14,-25,3
2,1568,37736,1332,-15811,-4519,-15,-9,3
2,1569,37741,1362,-15832,-4428,-13,-2,4
2,1570,37746,1376,-15833,-4411,-9,-4,4
2,1571,37751,1351,-15835,-4404,-12,-6,2
2,1572,37756,1298,-15840,-4449,-14,-4,-1
2,1573,37761,1287,-15852,-4383,-12,-6,0
2,1574,37766,1226,-15855,-4372,-8,-9,3
2,1575,37771,1259,-15856,-4416,-7,-13,4
2,1576,37776,1258,-15848,-4471,-6,-11,4
2,1577,37781,1238,-15849,-4504,-3,-8,3
2,1578,37786,1264,-15788,-4502,-5,-6,2
2,1579,37791,1316,-15775,-4419,-6,-3,2
2,1580,37796,1281,-15778,-4395,-3,2,2
2,1581,37801,1291,-15780,-4404,1,2,2
2,1582,37806,1317,-15729,-4405,-2,0,3
2,1583,37811,1266,-15677,-4373,-1,-10,0
2,1584,37816,1354,-15628,-4447,-2,-16,3
2,1585,37821,1425,-15586,-4434,3,-16,7
2,1586,37826,1455,-15606,-4389,4,-15,6
2,1587,37831,1380,-15638,-4436,3,-15,4
2,1588,37836,1306,-15599,-4486,5,-21,4
2,1589,37841,1275,-15565,-4440,3,-25,2
2,1590,37846,1285,-15555,-4406,3,-23,5
2,1591,37851,1337,-15556,-4332,3,-19,7
2,1592,37856,1298,-15601,-4351,5,-24,6
2,1593,37861,1237,-15620,-4401,5,-30,3
2,1594,37866,1274,-15626,-4402,7,-37,3
2,1595,37871,1302,-15648,-4456,8,-38,6
2,1596,37876,1343,-15719,-4473,7,-37,6
2,1597,37881,1319,-15708,-4398,4,-42,4
2,1598,37886,1309,-15675,-4463,8,-50,4
2,1599,37891,1263,-15665,-4513,9,-50,5
