event_id,seq,ts_ms,ax,ay,az,gx,gy,gz
10,0,655891,-1577,-16045,-2637,1,3,-2
10,1,655896,-1582,-16076,-2641,2,4,-1
10,2,655901,-1568,-16045,-2654,3,8,-5
10,3,655906,-1595,-16006,-2594,3,11,-4
10,4,655911,-1643,-15960,-2647,1,16,-3
10,5,655916,-1643,-15993,-2674,-1,21,0
10,6,655921,-1606,-16034,-2642,-1,24,-2
10,7,655926,-1607,-16014,-2600,-2,29,-3
10,8,655931,-1628,-16005,-2590,-3,27,-2
10,9,655936,-1620,-16053,-2558,-5,22,-2
10,10,655941,-1629,-16076,-2556,-3,21,-1
10,11,655946,-1590,-16116,-2542,-3,19,-3
10,12,655951,-1603,-16131,-2487,-6,17,-5
10,13,655956,-1624,-16112,-2488,-5,12,-3
10,14,655961,-1658,-16097,-2506,-5,7,-5
10,15,655966,-1619,-16139,-2514,-8,7,-4
10,16,655971,-1630,-16142,-2474,-9,4,-2
10,17,655976,-1657,-16138,-2503,-9,7,-3
10,18,655981,-1695,-16143,-2507,-8,7,-1
10,19,655986,-1703,-16167,-2511,-10,5,-3
10,20,655991,-1705,-16162,-2517,-10,6,-2
10,21,655996,-1694,-16250,-2487,-13,4,-2
10,22,656001,-1682,-16251,-2498,-14,2,-2
10,23,656006,-1644,-16275,-2518,-13,-5,-3
10,24,656011,-1620,-16278,-2487,-11,-8,0
10,25,656016,-1617,-16241,-2492,-15,-13,2
10,26,656021,-1621,-16232,-2500,-16,-21,-3
10,27,656026,-1624,-16226,-2498,-14,-27,-2
10,28,656031,-1610,-16202,-2556,-15,-30,-1
10,29,656036,-1700,-16206,-2531,-16,-29,-3
10,30,656041,-1683,-16153,-2483,-16,-34,-4
10,31,656046,-1700,-16151,-2475,-15,-41,-2
10,32,656051,-1684,-16144,-2550,-15,-45,0
10,33,656056,-1668,-16124,-2528,-17,-37,-1
10,34,656061,-1646,-16152,-2513,-18,-31,-1
10,35,656066,-1651,-16209,-2547,-19,-30,0
10,36,656071,-1695,-16152,-2577,-20,-27,-2
10,37,656076,-1621,-16159,-2584,-16,-23,-3
10,38,656081,-1607,-16136,-2536,-16,-23,1
10,39,656086,-1601,-16115,-2590,-16,-23,-1
10,40,656091,-1587,-16147,-2632,-18,-25,-2
10,41,656096,-1572,-16132,-2616,-16,-29,-1
10,42,656101,-1573,-16130,-2634,-17,-29,-3
10,43,656106,-1578,-16159,-2655,-18,-25,-3
10,44,656111,-1604,-16127,-2608,-16,-19,2
10,45,656116,-1574,-16143,-2626,-15,-20,1
10,46,656121,-1537,-16186,-2594,-15,-20,2
10,47,656126,-1540,-16185,-2588,-13,-20,1
10,48,656131,-1536,-16164,-2585,-16,-24,0
10,49,656136,-1495,-16140,-2581,-15,-27,5
10,50,656141,-1540,-16163,-2579,-11,-30,7
10,51,656146,-1566,-16194,-2647,-14,-33,4
10,52,656151,-1561,-16186,-2685,-14,-32,7
10,53,656156,-1498,-16172,-2656,-11,-27,7
10,54,656161,-1531,-16181,-2673,-11,-24,8
10,55,656166,-1533,-16145,-2676,-11,-17,11
10,56,656171,-1493,-16174,-2631,-12,-13,10
10,57,656176,-1457,-16193,-2559,-12,-7,13
10,58,656181,-1422,-16156,-2497,-12,-1,16
10,59,656186,-1407,-16192,-2461,-11,10,16
10,60,656191,-1442,-16193,-2453,-12,22,13
10,61,656196,-1515,-16137,-2413,-14,28,16
10,62,656201,-1500,-16063,-2463,-10,29,18
10,63,656206,-1538,-16026,-2501,-10,31,19
10,64,656211,-1573,-16004,-2531,-16,36,17
10,65,656216,-1542,-15977,-2561,-12,40,17
10,66,656221,-1484,-15991,-2581,-9,44,19
10,67,656226,-1420,-15992,-2588,-10,41,23
10,68,656231,-1441,-16017,-2571,-12,39,22
10,69,656236,-1429,-16044,-2581,-8,32,20
10,70,656241,-1467,-16053,-2574,-9,23,22
10,71,656246,-1425,-16078,-2575,-10,15,28
10,72,656251,-1433,-16086,-2557,-6,10,28
10,73,656256,-1450,-16099,-2510,-4,5,26
10,74,656261,-1467,-16156,-2572,-4,0,25
10,75,656266,-1482,-16187,-2594,-3,7,26
10,76,656271,-1526,-16136,-2574,-4,13,25
10,77,656276,-1567,-16139,-2591,-3,12,24
10,78,656281,-1586,-16154,-2566,0,10,24
10,79,656286,-1581,-16143,-2561,2,6,25
10,80,656291,-1645,-16171,-2605,3,9,26
10,81,656296,-1647,-16223,-2608,8,8,24
10,82,656301,-1620,-16217,-2608,7,10,19
10,83,656306,-1637,-16229,-2627,9,9,19
10,84,656311,-1635,-16267,-2622,10,6,17
10,85,656316,-1589,-16258,-2609,13,5,16
10,86,656321,-1577,-16258,-2610,15,2,14
10,87,656326,-1575,-16290,-2576,14,-5,13
10,88,656331,-1552,-16275,-2568,17,-11,11
10,89,656336,-1589,-16205,-2565,16,-12,10
10,90,656341,-1605,-16196,-2543,18,-15,8
10,91,656346,-1637,-16205,-2563,20,-18,6
10,92,656351,-1630,-16194,-2579,21,-19,9
10,93,656356,-1574,-16237,-2556,22,-17,3
10,94,656361,-1582,-16211,-2532,24,-18,1
10,95,656366,-1611,-16196,-2506,25,-21,-1
10,96,656371,-1604,-16187,-2565,25,-26,-4
10,97,656376,-1649,-16173,-2597,26,-26,-7
10,98,656381,-1645,-16121,-2611,27,-27,-5
10,99,656386,-1625,-16095,-2629,28,-24,-9
10,100,656391,-1638,-16095,-2623,30,-19,-10
10,101,656396,-1628,-16084,-2600,26,-16,-13
10,102,656401,-1666,-16095,-2589,29,-16,-12
10,103,656406,-1672,-16059,-2563,30,-19,-14
10,104,656411,-1649,-16032,-2485,28,-26,-17
10,105,656416,-1668,-16067,-2490,28,-29,-19
10,106,656421,-1685,-16069,-2463,30,-32,-17
10,107,656426,-1677,-16068,-2447,30,-34,-20
10,108,656431,-1679,-16084,-2462,29,-37,-23
10,109,656436,-1610,-16050,-2569,29,-42,-23
10,110,656441,-1625,-16070,-2561,28,-46,-26
10,111,656446,-1681,-16104,-2545,28,-50,-28
10,112,656451,-1667,-16095,-2587,29,-53,-28
10,113,656456,-1668,-16128,-2666,31,-52,-28
10,114,656461,-1678,-16174,-2677,28,-43,-29
10,115,656466,-1640,-16200,-2669,27,-36,-30
10,116,656471,-1600,-16186,-2618,29,-29,-29
10,117,656476,-1608,-16171,-2578,27,-24,-32
10,118,656481,-1582,-16189,-2601,27,-22,-34
10,119,656486,-1545,-16202,-2599,25,-21,-33
10,120,656491,-1532,-16253,-2599,27,-19,-33
10,121,656496,-1503,-16233,-2567,27,-20,-32
10,122,656501,-1510,-16216,-2540,27,-25,-30
10,123,656506,-1561,-16199,-2593,26,-33,-31
10,124,656511,-1628,-16170,-2632,26,-33,-31
10,125,656516,-1559,-16132,-2601,24,-27,-28
10,126,656521,-1571,-16178,-2638,22,-23,-29
10,127,656526,-1562,-16163,-2586,21,-20,-30
10,128,656531,-1504,-16173,-2587,22,-20,-26
10,129,656536,-1474,-16170,-2631,23,-19,-25
10,130,656541,-1542,-16157,-2583,22,-16,-26
10,131,656546,-1591,-16138,-2518,21,-16,-25
10,132,656551,-1566,-16134,-2520,20,-17,-22
10,133,656556,-1550,-16164,-2538,18,-15,-23
10,134,656561,-1580,-16163,-2493,17,-11,-22
10,135,656566,-1583,-16186,-2390,16,-15,-19
10,136,656571,-1527,-16166,-2373,16,-18,-18
10,137,656576,-1538,-16173,-2388,16,-23,-16
10,138,656581,-1527,-16172,-2389,14,-34,-17
10,139,656586,-1512,-16116,-2528,13,-49,-12
10,140,656591,-1490,-16151,-2553,15,-53,-10
10,141,656596,-1454,-16170,-2551,11,-52,-9
10,142,656601,-1465,-16175,-2591,8,-49,-8
10,143,656606,-1423,-16169,-2647,10,-47,-6
10,144,656611,-1446,-16114,-2631,8,-42,-6
10,145,656616,-1438,-16113,-2641,9,-31,-5
10,146,656621,-1499,-16100,-2689,7,-19,-3
10,147,656626,-1538,-16056,-2612,10,-14,-1
10,148,656631,-1511,-16066,-2650,7,-11,0
10,149,656636,-1514,-16106,-2653,5,-8,1
10,150,656641,-1476,-16121,-2651,8,-3,1
10,151,656646,-1435,-16107,-2613,8,-2,4
10,152,656651,-1441,-16085,-2642,9,-4,5
10,153,656656,-1468,-16107,-2631,5,-5,5
10,154,656661,-1506,-16127,-2633,6,-7,5
10,155,656666,-1475,-16152,-2648,10,-4,7
10,156,656671,-1482,-16189,-2713,8,5,9
10,157,656676,-1521,-16170,-2739,7,16,11
10,158,656681,-1543,-16163,-2638,8,25,10
10,159,656686,-1475,-16150,-2737,9,25,10
10,160,656691,-1496,-16163,-2770,10,27,11
10,161,656696,-1514,-16146,-2739,10,37,9
10,162,656701,-1524,-16182,-2716,10,40,11
10,163,656706,-1580,-16163,-2752,11,40,9
10,164,656711,-1592,-16165,-2773,13,42,10
10,165,656716,-1589,-16144,-2764,12,48,9
10,166,656721,-1604,-16166,-2733,12,51,8
10,167,656726,-1650,-16134,-2686,13,52,7
10,168,656731,-1630,-16153,-2685,12,58,8
10,169,656736,-1632,-16177,-2632,11,63,4
10,170,656741,-1628,-16218,-2546,10,67,4
10,171,656746,-1642,-16165,-2539,12,68,4
10,172,656751,-1605,-16146,-2488,13,63,4
10,173,656756,-1631,-16164,-2411,12,57,2
10,174,656761,-1665,-16181,-2396,14,43,1
10,175,656766,-1639,-16170,-2531,15,24,2
10,176,656771,-1604,-16176,-2466,14,20,1
10,177,656776,-1631,-16140,-2385,10,11,-1
10,178,656781,-1660,-16161,-2495,11,-8,-1
10,179,656786,-1672,-16180,-2608,12,-25,1
10,180,656791,-1613,-16170,-2617,12,-25,-1
10,181,656796,-1613,-16149,-2506,10,-19,-3
10,182,656801,-1590,-16117,-2560,10,-16,-5
10,183,656806,-1630,-16122,-2587,11,-15,-7
10,184,656811,-1665,-16104,-2592,12,-13,-7
10,185,656816,-1652,-16106,-2514,9,-9,-8
10,186,656821,-1615,-16085,-2557,9,-8,-7
10,187,656826,-1602,-16107,-2543,9,-9,-10
10,188,656831,-1523,-16079,-2535,9,-7,-11
10,189,656836,-1534,-16069,-2588,4,0,-13
10,190,656841,-1572,-16031,-2571,6,1,-15
10,191,656846,-1550,-15974,-2580,5,7,-13
10,192,656851,-1514,-15907,-2578,5,14,-15
10,193,656856,-1575,-15939,-2551,5,15,-17
10,194,656861,-1557,-15957,-2525,4,20,-20
10,195,656866,-1562,-15955,-2515,5,20,-19
10,196,656871,-1527,-15958,-2478,4,26,-18
10,197,656876,-1548,-15971,-2460,2,29,-16
10,198,656881,-1549,-15985,-2453,1,31,-21
10,199,656886,-1543,-16042,-2383,2,31,-18
10,200,656891,-1533,-16056,-2381,1,28,-17
10,201,656896,-1560,-16111,-2376,-1,25,-20
10,202,656901,-1581,-16102,-2339,-2,28,-18
10,203,656906,-1594,-16137,-2307,-1,29,-17
10,204,656911,-1518,-16190,-2357,-3,32,-17
10,205,656916,-1538,-16205,-2376,-2,41,-17
10,206,656921,-1500,-16233,-2377,-2,45,-20
10,207,656926,-1470,-16273,-2291,-3,47,-20
10,208,656931,-1578,-16247,-2245,-6,32,-19
10,209,656936,-1549,-16236,-2267,-7,22,-17
10,210,656941,-1556,-16200,-2268,-5,9,-17
10,211,656946,-1561,-16228,-2292,-5,-7,-14
10,212,656951,-1588,-16194,-2253,-3,-32,-13
10,213,656956,-1627,-16217,-2372,-2,-54,-11
10,214,656961,-1614,-16267,-2404,1,-62,-11
10,215,656966,-1595,-16252,-2380,1,-65,-8
10,216,656971,-1658,-16276,-2393,-2,-71,-8
10,217,656976,-1686,-16343,-2420,-1,-77,-7
10,218,656981,-1604,-16367,-2464,-3,-80,-7
10,219,656986,-1618,-16364,-2522,-1,-80,-8
10,220,656991,-1684,-16356,-2511,0,-79,-8
10,221,656996,-1636,-16343,-2540,0,-83,-6
10,222,657001,-1603,-16307,-2588,3,-79,-7
10,223,657006,-1632,-16295,-2552,4,-68,-9
10,224,657011,-1641,-16334,-2508,0,-58,-8
10,225,657016,-1590,-16282,-2573,1,-51,-6
10,226,657021,-1529,-16269,-2501,3,-43,-5
10,227,657026,-1496,-16275,-2469,3,-32,-3
10,228,657031,-1450,-16313,-2435,2,-24,-3
10,229,657036,-1449,-16319,-2407,4,-26,-4
10,230,657041,-1420,-16305,-2470,2,-25,-3
10,231,657046,-1376,-16300,-2468,4,-23,0
10,232,657051,-1387,-16254,-2444,3,-21,2
10,233,657056,-1457,-16235,-2434,4,-20,2
10,234,657061,-1438,-16183,-2450,5,-22,3
10,235,657066,-1436,-16185,-2564,5,-23,3
10,236,657071,-1407,-16210,-2531,4,-13,5
10,237,657076,-1459,-16221,-2549,8,-9,5
10,238,657081,-1435,-16197,-2540,8,-8,4
10,239,657086,-1400,-16213,-2576,6,-3,4
10,240,657091,-1429,-16225,-2546,8,-1,6
10,241,657096,-1434,-16250,-2572,8,2,4
10,242,657101,-1405,-16235,-2511,8,3,6
10,243,657106,-1445,-16246,-2457,8,7,6
10,244,657111,-1482,-16228,-2477,8,4,8
10,245,657116,-1489,-16225,-2481,9,4,8
10,246,657121,-1450,-16239,-2509,9,12,9
10,247,657126,-1361,-16272,-2493,11,14,10
10,248,657131,-1329,-16246,-2447,9,12,10
10,249,657136,-1298,-16220,-2427,11,4,11
10,250,657141,-1265,-16221,-2444,11,-1,10
10,251,657146,-1319,-16222,-2465,11,-1,13
10,252,657151,-1350,-16179,-2532,13,1,15
10,253,657156,-1313,-16191,-2650,14,10,15
10,254,657161,-1359,-16222,-2630,13,22,14
10,255,657166,-1354,-16221,-2654,14,32,16
10,256,657171,-1332,-16195,-2664,15,46,19
10,257,657176,-1341,-16149,-2631,14,64,14
10,258,657181,-1406,-16101,-2508,15,79,14
10,259,657186,-1426,-16101,-2443,14,84,17
10,260,657191,-1421,-16109,-2473,15,83,18
10,261,657196,-1317,-16099,-2468,15,86,15
10,262,657201,-1294,-16082,-2428,16,84,17
10,263,657206,-1388,-16077,-2433,15,81,17
10,264,657211,-1428,-16059,-2432,15,74,17
10,265,657216,-1487,-16055,-2442,18,72,18
10,266,657221,-1588,-16046,-2413,18,80,20
10,267,657226,-1615,-15979,-2419,19,86,17
10,268,657231,-1592,-16018,-2373,17,88,17
10,269,657236,-1642,-16017,-2381,16,88,17
10,270,657241,-1678,-16041,-2387,17,88,15
10,271,657246,-1654,-16085,-2335,16,86,13
10,272,657251,-1605,-16078,-2274,16,81,13
10,273,657256,-1572,-16095,-2274,18,72,11
10,274,657261,-1540,-16137,-2345,17,62,11
10,275,657266,-1539,-16159,-2390,18,55,9
10,276,657271,-1597,-16138,-2368,19,47,7
10,277,657276,-1653,-16155,-2439,18,39,7
10,278,657281,-1603,-16123,-2536,16,39,8
10,279,657286,-1653,-16152,-2463,18,40,4
10,280,657291,-1669,-16143,-2344,18,37,2
10,281,657296,-1637,-16176,-2364,18,14,1
10,282,657301,-1629,-16211,-2369,15,13,-1
10,283,657306,-1604,-16233,-2347,11,10,-2
10,284,657311,-1592,-16221,-2300,13,2,-4
10,285,657316,-1670,-16206,-2286,12,-5,-8
10,286,657321,-1709,-16156,-2302,13,-13,-9
10,287,657326,-1752,-16120,-2368,10,-12,-9
10,288,657331,-1729,-16108,-2385,8,-13,-11
10,289,657336,-1669,-16139,-2425,6,-10,-13
10,290,657341,-1691,-16075,-2400,5,-9,-14
10,291,657346,-1693,-16067,-2367,6,-11,-16
10,292,657351,-1697,-16094,-2448,5,-17,-20
10,293,657356,-1691,-16075,-2425,-2,-18,-20
10,294,657361,-1678,-16088,-2383,3,-20,-20
10,295,657366,-1643,-16117,-2339,1,-26,-21
10,296,657371,-1635,-16163,-2368,-2,-36,-20
10,297,657376,-1659,-16188,-2402,-2,-44,-23
10,298,657381,-1664,-16207,-2408,-3,-49,-25
10,299,657386,-1636,-16182,-2414,-4,-47,-30
10,300,657391,-1643,-16227,-2516,-6,-48,-29
10,301,657396,-1621,-16202,-2571,-10,-50,-28
10,302,657401,-1585,-16164,-2582,-11,-50,-32
10,303,657406,-1518,-16172,-2559,-10,-49,-32
10,304,657411,-1592,-16197,-2527,-10,-48,-32
10,305,657416,-1633,-16198,-2584,-14,-46,-34
10,306,657421,-1652,-16242,-2576,-13,-38,-34
10,307,657426,-1634,-16234,-2543,-13,-24,-34
10,308,657431,-1662,-16179,-2533,-17,-14,-37
10,309,657436,-1662,-16181,-2518,-14,-13,-36
10,310,657441,-1691,-16144,-2479,-16,-11,-37
10,311,657446,-1690,-16138,-2456,-19,-12,-39
10,312,657451,-1673,-16163,-2494,-18,-18,-37
10,313,657456,-1656,-16156,-2540,-20,-22,-40
10,314,657461,-1576,-16138,-2567,-19,-20,-40
10,315,657466,-1614,-16157,-2534,-19,-22,-38
10,316,657471,-1588,-16208,-2576,-19,-26,-37
10,317,657476,-1548,-16184,-2540,-17,-32,-38
10,318,657481,-1540,-16186,-2512,-22,-37,-36
10,319,657486,-1522,-16190,-2548,-18,-38,-34
10,320,657491,-1545,-16185,-2582,-19,-40,-35
10,321,657496,-1563,-16176,-2563,-20,-43,-37
10,322,657501,-1566,-16164,-2602,-20,-51,-32
10,323,657506,-1590,-16146,-2578,-19,-51,-33
10,324,657511,-1578,-16098,-2625,-20,-49,-34
10,325,657516,-1600,-16104,-2701,-21,-47,-31
10,326,657521,-1622,-16112,-2701,-17,-42,-30
10,327,657526,-1611,-16139,-2657,-16,-37,-27
10,328,657531,-1561,-16172,-2631,-18,-32,-27
10,329,657536,-1474,-16153,-2631,-15,-24,-26
10,330,657541,-1429,-16204,-2647,-16,-16,-21
10,331,657546,-1433,-16199,-2638,-17,-8,-19
10,332,657551,-1476,-16185,-2632,-16,-5,-20
10,333,657556,-1498,-16180,-2634,-14,-10,-16
10,334,657561,-1419,-16203,-2651,-15,-10,-15
10,335,657566,-1400,-16184,-2654,-14,-15,-14
10,336,657571,-1401,-16158,-2669,-11,-18,-13
10,337,657576,-1448,-16125,-2721,-9,-17,-9
10,338,657581,-1423,-16175,-2689,-9,-13,-5
10,339,657586,-1359,-16220,-2654,-9,-4,-3
10,340,657591,-1351,-16211,-2660,-7,6,0
10,341,657596,-1358,-16133,-2677,-6,9,5
10,342,657601,-1408,-16092,-2581,-5,10,5
10,343,657606,-1439,-16118,-2501,-6,2,7
10,344,657611,-1456,-16064,-2522,-2,-6,10
10,345,657616,-1406,-16009,-2540,-1,-5,16
10,346,657621,-1440,-15965,-2454,-1,1,18
10,347,657626,-1464,-15997,-2344,-1,-2,18
10,348,657631,-1510,-16014,-2357,-2,-7,19
10,349,657636,-1491,-16004,-2405,-2,1,23
10,350,657641,-1466,-15949,-2402,-3,14,24
10,351,657646,-1476,-15940,-2393,-1,17,27
10,352,657651,-1465,-15908,-2415,-1,16,27
10,353,657656,-1419,-15952,-2523,-2,20,27
10,354,657661,-1482,-15883,-2493,-2,27,29
10,355,657666,-1508,-15925,-2509,-1,18,31
10,356,657671,-1525,-15986,-2517,2,7,35
10,357,657676,-1551,-16051,-2536,3,8,34
10,358,657681,-1515,-16093,-2527,1,9,34
10,359,657686,-1472,-16131,-2490,2,6,35
10,360,657691,-1503,-16138,-2490,5,-2,38
10,361,657696,-1577,-16168,-2547,9,-13,35
10,362,657701,-1605,-16228,-2587,10,-21,36
10,363,657706,-1603,-16244,-2584,11,-22,39
10,364,657711,-1528,-16284,-2541,9,-22,37
10,365,657716,-1540,-16272,-2599,13,-24,38
10,366,657721,-1558,-16296,-2633,13,-24,36
10,367,657726,-1624,-16308,-2695,12,-21,36
10,368,657731,-1629,-16336,-2630,15,-18,38
10,369,657736,-1589,-16299,-2671,15,-10,36
10,370,657741,-1586,-16318,-2655,14,-8,35
10,371,657746,-1615,-16352,-2675,16,-1,35
10,372,657751,-1598,-16313,-2645,18,11,28
10,373,657756,-1568,-16305,-2620,20,15,28
10,374,657761,-1610,-16294,-2619,18,22,28
10,375,657766,-1612,-16238,-2602,17,29,27
10,376,657771,-1604,-16235,-2578,17,31,26
10,377,657776,-1618,-16165,-2545,18,33,24
10,378,657781,-1631,-16086,-2484,19,31,24
10,379,657786,-1644,-16072,-2460,18,30,22
10,380,657791,-1647,-16053,-2441,19,24,20
10,381,657796,-1627,-16040,-2422,19,18,20
10,382,657801,-1655,-16067,-2374,17,15,18
10,383,657806,-1680,-16078,-2427,19,12,17
10,384,657811,-1636,-16078,-2418,19,8,18
10,385,657816,-1639,-16059,-2357,16,4,15
10,386,657821,-1663,-16077,-2378,16,-1,12
10,387,657826,-1635,-16099,-2457,16,-4,14
10,388,657831,-1648,-16164,-2431,15,-7,13
10,389,657836,-1614,-16138,-2386,13,-10,9
10,390,657841,-1652,-16150,-2419,13,-14,8
10,391,657846,-1665,-16166,-2440,12,-19,6
10,392,657851,-1690,-16156,-2443,10,-20,5
10,393,657856,-1724,-16142,-2444,11,-18,3
10,394,657861,-1683,-16156,-2370,10,-21,4
10,395,657866,-1678,-16124,-2408,10,-27,2
10,396,657871,-1605,-16166,-2433,6,-31,2
10,397,657876,-1577,-16203,-2452,5,-36,-1
10,398,657881,-1563,-16188,-2440,3,-33,-2
10,399,657886,-1574,-16193,-2473,5,-29,-4
10,400,657891,-1589,-16180,-2465,4,-30,-4
10,401,657896,-1615,-16179,-2496,1,-27,-3
10,402,657901,-1635,-16231,-2499,1,-26,-7
10,403,657906,-1644,-16184,-2472,-3,-21,-8
10,404,657911,-1612,-16175,-2455,-3,-15,-10
10,405,657916,-1560,-16136,-2474,-2,-12,-11
10,406,657921,-1581,-16150,-2472,-4,-11,-9
10,407,657926,-1617,-16159,-2465,-6,-13,-12
10,408,657931,-1574,-16161,-2504,-5,-11,-13
10,409,657936,-1624,-16164,-2501,-8,-10,-14
10,410,657941,-1599,-16127,-2486,-9,-10,-17
10,411,657946,-1600,-16110,-2428,-13,-10,-16
10,412,657951,-1576,-16141,-2467,-12,-16,-15
10,413,657956,-1521,-16144,-2492,-12,-21,-15
10,414,657961,-1518,-16140,-2579,-10,-28,-14
10,415,657966,-1560,-16134,-2539,-12,-33,-17
10,416,657971,-1597,-16139,-2514,-16,-35,-17
10,417,657976,-1583,-16162,-2527,-14,-34,-16
10,418,657981,-1593,-16188,-2480,-12,-29,-17
10,419,657986,-1544,-16172,-2495,-15,-24,-17
10,420,657991,-1587,-16201,-2469,-15,-20,-18
10,421,657996,-1629,-16173,-2503,-15,-17,-18
10,422,658001,-1658,-16193,-2526,-14,-14,-16
10,423,658006,-1623,-16160,-2521,-16,-14,-15
10,424,658011,-1589,-16133,-2492,-15,-17,-18
10,425,658016,-1580,-16153,-2490,-16,-24,-16
10,426,658021,-1555,-16192,-2582,-14,-26,-15
10,427,658026,-1513,-16237,-2606,-15,-27,-15
10,428,658031,-1534,-16227,-2649,-13,-29,-13
10,429,658036,-1590,-16199,-2665,-11,-28,-12
10,430,658041,-1557,-16192,-2675,-11,-28,-8
10,431,658046,-1548,-16187,-2631,-13,-25,-9
10,432,658051,-1525,-16177,-2595,-10,-26,-8
10,433,658056,-1543,-16219,-2557,-9,-31,-6
10,434,658061,-1511,-16193,-2623,-7,-35,-2
10,435,658066,-1546,-16134,-2578,-6,-37,-2
10,436,658071,-1566,-16137,-2601,-9,-42,-1
10,437,658076,-1616,-16138,-2649,-6,-41,-2
10,438,658081,-1610,-16112,-2652,-3,-34,3
10,439,658086,-1624,-16118,-2620,-5,-29,5
10,440,658091,-1677,-16095,-2539,-6,-24,6
10,441,658096,-1672,-16087,-2520,-5,-24,6
10,442,658101,-1637,-16104,-2471,-5,-24,7
10,443,658106,-1644,-16110,-2445,-2,-26,10
10,444,658111,-1638,-16131,-2403,-2,-29,14
10,445,658116,-1607,-16144,-2443,0,-32,15
10,446,658121,-1590,-16150,-2466,0,-29,16
10,447,658126,-1575,-16168,-2500,-3,-21,17
10,448,658131,-1555,-16195,-2459,-4,-16,18
10,449,658136,-1570,-16157,-2430,-4,-15,19
10,450,658141,-1569,-16152,-2402,-7,-17,22
10,451,658146,-1615,-16116,-2411,-6,-12,21
10,452,658151,-1639,-16121,-2416,-8,-8,21
10,453,658156,-1628,-16108,-2414,-7,-9,25
10,454,658161,-1580,-16089,-2450,-7,-6,25
10,455,658166,-1603,-16101,-2395,-6,0,27
10,456,658171,-1650,-16134,-2416,-7,4,30
10,457,658176,-1648,-16150,-2433,-8,2,27
10,458,658181,-1638,-16102,-2425,-6,4,29
10,459,658186,-1647,-16104,-2378,-5,9,29
10,460,658191,-1661,-16110,-2407,-8,12,30
10,461,658196,-1627,-16149,-2471,-7,13,31
10,462,658201,-1674,-16167,-2465,-4,13,32
10,463,658206,-1744,-16155,-2471,-5,16,30
10,464,658211,-1712,-16177,-2460,-5,20,30
10,465,658216,-1682,-16212,-2432,-6,23,32
10,466,658221,-1656,-16181,-2363,-6,21,30
10,467,658226,-1655,-16190,-2331,-4,15,30
10,468,658231,-1660,-16203,-2392,-3,8,28
10,469,658236,-1623,-16178,-2449,-1,6,29
10,470,658241,-1670,-16220,-2439,1,0,26
10,471,658246,-1629,-16250,-2467,0,-6,26
10,472,658251,-1619,-16254,-2524,2,-11,26
10,473,658256,-1614,-16212,-2577,5,-12,26
10,474,658261,-1597,-16236,-2596,4,-7,22
10,475,658266,-1652,-16230,-2600,4,-5,21
10,476,658271,-1691,-16208,-2590,7,-4,20
10,477,658276,-1676,-16185,-2621,7,1,20
10,478,658281,-1701,-16116,-2596,8,5,21
10,479,658286,-1721,-16109,-2563,9,3,19
10,480,658291,-1669,-16136,-2530,13,4,16
10,481,658296,-1627,-16103,-2446,14,1,13
10,482,658301,-1645,-16092,-2483,12,-1,12
10,483,658306,-1652,-16137,-2510,15,-5,9
10,484,658311,-1659,-16108,-2454,16,-9,9
10,485,658316,-1660,-16122,-2465,16,-12,9
10,486,658321,-1704,-16121,-2479,16,-13,8
10,487,658326,-1668,-16114,-2489,17,-10,5
10,488,658331,-1634,-16108,-2411,16,-15,3
10,489,658336,-1629,-16129,-2457,16,-15,-2
10,490,658341,-1606,-16202,-2425,18,-17,1
10,491,658346,-1585,-16138,-2470,19,-17,2
10,492,658351,-1613,-16114,-2473,18,-17,-4
10,493,658356,-1639,-16110,-2550,16,-19,-5
10,494,658361,-1616,-16126,-2551,17,-23,-3
10,495,658366,-1646,-16099,-2613,20,-26,-7
10,496,658371,-1639,-16130,-2632,18,-24,-7
10,497,658376,-1591,-16172,-2617,17,-20,-8
10,498,658381,-1601,-16161,-2634,19,-20,-11
10,499,658386,-1644,-16147,-2571,21,-21,-8
10,500,658391,-1696,-16145,-2590,19,-15,-11
10,501,658396,-1745,-16116,-2522,15,1,-13
10,502,658401,-1714,-16120,-2464,19,9,-14
10,503,658406,-1672,-16150,-2378,17,13,-15
10,504,658411,-1670,-16141,-2350,17,6,-17
10,505,658416,-1674,-16119,-2372,18,-5,-15
10,506,658421,-1588,-16129,-2352,15,-19,-15
10,507,658426,-1539,-16156,-2356,14,-29,-16
10,508,658431,-1535,-16200,-2437,16,-43,-15
10,509,658436,-1537,-16234,-2482,15,-48,-16
10,510,658441,-1569,-16175,-2531,15,-43,-17
10,511,658446,-1562,-16120,-2602,15,-38,-14
10,512,658451,-1578,-16125,-2613,15,-32,-16
10,513,658456,-1571,-16129,-2571,12,-22,-14
10,514,658461,-1610,-16120,-2527,10,-13,-12
10,515,658466,-1625,-16144,-2515,13,-5,-14
10,516,658471,-1639,-16154,-2431,11,0,-14
10,517,658476,-1645,-16138,-2401,10,3,-13
10,518,658481,-1632,-16105,-2407,8,2,-15
10,519,658486,-1650,-16132,-2420,6,-8,-13
10,520,658491,-1648,-16179,-2449,7,-15,-12
10,521,658496,-1654,-16175,-2465,5,-17,-12
10,522,658501,-1689,-16138,-2525,3,-17,-13
10,523,658506,-1667,-16155,-2474,2,-15,-12
10,524,658511,-1624,-16146,-2543,4,-9,-8
10,525,658516,-1566,-16164,-2543,4,-6,-9
10,526,658521,-1611,-16200,-2541,4,-6,-9
10,527,658526,-1616,-16186,-2506,1,-7,-9
10,528,658531,-1623,-16191,-2504,-1,-9,-8
10,529,658536,-1619,-16211,-2465,-2,-9,-9
10,530,658541,-1661,-16211,-2420,-5,-7,-8
10,531,658546,-1695,-16242,-2428,-4,-7,-5
10,532,658551,-1698,-16227,-2440,-5,-6,-7
10,533,658556,-1669,-16201,-2440,-4,-9,-6
10,534,658561,-1655,-16195,-2423,-6,-12,-5
10,535,658566,-1686,-16158,-2450,-6,-12,-4
10,536,658571,-1670,-16148,-2517,-2,-18,-7
10,537,658576,-1634,-16175,-2521,-5,-21,-5
10,538,658581,-1639,-16184,-2534,-7,-20,-2
10,539,658586,-1654,-16163,-2596,-9,-19,-4
10,540,658591,-1627,-16160,-2625,-6,-16,-4
10,541,658596,-1650,-16187,-2621,-9,-11,-3
10,542,658601,-1651,-16173,-2630,-9,-4,-3
10,543,658606,-1646,-16144,-2614,-8,0,-1
10,544,658611,-1687,-16147,-2581,-9,1,-1
10,545,658616,-1698,-16173,-2543,-7,1,-1
10,546,658621,-1686,-16153,-2497,-9,4,-4
10,547,658626,-1694,-16171,-2449,-9,3,-2
10,548,658631,-1696,-16175,-2449,-8,-4,-1
10,549,658636,-1662,-16187,-2436,-5,-10,0
10,550,658641,-1638,-16180,-2475,-6,-14,0
10,551,658646,-1622,-16140,-2465,-9,-18,-2
10,552,658651,-1665,-16144,-2518,-9,-26,-3
10,553,658656,-1661,-16136,-2525,-7,-35,-1
10,554,658661,-1628,-16096,-2564,-8,-34,-1
10,555,658666,-1683,-16094,-2583,-6,-34,-2
10,556,658671,-1645,-16088,-2580,-5,-31,0
10,557,658676,-1618,-16137,-2623,-5,-27,-1
10,558,658681,-1635,-16149,-2609,-4,-26,-1
10,559,658686,-1614,-16148,-2618,-3,-20,-2
10,560,658691,-1625,-16165,-2624,-4,-13,-6
10,561,658696,-1651,-16122,-2615,-8,-6,-5
10,562,658701,-1657,-16159,-2529,-5,0,-4
10,563,658706,-1654,-16155,-2484,-5,4,-5
10,564,658711,-1676,-16150,-2487,-5,4,-7
10,565,658716,-1687,-16146,-2469,-7,-3,-6
10,566,658721,-1633,-16134,-2485,-5,-12,-5
10,567,658726,-1655,-16114,-2499,-2,-18,-7
10,568,658731,-1691,-16095,-2556,-3,-25,-7
10,569,658736,-1675,-16056,-2601,0,-28,-7
10,570,658741,-1678,-16067,-2597,-1,-25,-7
10,571,658746,-1730,-16062,-2561,-3,-20,-10
10,572,658751,-1727,-16034,-2631,-1,-13,-9
10,573,658756,-1672,-16056,-2606,0,-6,-11
10,574,658761,-1664,-16088,-2603,2,1,-11
10,575,658766,-1662,-16099,-2572,0,-1,-12
10,576,658771,-1640,-16154,-2539,0,-6,-11
10,577,658776,-1600,-16162,-2590,2,-8,-9
10,578,658781,-1626,-16135,-2577,2,-16,-11
10,579,658786,-1656,-16177,-2543,1,-20,-11
10,580,658791,-1669,-16179,-2565,2,-23,-12
10,581,658796,-1716,-16130,-2552,1,-22,-14
10,582,658801,-1637,-16157,-2601,4,-17,-14
10,583,658806,-1641,-16178,-2539,1,-14,-14
10,584,658811,-1586,-16216,-2513,1,-15,-12
10,585,658816,-1654,-16229,-2568,4,-19,-10
10,586,658821,-1675,-16192,-2505,3,-20,-11
10,587,658826,-1700,-16166,-2475,2,-18,-13
10,588,658831,-1723,-16192,-2514,4,-13,-14
10,589,658836,-1702,-16225,-2552,2,-9,-15
10,590,658841,-1626,-16250,-2527,3,-9,-15
10,591,658846,-1613,-16207,-2524,1,-7,-14
10,592,658851,-1637,-16203,-2509,-1,-7,-15
10,593,658856,-1610,-16212,-2497,-1,-13,-15
10,594,658861,-1589,-16192,-2543,0,-17,-14
10,595,658866,-1620,-16206,-2437,0,-16,-12
10,596,658871,-1603,-16185,-2465,-3,-18,-11
10,597,658876,-1608,-16144,-2444,-2,-20,-12
10,598,658881,-1604,-16149,-2415,-5,-22,-9
10,599,658886,-1609,-16126,-2474,-2,-23,-7
10,600,658891,-1665,-16111,-2458,-3,-25,-9
10,601,658896,-1618,-16110,-2397,-5,-24,-7
10,602,658901,-1593,-16145,-2400,-5,-25,-7
10,603,658906,-1613,-16169,-2436,-5,-20,-7
10,604,658911,-1619,-16135,-2477,-5,-16,-7
10,605,658916,-1687,-16078,-2475,-10,-14,-6
10,606,658921,-1659,-16058,-2452,-10,-14,-5
10,607,658926,-1627,-16105,-2508,-7,-13,-5
10,608,658931,-1620,-16109,-2529,-8,-14,-2
10,609,658936,-1606,-16151,-2502,-12,-11,-3
10,610,658941,-1617,-16168,-2468,-11,-12,-4
10,611,658946,-1645,-16121,-2467,-13,-9,-4
10,612,658951,-1636,-16121,-2451,-12,-7,-2
10,613,658956,-1663,-16135,-2455,-12,-8,-2
10,614,658961,-1640,-16096,-2441,-14,-14,-1
10,615,658966,-1624,-16124,-2470,-10,-18,0
10,616,658971,-1581,-16156,-2479,-13,-20,-1
10,617,658976,-1635,-16122,-2467,-14,-21,-3
10,618,658981,-1665,-16094,-2469,-16,-26,-1
10,619,658986,-1672,-16093,-2505,-15,-30,-1
10,620,658991,-1659,-16144,-2561,-11,-30,3
10,621,658996,-1682,-16102,-2551,-11,-19,1
10,622,659001,-1689,-16147,-2530,-14,-13,0
10,623,659006,-1660,-16141,-2507,-13,-12,1
10,624,659011,-1623,-16147,-2533,-11,-12,0
10,625,659016,-1611,-16184,-2534,-10,-9,1
10,626,659021,-1619,-16211,-2539,-9,-15,-1
10,627,659026,-1642,-16204,-2534,-10,-18,0
10,628,659031,-1633,-16201,-2585,-11,-22,0
10,629,659036,-1575,-16189,-2577,-9,-24,-2
10,630,659041,-1599,-16216,-2552,-12,-18,-3
10,631,659046,-1649,-16171,-2556,-9,-17,2
10,632,659051,-1613,-16131,-2611,-8,-15,3
10,633,659056,-1608,-16133,-2587,-10,-14,-2
10,634,659061,-1685,-16132,-2525,-5,-13,-2
10,635,659066,-1675,-16156,-2550,-6,-9,-4
10,636,659071,-1663,-16170,-2546,-6,-4,-2
10,637,659076,-1657,-16128,-2516,-3,-2,-2
10,638,659081,-1695,-16141,-2529,-2,-3,-5
10,639,659086,-1690,-16123,-2560,-2,-10,-4
10,640,659091,-1658,-16125,-2598,-2,-10,-2
10,641,659096,-1660,-16151,-2535,0,-10,-7
10,642,659101,-1649,-16156,-2512,-2,-11,-11
10,643,659106,-1620,-16173,-2548,1,-17,-4
10,644,659111,-1600,-16204,-2581,4,-20,-2
10,645,659116,-1637,-16198,-2579,5,-19,-7
10,646,659121,-1592,-16179,-2584,6,-17,-7
10,647,659126,-1559,-16191,-2607,9,-21,-5
10,648,659131,-1573,-16160,-2611,7,-23,-8
10,649,659136,-1569,-16137,-2540,10,-23,-7
10,650,659141,-1626,-16119,-2539,10,-21,-6
10,651,659146,-1599,-16089,-2546,7,-20,-8
10,652,659151,-1646,-16104,-2491,7,-16,-6
10,653,659156,-1584,-16101,-2436,10,-13,-3
10,654,659161,-1525,-16108,-2422,10,-12,-5
10,655,659166,-1491,-16151,-2422,13,-14,-6
10,656,659171,-1539,-16175,-2480,13,-17,-7
10,657,659176,-1559,-16183,-2506,12,-16,-9
10,658,659181,-1569,-16152,-2532,11,-11,-10
10,659,659186,-1594,-16136,-2578,12,-10,-9
10,660,659191,-1620,-16148,-2569,12,-6,-10
10,661,659196,-1646,-16083,-2562,13,-2,-8
10,662,659201,-1635,-16084,-2476,11,4,-11
10,663,659206,-1629,-16089,-2383,10,5,-11
10,664,659211,-1591,-16049,-2246,11,-2,-6
10,665,659216,-1607,-16069,-2209,12,-14,-6
10,666,659221,-1630,-16098,-2252,8,-27,-7
10,667,659226,-1606,-16152,-2248,8,-36,-6
10,668,659231,-1587,-16200,-2180,7,-43,-5
10,669,659236,-1590,-16186,-2129,5,-51,-7
10,670,659241,-1571,-16193,-2189,6,-60,-6
10,671,659246,-1612,-16198,-2255,6,-69,-7
10,672,659251,-1613,-16212,-2342,6,-70,-7
10,673,659256,-1575,-16236,-2469,5,-69,-8
10,674,659261,-1601,-16282,-2559,5,-63,-6
10,675,659266,-1634,-16294,-2599,1,-50,-9
10,676,659271,-1665,-16247,-2678,0,-38,-10
10,677,659276,-1652,-16266,-2637,1,-24,-10
10,678,659281,-1623,-16224,-2607,1,-9,-9
10,679,659286,-1633,-16228,-2562,1,0,-10
10,680,659291,-1630,-16269,-2514,1,5,-11
10,681,659296,-1610,-16272,-2470,1,3,-10
10,682,659301,-1641,-16235,-2461,0,1,-13
10,683,659306,-1652,-16219,-2443,-1,-6,-12
10,684,659311,-1638,-16219,-2443,1,-16,-10
10,685,659316,-1625,-16212,-2458,0,-28,-11
10,686,659321,-1624,-16216,-2452,1,-31,-13
10,687,659326,-1635,-16149,-2467,-1,-33,-14
10,688,659331,-1722,-16114,-2475,3,-39,-14
10,689,659336,-1769,-16061,-2539,5,-40,-12
10,690,659341,-1759,-16051,-2570,2,-31,-14
10,691,659346,-1735,-16056,-2515,-1,-22,-13
10,692,659351,-1696,-16078,-2469,-1,-15,-14
10,693,659356,-1688,-16089,-2498,3,-13,-14
10,694,659361,-1670,-16102,-2564,1,-13,-13
10,695,659366,-1659,-16081,-2541,3,-14,-15
10,696,659371,-1639,-16081,-2534,0,-15,-16
10,697,659376,-1642,-16122,-2530,2,-20,-15
10,698,659381,-1617,-16137,-2529,3,-28,-15
10,699,659386,-1594,-16158,-2586,3,-32,-14
10,700,659391,-1591,-16126,-2634,4,-34,-12
10,701,659396,-1596,-16130,-2614,4,-35,-15
10,702,659401,-1568,-16134,-2623,8,-32,-13
10,703,659406,-1616,-16105,-2647,11,-25,-14
10,704,659411,-1645,-16053,-2658,7,-18,-14
10,705,659416,-1684,-16091,-2628,8,-10,-14
10,706,659421,-1652,-16075,-2608,9,-2,-14
10,707,659426,-1658,-16112,-2597,7,1,-13
10,708,659431,-1644,-16108,-2530,8,3,-13
10,709,659436,-1664,-16141,-2450,8,5,-12
10,710,659441,-1616,-16128,-2411,9,7,-10
10,711,659446,-1639,-16106,-2446,10,8,-11
10,712,659451,-1663,-16079,-2397,9,9,-11
10,713,659456,-1729,-16094,-2418,10,8,-12
10,714,659461,-1744,-16072,-2417,9,6,-12
10,715,659466,-1776,-15992,-2405,9,7,-13
10,716,659471,-1793,-16008,-2396,10,7,-8
10,717,659476,-1743,-16027,-2341,7,5,-8
10,718,659481,-1789,-16020,-2248,11,-3,-3
10,719,659486,-1830,-16054,-2249,12,-22,1
10,720,659491,-1748,-16083,-2135,11,-58,2
10,721,659496,-1737,-16101,-1980,12,-75,4
10,722,659501,-1889,-15931,-1909,13,-92,7
10,723,659506,-1942,-16184,-2263,19,-133,10
10,724,659511,-2017,-16184,-2141,13,-158,17
10,725,659516,-1778,-16070,-2082,15,-197,26
10,726,659521,-1877,-16170,-2178,18,-220,23
10,727,659526,-2390,-16138,-2291,23,-236,22
10,728,659531,-2285,-16127,-2353,20,-252,35
10,729,659536,-2037,-16141,-2393,20,-241,40
10,730,659541,-2164,-16042,-2282,25,-220,34
10,731,659546,-2333,-16021,-2320,24,-229,36
10,732,659551,-2443,-15914,-2465,26,-249,42
10,733,659556,-2352,-15917,-2643,30,-255,47
10,734,659561,-2403,-15900,-2542,31,-228,48
10,735,659566,-2496,-15960,-2511,34,-220,50
10,736,659571,-2367,-15888,-2621,35,-231,56
10,737,659576,-2381,-15796,-2703,38,-225,59
10,738,659581,-2431,-15810,-2628,43,-209,63
10,739,659586,-2507,-15850,-2585,45,-190,69
10,740,659591,-2432,-15874,-2656,50,-184,78
10,741,659596,-2464,-15855,-2569,51,-161,81
10,742,659601,-2597,-15856,-2565,52,-135,82
10,743,659606,-2795,-15932,-2700,56,-110,87
10,744,659611,-2788,-15991,-2719,59,-70,95
10,745,659616,-2842,-15997,-2484,57,-33,98
10,746,659621,-2980,-16013,-2474,59,-18,101
10,747,659626,-3156,-16054,-2464,65,3,107
10,748,659631,-3217,-16086,-2494,66,26,111
10,749,659636,-3154,-16077,-2348,68,58,114
10,750,659641,-3270,-16094,-2208,71,71,118
10,751,659646,-3482,-16024,-2278,72,62,122
10,752,659651,-3489,-16018,-2189,75,68,127
10,753,659656,-3524,-15979,-2231,73,81,131
10,754,659661,-3641,-16034,-2067,76,104,132
10,755,659666,-3743,-16029,-1940,80,97,140
10,756,659671,-3648,-16057,-1883,80,82,148
10,757,659676,-3611,-16100,-1916,81,71,154
10,758,659681,-3645,-16106,-1820,80,81,154
10,759,659686,-3814,-16069,-1826,83,78,160
10,760,659691,-3917,-16052,-1845,87,60,169
10,761,659696,-3718,-16064,-2026,87,52,175
10,762,659701,-3614,-16090,-1958,88,75,177
10,763,659706,-3687,-16110,-1865,90,95,178
10,764,659711,-3806,-16113,-1831,90,97,186
10,765,659716,-3684,-16110,-1971,94,89,200
10,766,659721,-3744,-16098,-2114,96,98,205
10,767,659726,-3814,-16105,-1985,93,109,207
10,768,659731,-3705,-16181,-1962,95,108,215
10,769,659736,-3650,-16162,-2041,97,107,221
10,770,659741,-3820,-16091,-2002,98,116,224
10,771,659746,-3889,-16104,-2028,102,125,232
10,772,659751,-3613,-16103,-2112,102,140,240
10,773,659756,-3655,-16033,-1985,101,167,242
10,774,659761,-3716,-16062,-1965,105,173,249
10,775,659766,-3685,-16046,-1808,106,157,257
10,776,659771,-3382,-16073,-1893,108,142,264
10,777,659776,-3431,-16085,-1901,108,151,273
10,778,659781,-3562,-15937,-1754,108,156,278
10,779,659786,-3410,-15959,-1846,113,139,286
10,780,659791,-3305,-15994,-1994,115,137,292
10,781,659796,-3349,-15971,-1968,114,145,299
10,782,659801,-3358,-15938,-1885,115,150,306
10,783,659806,-3293,-15918,-1964,118,150,312
10,784,659811,-3249,-15933,-2008,119,154,321
10,785,659816,-3211,-15889,-1878,117,166,329
10,786,659821,-3132,-15955,-1810,115,172,333
10,787,659826,-3136,-16023,-1783,116,167,339
10,788,659831,-3164,-16071,-1770,120,160,348
10,789,659836,-3211,-16089,-1858,123,161,354
10,790,659841,-3260,-16129,-1852,120,169,358
10,791,659846,-3351,-16156,-1748,116,172,361
10,792,659851,-3399,-16199,-1784,116,170,364
10,793,659856,-3366,-16242,-1888,116,176,369
10,794,659861,-3407,-16322,-1835,113,201,375
10,795,659866,-3445,-16328,-1768,112,207,377
10,796,659871,-3441,-16351,-1823,114,209,383
10,797,659876,-3334,-16388,-1874,111,220,386
10,798,659881,-3234,-16392,-1882,108,239,385
10,799,659886,-3272,-16410,-1879,109,247,387
10,800,659891,-3305,-16422,-1913,105,245,388
10,801,659896,-3310,-16401,-1960,105,248,389
10,802,659901,-3300,-16392,-1983,104,261,392
10,803,659906,-3306,-16348,-1893,104,275,395
10,804,659911,-3340,-16358,-1822,100,271,395
10,805,659916,-3343,-16336,-1824,101,269,394
10,806,659921,-3250,-16341,-1807,100,267,395
10,807,659926,-3224,-16345,-1800,98,270,398
10,808,659931,-3170,-16305,-1798,99,264,399
10,809,659936,-3069,-16293,-1823,95,256,400
10,810,659941,-3082,-16277,-1878,98,253,399
10,811,659946,-3155,-16226,-1964,95,253,398
10,812,659951,-3171,-16158,-1987,91,256,398
10,813,659956,-3208,-16096,-1992,90,264,402
10,814,659961,-3223,-16112,-2055,88,267,399
10,815,659966,-3226,-16142,-2124,88,278,397
10,816,659971,-3205,-16142,-2042,87,290,393
10,817,659976,-3196,-16134,-2009,87,287,391
10,818,659981,-3224,-16150,-2005,87,276,392
10,819,659986,-3290,-16106,-2088,88,267,391
10,820,659991,-3356,-16102,-2066,86,264,389
10,821,659996,-3449,-16107,-1984,84,259,384
10,822,660001,-3528,-16096,-2022,85,248,383
10,823,660006,-3493,-16076,-1991,85,236,382
10,824,660011,-3493,-16090,-1968,84,224,378
10,825,660016,-3545,-16129,-1907,86,211,372
10,826,660021,-3532,-16109,-1928,84,189,371
10,827,660026,-3616,-16071,-1861,82,181,366
10,828,660031,-3604,-16080,-1924,81,168,364
10,829,660036,-3529,-16062,-1926,81,162,359
10,830,660041,-3408,-16069,-1962,82,157,355
10,831,660046,-3361,-16020,-2029,78,142,351
10,832,660051,-3381,-16008,-2064,76,133,343
10,833,660056,-3494,-16013,-2172,76,125,338
10,834,660061,-3445,-16009,-2368,77,125,337
10,835,660066,-3370,-15951,-2436,75,140,331
10,836,660071,-3323,-15969,-2379,73,163,324
10,837,660076,-3298,-16035,-2386,73,177,323
10,838,660081,-3223,-15995,-2432,71,187,318
10,839,660086,-3252,-15965,-2393,68,199,312
10,840,660091,-3317,-15922,-2282,66,211,307
10,841,660096,-3291,-15902,-2189,67,223,302
10,842,660101,-3263,-15908,-2173,65,231,299
10,843,660106,-3284,-15922,-2125,65,238,296
10,844,660111,-3306,-15902,-2062,65,236,291
10,845,660116,-3178,-15857,-2003,61,230,287
10,846,660121,-3185,-15850,-2017,56,228,281
10,847,660126,-3211,-15857,-1990,53,233,278
10,848,660131,-3135,-15846,-1963,55,230,274
10,849,660136,-3006,-15820,-2018,51,228,271
10,850,660141,-2960,-15830,-2000,48,230,268
10,851,660146,-2972,-15828,-1949,44,229,263
10,852,660151,-2904,-15777,-1971,41,220,257
10,853,660156,-2819,-15759,-2135,43,209,255
10,854,660161,-2823,-15798,-2141,38,208,253
10,855,660166,-2892,-15844,-2066,36,208,249
10,856,660171,-2870,-15813,-2145,34,201,247
10,857,660176,-2785,-15820,-2212,34,206,243
10,858,660181,-2788,-15771,-2188,28,225,237
10,859,660186,-2727,-15691,-2116,26,237,234
10,860,660191,-2741,-15660,-2030,24,241,230
10,861,660196,-2750,-15667,-2024,22,239,225
10,862,660201,-2798,-15670,-2079,20,241,221
10,863,660206,-2777,-15691,-2020,17,245,216
10,864,660211,-2656,-15713,-1976,14,242,214
10,865,660216,-2593,-15743,-1947,12,239,208
10,866,660221,-2513,-15839,-2025,14,231,204
10,867,660226,-2604,-15860,-2044,10,195,195
10,868,660231,-2636,-15935,-2132,12,177,193
10,869,660236,-2645,-15984,-2243,10,164,188
10,870,660241,-2743,-15951,-2179,7,157,182
10,871,660246,-2825,-16004,-2198,7,154,175
10,872,660251,-2871,-16071,-2273,8,149,171
10,873,660256,-2945,-16072,-2323,5,147,163
10,874,660261,-2951,-16098,-2256,2,147,155
10,875,660266,-3057,-16103,-2245,2,143,149
10,876,660271,-3099,-16076,-2223,-1,132,138
10,877,660276,-3122,-16065,-2190,1,124,129
10,878,660281,-3215,-16085,-2193,3,114,125
10,879,660286,-3310,-16086,-2143,1,94,116
10,880,660291,-3317,-16038,-2144,-2,76,104
10,881,660296,-3364,-16027,-2155,-3,59,96
10,882,660301,-3394,-16006,-2214,-3,43,90
10,883,660306,-3371,-15956,-2261,-2,29,80
10,884,660311,-3462,-15991,-2389,0,17,74
10,885,660316,-3458,-15987,-2507,-3,10,61
10,886,660321,-3532,-15982,-2671,-5,19,51
10,887,660326,-3544,-15953,-2795,-7,40,41
10,888,660331,-3564,-15864,-2765,-6,64,28
10,889,660336,-3573,-15868,-2741,-7,84,18
10,890,660341,-3566,-15856,-2675,-9,98,9
10,891,660346,-3582,-15851,-2560,-7,104,-4
10,892,660351,-3628,-15846,-2544,-6,102,-12
10,893,660356,-3656,-15864,-2452,-7,99,-23
10,894,660361,-3687,-15805,-2314,-7,90,-31
10,895,660366,-3763,-15797,-2252,-10,86,-39
10,896,660371,-3851,-15750,-2169,-10,74,-47
10,897,660376,-3815,-15675,-2054,-9,53,-58
10,898,660381,-3835,-15667,-1970,-9,27,-64
10,899,660386,-3773,-15652,-1999,-12,-2,-68
10,900,660391,-3777,-15644,-2016,-15,-32,-79
10,901,660396,-3861,-15632,-2033,-14,-60,-87
10,902,660401,-3877,-15674,-2110,-13,-78,-94
10,903,660406,-3855,-15647,-2199,-16,-82,-98
10,904,660411,-3859,-15620,-2279,-20,-75,-106
10,905,660416,-3824,-15631,-2233,-21,-71,-113
10,906,660421,-3782,-15624,-2189,-23,-65,-120
10,907,660426,-3797,-15558,-2123,-26,-56,-130
10,908,660431,-3865,-15544,-2038,-29,-47,-138
10,909,660436,-3884,-15526,-1930,-30,-43,-142
10,910,660441,-3777,-15504,-1945,-31,-47,-146
10,911,660446,-3626,-15544,-1925,-33,-53,-148
10,912,660451,-3584,-15546,-1864,-36,-63,-153
10,913,660456,-3662,-15549,-1916,-36,-80,-157
10,914,660461,-3622,-15552,-1989,-38,-100,-160
10,915,660466,-3537,-15577,-2037,-40,-117,-161
10,916,660471,-3479,-15590,-2196,-41,-131,-161
10,917,660476,-3433,-15595,-2208,-43,-133,-166
10,918,660481,-3429,-15602,-2210,-42,-133,-166
10,919,660486,-3410,-15657,-2273,-39,-133,-168
10,920,660491,-3309,-15676,-2362,-43,-118,-167
10,921,660496,-3176,-15687,-2339,-46,-95,-169
10,922,660501,-3080,-15764,-2237,-47,-79,-172
10,923,660506,-3101,-15825,-2180,-49,-74,-174
10,924,660511,-3061,-15830,-2137,-48,-78,-173
10,925,660516,-3036,-15834,-2071,-49,-77,-175
10,926,660521,-3046,-15899,-1996,-50,-80,-175
10,927,660526,-3036,-15913,-2048,-50,-96,-175
10,928,660531,-2923,-15942,-2260,-52,-111,-174
10,929,660536,-2750,-15952,-2419,-52,-109,-173
10,930,660541,-2685,-16074,-2314,-53,-91,-177
10,931,660546,-2755,-16238,-2265,-55,-82,-177
10,932,660551,-2625,-16349,-2435,-52,-76,-176
10,933,660556,-2446,-16363,-2542,-55,-46,-179
10,934,660561,-2390,-16319,-2512,-57,-6,-185
10,935,660566,-2403,-16317,-2461,-57,17,-189
10,936,660571,-2401,-16311,-2538,-60,27,-191
10,937,660576,-2183,-16355,-2515,-61,37,-197
10,938,660581,-1929,-16528,-2474,-62,57,-202
10,939,660586,-2003,-16497,-2025,-61,81,-207
10,940,660591,-1852,-16531,-2517,-54,93,-218
10,941,660596,-1532,-16622,-2353,-60,109,-227
10,942,660601,-1287,-16654,-2054,-65,103,-232
10,943,660606,-1218,-16690,-1981,-57,61,-240
10,944,660611,-1313,-16675,-2111,-52,8,-251
10,945,660616,-1188,-16562,-2120,-51,-38,-260
10,946,660621,-1019,-16494,-1840,-52,-85,-267
10,947,660626,-849,-16386,-1524,-47,-166,-279
10,948,660631,-969,-16314,-1733,-41,-277,-287
10,949,660636,-1069,-16206,-1987,-37,-360,-299
10,950,660641,-788,-16188,-2190,-37,-412,-307
10,951,660646,-658,-16109,-1960,-37,-458,-322
10,952,660651,-624,-16055,-1845,-33,-541,-333
10,953,660656,-568,-16232,-2639,-32,-611,-344
10,954,660661,-335,-16013,-2970,-27,-600,-360
10,955,660666,184,-16039,-3345,-33,-537,-383
10,956,660671,-119,-16227,-2870,-35,-475,-408
10,957,660676,95,-16122,-3322,-31,-505,-424
10,958,660681,124,-16170,-3492,-31,-480,-440
10,959,660686,155,-16197,-3653,-33,-408,-468
10,960,660691,130,-16191,-3479,-36,-305,-495
10,961,660696,98,-16375,-3133,-39,-229,-520
10,962,660701,58,-16429,-2920,-37,-183,-546
10,963,660706,113,-16478,-3081,-36,-143,-566
10,964,660711,78,-16420,-3136,-39,-66,-591
10,965,660716,11,-16423,-3052,-46,15,-620
10,966,660721,-144,-16443,-2592,-52,64,-643
10,967,660726,-113,-16578,-2500,-52,63,-658
10,968,660731,61,-16726,-2622,-54,73,-679
10,969,660736,129,-16875,-2596,-58,114,-700
10,970,660741,106,-17009,-2336,-61,151,-722
10,971,660746,137,-17068,-2225,-71,139,-746
10,972,660751,34,-17043,-2175,-69,90,-765
10,973,660756,-179,-17082,-2473,-70,44,-786
10,974,660761,-336,-17202,-2710,-73,40,-804
10,975,660766,-324,-17261,-2473,-80,66,-821
10,976,660771,-273,-17260,-2250,-85,74,-841
10,977,660776,-320,-17388,-2285,-87,64,-863
10,978,660781,-538,-17418,-2462,-95,64,-883
10,979,660786,-796,-17353,-2401,-100,68,-903
10,980,660791,-996,-17330,-2180,-108,68,-923
10,981,660796,-1025,-17326,-2110,-113,48,-939
10,982,660801,-1079,-17399,-2142,-115,16,-951
10,983,660806,-1099,-17320,-2210,-118,-17,-965
10,984,660811,-1198,-17256,-2166,-125,-46,-983
10,985,660816,-1334,-17246,-2254,-128,-86,-996
10,986,660821,-1565,-17285,-2320,-133,-113,-1011
10,987,660826,-1623,-17242,-2309,-145,-139,-1025
10,988,660831,-1780,-17154,-2154,-150,-164,-1033
10,989,660836,-2112,-17082,-2135,-153,-201,-1043
10,990,660841,-2370,-17099,-2339,-154,-250,-1050
10,991,660846,-2519,-17115,-2510,-161,-285,-1057
10,992,660851,-2682,-17070,-2359,-170,-304,-1066
10,993,660856,-2973,-17100,-2046,-177,-339,-1070
10,994,660861,-3068,-17171,-1996,-182,-395,-1075
10,995,660866,-3061,-17286,-2095,-180,-439,-1077
10,996,660871,-3072,-17347,-1871,-189,-466,-1081
10,997,660876,-3229,-17314,-1532,-198,-511,-1085
10,998,660881,-3461,-17313,-1545,-201,-581,-1085
10,999,660886,-4675,-8801,-3926,-220,-614,-1078
10,1000,660891,-3778,4698,575,-180,-544,-1275
10,1001,660896,-1822,-10290,5885,-233,625,-719
10,1002,660901,8212,-11518,-9404,-97,-653,-259
10,1003,660906,-4508,-19296,11195,-178,1153,-968
10,1004,660911,-525,-16212,310,-101,-1120,-931
10,1005,660916,-3000,-16624,-2025,-126,-2111,-508
10,1006,660921,-6465,-14884,-6754,-149,-1414,-797
10,1007,660926,-3706,-18358,-6950,-172,-640,-637
10,1008,660931,-1423,-17247,-1986,-226,-47,-708
10,1009,660936,-2519,-15832,-1274,-211,-392,-769
10,1010,660941,-3938,-16624,-3803,-161,-760,-695
10,1011,660946,-4363,-15513,-4756,-175,-525,-689
10,1012,660951,-3423,-15861,-1427,-198,-152,-654
10,1013,660956,-2698,-16348,-1087,-172,-629,-625
10,1014,660961,-3046,-16121,-3652,-161,-815,-594
10,1015,660966,-3663,-15865,-3790,-168,-601,-592
10,1016,660971,-3759,-16076,-2252,-167,-382,-571
10,1017,660976,-3526,-15998,-1838,-162,-383,-547
10,1018,660981,-3134,-16080,-3009,-152,-475,-522
10,1019,660986,-3017,-16176,-3719,-156,-395,-509
10,1020,660991,-3301,-16073,-2718,-164,-199,-495
10,1021,660996,-3283,-15926,-1520,-159,-127,-474
10,1022,661001,-2978,-15942,-1754,-147,-212,-440
10,1023,661006,-2726,-16052,-2701,-135,-257,-412
10,1024,661011,-2654,-15953,-2770,-131,-175,-396
10,1025,661016,-2720,-15881,-1999,-135,-81,-381
10,1026,661021,-2694,-15924,-1652,-130,-84,-357
10,1027,661026,-2601,-15834,-2095,-120,-128,-330
10,1028,661031,-2467,-15744,-2507,-116,-98,-305
10,1029,661036,-2296,-15702,-2119,-113,-23,-283
10,1030,661041,-2262,-15610,-1579,-109,-3,-260
10,1031,661046,-2121,-15566,-1914,-97,-55,-231
10,1032,661051,-1957,-15606,-2312,-91,-77,-203
10,1033,661056,-1932,-15606,-2407,-91,-37,-188
10,1034,661061,-2007,-15483,-2093,-86,14,-167
10,1035,661066,-1988,-15447,-2081,-79,20,-140
10,1036,661071,-1858,-15542,-2341,-70,11,-113
10,1037,661076,-1754,-15515,-2533,-65,38,-95
10,1038,661081,-1950,-15456,-2300,-62,82,-74
10,1039,661086,-1922,-15456,-2146,-54,96,-52
10,1040,661091,-1840,-15503,-2298,-46,97,-31
10,1041,661096,-1706,-15514,-2334,-43,110,-9
10,1042,661101,-1721,-15560,-2182,-39,134,6
10,1043,661106,-1604,-15530,-2044,-31,144,22
10,1044,661111,-1302,-15660,-2254,-23,140,44
10,1045,661116,-1242,-15821,-2319,-20,146,57
10,1046,661121,-1164,-15867,-2230,-18,147,70
10,1047,661126,-1228,-15840,-2458,-11,143,86
10,1048,661131,-1341,-15721,-2509,-4,155,100
10,1049,661136,-1380,-15686,-2626,-2,166,112
10,1050,661141,-1349,-15691,-2589,3,182,127
10,1051,661146,-1208,-15641,-2538,11,194,139
10,1052,661151,-1024,-15689,-2506,15,191,153
10,1053,661156,-853,-15772,-2265,17,175,164
10,1054,661161,-820,-15889,-2280,26,139,175
10,1055,661166,-855,-15999,-2326,31,116,185
10,1056,661171,-881,-16097,-2531,36,111,193
10,1057,661176,-918,-16191,-2486,40,127,196
10,1058,661181,-939,-16099,-2386,40,130,201
10,1059,661186,-962,-16126,-2325,45,109,207
10,1060,661191,-925,-16117,-2323,48,91,214
10,1061,661196,-902,-16107,-2602,53,81,219
10,1062,661201,-797,-16134,-2896,57,96,224
10,1063,661206,-582,-16261,-2983,57,124,227
10,1064,661211,-351,-16325,-2862,56,144,227
10,1065,661216,-352,-16396,-2868,59,151,227
10,1066,661221,-437,-16430,-2909,60,167,223
10,1067,661226,-388,-16465,-2951,61,200,224
10,1068,661231,-351,-16453,-2844,60,243,221
10,1069,661236,-230,-16463,-2702,63,268,215
10,1070,661241,-167,-16407,-2661,66,263,215
10,1071,661246,-138,-16393,-2748,68,242,212
10,1072,661251,-158,-16289,-2841,64,235,210
10,1073,661256,-129,-16254,-2867,66,233,206
10,1074,661261,-75,-16238,-2827,68,244,204
10,1075,661266,80,-16252,-2691,63,251,202
10,1076,661271,227,-16282,-2710,65,240,199
10,1077,661276,365,-16305,-2744,69,226,190
10,1078,661281,297,-16237,-2678,67,216,181
10,1079,661286,324,-16208,-2657,63,198,177
10,1080,661291,230,-16094,-2640,61,188,166
10,1081,661296,122,-16093,-2804,62,182,160
10,1082,661301,162,-16107,-2933,63,196,157
10,1083,661306,334,-16092,-2963,60,210,146
10,1084,661311,578,-16126,-2864,59,215,138
10,1085,661316,702,-16210,-2897,59,191,134
10,1086,661321,638,-16229,-3140,57,155,115
10,1087,661326,683,-16243,-3170,50,167,107
10,1088,661331,758,-16323,-3200,48,192,98
10,1089,661336,732,-16372,-3154,51,222,87
10,1090,661341,778,-16339,-3237,51,239,78
10,1091,661346,756,-16248,-3266,48,261,65
10,1092,661351,725,-16194,-3242,43,279,52
10,1093,661356,756,-16257,-3151,39,289,41
10,1094,661361,759,-16267,-3077,38,287,32
10,1095,661366,733,-16280,-2928,36,280,25
10,1096,661371,663,-16284,-2853,34,278,16
10,1097,661376,656,-16239,-2840,30,278,7
10,1098,661381,781,-16247,-2887,30,279,-1
10,1099,661386,883,-16296,-2891,27,266,-9
10,1100,661391,871,-16360,-2829,24,236,-20
10,1101,661396,880,-16364,-2765,21,200,-31
10,1102,661401,922,-16373,-2824,14,182,-36
10,1103,661406,894,-16378,-2734,9,184,-44
10,1104,661411,871,-16337,-2616,10,182,-55
10,1105,661416,837,-16296,-2602,5,163,-64
10,1106,661421,898,-16264,-2649,1,129,-67
10,1107,661426,885,-16310,-2816,-5,96,-72
10,1108,661431,894,-16324,-2964,-8,88,-81
10,1109,661436,820,-16302,-3029,-11,94,-88
10,1110,661441,799,-16346,-3033,-17,96,-93
10,1111,661446,898,-16384,-3132,-20,89,-99
10,1112,661451,977,-16386,-3111,-25,96,-113
10,1113,661456,990,-16387,-3140,-29,101,-118
10,1114,661461,893,-16416,-2956,-32,108,-127
10,1115,661466,922,-16393,-2957,-39,91,-132
10,1116,661471,910,-16372,-2970,-42,85,-133
10,1117,661476,928,-16403,-2871,-45,84,-141
10,1118,661481,930,-16383,-2823,-51,80,-143
10,1119,661486,928,-16377,-2719,-54,65,-146
10,1120,661491,949,-16351,-2729,-56,46,-151
10,1121,661496,968,-16342,-2760,-63,35,-153
10,1122,661501,1016,-16337,-2891,-66,29,-160
10,1123,661506,993,-16329,-3074,-66,24,-166
10,1124,661511,896,-16268,-3139,-69,33,-167
10,1125,661516,849,-16199,-3120,-73,34,-169
10,1126,661521,794,-16193,-3040,-77,44,-172
10,1127,661526,830,-16262,-2890,-78,52,-172
10,1128,661531,1003,-16277,-2772,-82,57,-175
10,1129,661536,1068,-16317,-2621,-85,47,-178
10,1130,661541,1038,-16294,-2519,-85,21,-179
10,1131,661546,938,-16244,-2553,-86,-18,-178
10,1132,661551,827,-16210,-2703,-89,-57,-179
10,1133,661556,754,-16234,-2855,-92,-78,-177
10,1134,661561,589,-16176,-2973,-91,-80,-181
10,1135,661566,477,-16109,-3008,-91,-71,-181
10,1136,661571,481,-16103,-3076,-89,-57,-181
10,1137,661576,459,-16126,-3076,-88,-45,-180
10,1138,661581,525,-16129,-2956,-87,-37,-176
10,1139,661586,523,-16173,-2808,-86,-43,-178
10,1140,661591,493,-16194,-2754,-86,-68,-178
10,1141,661596,521,-16191,-2881,-81,-94,-175
10,1142,661601,526,-16201,-3024,-79,-100,-174
10,1143,661606,524,-16292,-3004,-78,-103,-173
10,1144,661611,510,-16283,-3048,-73,-108,-172
10,1145,661616,397,-16240,-3168,-71,-107,-171
10,1146,661621,298,-16240,-3239,-67,-94,-171
10,1147,661626,272,-16188,-3171,-65,-79,-170
10,1148,661631,246,-16129,-3033,-64,-81,-168
10,1149,661636,224,-16058,-3051,-56,-99,-164
10,1150,661641,212,-16044,-3228,-51,-111,-157
10,1151,661646,208,-16034,-3250,-47,-108,-151
10,1152,661651,245,-16013,-3227,-42,-101,-151
10,1153,661656,305,-15994,-3246,-39,-98,-144
10,1154,661661,266,-16024,-3372,-36,-95,-141
10,1155,661666,244,-16041,-3274,-30,-83,-139
10,1156,661671,212,-16048,-3137,-26,-71,-135
10,1157,661676,278,-16055,-3085,-21,-63,-130
10,1158,661681,289,-16095,-3036,-18,-59,-125
10,1159,661686,279,-16102,-2893,-15,-66,-118
10,1160,661691,247,-16044,-3002,-6,-98,-107
10,1161,661696,258,-16101,-3174,-2,-104,-103
10,1162,661701,284,-16136,-3157,1,-99,-97
10,1163,661706,319,-16144,-3140,-1,-99,-89
10,1164,661711,202,-16180,-3093,3,-99,-83
10,1165,661716,231,-16257,-3080,5,-93,-80
10,1166,661721,260,-16333,-3040,4,-77,-75
10,1167,661726,190,-16361,-2899,4,-50,-71
10,1168,661731,160,-16300,-2741,3,-33,-68
10,1169,661736,152,-16256,-2697,3,-28,-65
10,1170,661741,136,-16233,-2636,3,-27,-60
10,1171,661746,183,-16205,-2541,2,-31,-56
10,1172,661751,286,-16171,-2520,-3,-38,-52
10,1173,661756,379,-16183,-2669,-3,-43,-46
10,1174,661761,365,-16163,-2682,-4,-32,-44
10,1175,661766,366,-16130,-2683,-11,-16,-43
10,1176,661771,350,-16076,-2713,-8,-8,-42
10,1177,661776,420,-16051,-2729,-8,5,-37
10,1178,661781,475,-16009,-2767,-12,22,-35
10,1179,661786,564,-15948,-2735,-16,36,-32
10,1180,661791,565,-15932,-2673,-18,37,-30
10,1181,661796,599,-15916,-2657,-18,19,-26
10,1182,661801,718,-15926,-2784,-20,-1,-20
10,1183,661806,724,-15948,-2881,-23,0,-19
10,1184,661811,681,-15988,-2925,-22,6,-18
10,1185,661816,669,-16007,-3024,-25,8,-12
10,1186,661821,627,-15952,-3133,-25,18,-13
10,1187,661826,627,-15967,-3116,-26,35,-10
10,1188,661831,668,-15995,-3042,-28,55,-9
10,1189,661836,808,-16048,-2993,-27,61,-9
10,1190,661841,896,-16105,-2877,-30,57,-4
10,1191,661846,840,-16140,-2719,-29,41,-5
10,1192,661851,719,-16176,-2785,-26,14,-4
10,1193,661856,692,-16150,-2943,-26,1,2
10,1194,661861,723,-16085,-2992,-26,1,5
10,1195,661866,780,-16121,-3014,-29,9,5
10,1196,661871,896,-16142,-2996,-28,7,5
10,1197,661876,895,-16143,-2997,-30,-5,6
10,1198,661881,929,-16153,-3103,-30,-13,10
10,1199,661886,868,-16164,-3167,-26,-4,6
10,1200,661891,807,-16169,-3164,-28,16,5
10,1201,661896,697,-16141,-3142,-29,32,5
10,1202,661901,714,-16148,-3100,-25,38,4
10,1203,661906,789,-16124,-3123,-24,43,5
10,1204,661911,815,-16146,-3041,-24,41,6
10,1205,661916,877,-16202,-2993,-22,33,8
10,1206,661921,864,-16258,-2993,-23,22,9
10,1207,661926,895,-16204,-3056,-22,9,6
10,1208,661931,889,-16179,-3114,-23,3,8
10,1209,661936,867,-16202,-3166,-18,-1,8
10,1210,661941,846,-16220,-3246,-18,4,6
10,1211,661946,893,-16162,-3272,-15,13,7
10,1212,661951,882,-16162,-3259,-17,24,4
10,1213,661956,825,-16145,-3131,-16,36,1
10,1214,661961,807,-16136,-3132,-12,38,1
10,1215,661966,817,-16073,-3137,-11,39,-1
10,1216,661971,829,-16067,-3131,-9,40,-1
10,1217,661976,878,-16054,-3144,-5,38,1
10,1218,661981,911,-16027,-3224,-2,29,1
10,1219,661986,968,-16070,-3216,0,21,-1
10,1220,661991,991,-16088,-3194,-2,17,-1
10,1221,661996,977,-16066,-3188,2,19,-2
10,1222,662001,927,-16068,-3154,3,31,-5
10,1223,662006,893,-16032,-3120,3,40,-4
10,1224,662011,836,-16000,-3063,6,40,-5
10,1225,662016,789,-15968,-3013,7,30,-6
10,1226,662021,765,-15971,-3088,7,25,-7
10,1227,662026,760,-16003,-3056,8,20,-7
10,1228,662031,753,-16017,-2971,10,15,-9
10,1229,662036,728,-16046,-2910,14,8,-11
10,1230,662041,791,-16057,-2961,12,3,-14
10,1231,662046,840,-16152,-2962,13,-1,-14
10,1232,662051,871,-16144,-2951,15,-18,-14
10,1233,662056,850,-16123,-3064,14,-50,-14
10,1234,662061,841,-16167,-3251,15,-53,-14
10,1235,662066,901,-16188,-3301,16,-44,-15
10,1236,662071,929,-16172,-3271,17,-33,-19
10,1237,662076,871,-16153,-3224,16,-29,-23
10,1238,662081,829,-16118,-3203,17,-28,-18
10,1239,662086,885,-16103,-3261,16,-12,-18
10,1240,662091,918,-16117,-3248,15,15,-22
10,1241,662096,863,-16107,-3085,11,30,-26
10,1242,662101,866,-16078,-2985,13,31,-23
10,1243,662106,854,-16061,-3030,13,29,-23
10,1244,662111,937,-16072,-3082,11,36,-25
10,1245,662116,982,-16054,-2978,11,46,-23
10,1246,662121,979,-16053,-2875,10,49,-22
10,1247,662126,946,-15998,-2887,6,42,-22
10,1248,662131,913,-15964,-2978,5,35,-23
10,1249,662136,882,-15983,-2960,5,34,-22
10,1250,662141,911,-15983,-3018,3,31,-25
10,1251,662146,939,-15984,-3068,2,26,-22
10,1252,662151,935,-15981,-3092,3,16,-22
10,1253,662156,945,-16033,-3122,1,10,-23
10,1254,662161,965,-16033,-3197,-1,14,-23
10,1255,662166,904,-16091,-3167,-2,26,-24
10,1256,662171,817,-16096,-3098,-3,30,-25
10,1257,662176,880,-16124,-3111,-1,29,-23
10,1258,662181,856,-16185,-3071,-2,31,-22
10,1259,662186,886,-16200,-3023,-3,29,-21
10,1260,662191,896,-16241,-3006,-3,19,-22
10,1261,662196,908,-16280,-3015,-4,18,-21
10,1262,662201,910,-16282,-3034,-5,22,-24
10,1263,662206,911,-16272,-2923,-8,24,-27
10,1264,662211,879,-16260,-2941,-8,21,-25
10,1265,662216,915,-16268,-2921,-9,11,-24
10,1266,662221,860,-16255,-2911,-10,7,-27
10,1267,662226,720,-16177,-2806,-11,9,-31
10,1268,662231,726,-16161,-2783,-13,4,-32
10,1269,662236,777,-16154,-2872,-13,0,-29
10,1270,662241,906,-16165,-2970,-14,-7,-28
10,1271,662246,944,-16207,-2988,-13,-13,-28
10,1272,662251,910,-16193,-2978,-16,-19,-33
10,1273,662256,879,-16129,-3097,-14,-21,-33
10,1274,662261,878,-16105,-3256,-12,-13,-33
10,1275,662266,918,-16103,-3223,-17,-1,-35
10,1276,662271,968,-16135,-3145,-15,13,-37
10,1277,662276,1000,-16167,-3060,-15,10,-37
10,1278,662281,996,-16174,-3037,-19,-3,-37
10,1279,662286,910,-16191,-2991,-14,-16,-39
10,1280,662291,830,-16171,-2921,-12,-25,-38
10,1281,662296,873,-16147,-2962,-12,-29,-38
10,1282,662301,941,-16165,-2953,-13,-34,-39
10,1283,662306,1027,-16205,-3000,-13,-39,-42
10,1284,662311,986,-16214,-3000,-12,-52,-42
10,1285,662316,955,-16212,-3025,-13,-61,-43
10,1286,662321,958,-16161,-3050,-13,-63,-44
10,1287,662326,923,-16122,-3096,-13,-56,-44
10,1288,662331,901,-16135,-3078,-16,-45,-46
10,1289,662336,801,-16136,-3131,-14,-36,-46
10,1290,662341,836,-16109,-3174,-13,-33,-45
10,1291,662346,877,-16055,-3116,-11,-21,-44
10,1292,662351,946,-16086,-3024,-13,-16,-42
10,1293,662356,955,-16147,-3026,-12,-20,-43
10,1294,662361,1005,-16137,-3133,-10,-25,-42
10,1295,662366,1009,-16159,-3215,-10,-25,-42
10,1296,662371,963,-16173,-3245,-9,-21,-44
10,1297,662376,929,-16144,-3256,-8,-18,-42
10,1298,662381,874,-16111,-3190,-8,-14,-39
10,1299,662386,881,-16080,-3180,-11,-7,-40
10,1300,662391,977,-16127,-3184,-7,7,-40
10,1301,662396,1023,-16077,-3039,-6,22,-38
10,1302,662401,1015,-16060,-2838,-9,18,-39
10,1303,662406,961,-16045,-2815,-8,-3,-37
10,1304,662411,926,-15988,-2906,-8,-17,-32
10,1305,662416,971,-15996,-2992,-6,-22,-29
10,1306,662421,888,-15999,-3039,-4,-27,-27
10,1307,662426,856,-16004,-3166,-6,-28,-22
10,1308,662431,840,-15997,-3252,-5,-22,-21
10,1309,662436,915,-16093,-3265,-5,-8,-20
10,1310,662441,959,-16145,-3221,-6,8,-19
10,1311,662446,914,-16085,-3148,-4,13,-17
10,1312,662451,883,-16057,-3187,-2,11,-17
10,1313,662456,833,-16079,-3211,-1,12,-14
10,1314,662461,886,-16113,-3149,-2,13,-10
10,1315,662466,913,-16119,-3032,-2,13,-7
10,1316,662471,853,-16089,-3019,0,-2,-7
10,1317,662476,835,-16063,-3064,1,-23,-6
10,1318,662481,827,-16091,-3147,5,-33,1
10,1319,662486,832,-16125,-3202,5,-33,3
10,1320,662491,957,-16127,-3253,3,-32,3
10,1321,662496,972,-16138,-3211,5,-30,6
10,1322,662501,933,-16151,-3297,5,-29,7
10,1323,662506,901,-16073,-3305,6,-27,9
10,1324,662511,967,-16083,-3279,5,-18,10
10,1325,662516,988,-16119,-3184,6,-10,9
10,1326,662521,964,-16152,-3122,8,-1,11
10,1327,662526,977,-16143,-3073,9,3,12
10,1328,662531,958,-16105,-3065,6,14,11
10,1329,662536,901,-16047,-3013,5,21,14
10,1330,662541,885,-16015,-3026,5,15,15
10,1331,662546,956,-16055,-3148,3,10,17
10,1332,662551,885,-16002,-3195,5,12,19
10,1333,662556,831,-15962,-3093,3,18,17
10,1334,662561,853,-15986,-3130,5,12,22
10,1335,662566,918,-16007,-3182,2,4,22
10,1336,662571,925,-16028,-3208,2,10,20
10,1337,662576,967,-16105,-3084,3,12,21
10,1338,662581,964,-16144,-3063,4,3,23
10,1339,662586,911,-16151,-3129,4,-6,24
10,1340,662591,979,-16181,-3289,0,-13,23
10,1341,662596,949,-16226,-3277,0,-8,19
10,1342,662601,871,-16192,-3215,0,-3,18
10,1343,662606,870,-16201,-3222,1,2,20
10,1344,662611,905,-16184,-3251,2,10,18
10,1345,662616,893,-16199,-3291,-1,21,16
10,1346,662621,920,-16181,-3231,-1,30,16
10,1347,662626,948,-16141,-3217,0,32,15
10,1348,662631,949,-16139,-3224,-4,31,10
10,1349,662636,915,-16068,-3236,-3,34,11
10,1350,662641,923,-16073,-3288,-1,42,10
10,1351,662646,933,-16059,-3227,-3,52,9
10,1352,662651,901,-16071,-3237,-3,62,9
10,1353,662656,901,-16036,-3234,-6,65,9
10,1354,662661,960,-16026,-3143,-6,65,6
10,1355,662666,939,-16008,-3139,-1,67,2
10,1356,662671,939,-15981,-3099,-3,64,-1
10,1357,662676,945,-15981,-3089,-5,53,3
10,1358,662681,959,-15996,-3141,-3,45,-1
10,1359,662686,982,-16005,-3083,-2,32,-2
10,1360,662691,996,-16027,-3038,-3,13,-1
10,1361,662696,1064,-16061,-3082,-3,-8,1
10,1362,662701,1096,-16053,-3113,0,-20,1
10,1363,662706,1041,-16086,-3133,0,-26,-1
10,1364,662711,1040,-16106,-3200,-3,-26,-5
10,1365,662716,1080,-16109,-3304,-5,-22,-6
10,1366,662721,1075,-16079,-3249,-2,-11,-7
10,1367,662726,996,-16026,-3192,-5,-3,-8
10,1368,662731,994,-16027,-3101,-3,-5,-6
10,1369,662736,1093,-16028,-3095,-3,-9,-9
10,1370,662741,1062,-16086,-3100,-4,-9,-9
10,1371,662746,1031,-16103,-3120,-2,-14,-10
10,1372,662751,1021,-16067,-3213,-2,-19,-10
10,1373,662756,1017,-16089,-3300,-2,-19,-11
10,1374,662761,1093,-16132,-3312,-2,-12,-12
10,1375,662766,1151,-16125,-3250,-3,-3,-12
10,1376,662771,1100,-16133,-3258,-3,-3,-10
10,1377,662776,1111,-16145,-3337,-2,-3,-9
10,1378,662781,1123,-16136,-3257,1,6,-12
10,1379,662786,1046,-16107,-3125,0,8,-14
10,1380,662791,1006,-16134,-3139,-4,1,-14
10,1381,662796,1086,-16135,-3144,-2,-7,-12
10,1382,662801,1069,-16091,-3116,-2,-14,-12
10,1383,662806,1081,-16123,-3163,-3,-18,-14
10,1384,662811,1061,-16149,-3207,-2,-21,-13
10,1385,662816,1027,-16157,-3210,1,-20,-12
10,1386,662821,999,-16147,-3266,-1,-9,-13
10,1387,662826,1011,-16155,-3220,-4,8,-13
10,1388,662831,1002,-16140,-3171,-5,14,-11
10,1389,662836,1021,-16122,-3107,-2,14,-10
10,1390,662841,1122,-16167,-3116,-1,9,-9
10,1391,662846,1102,-16162,-3088,-2,-3,-6
10,1392,662851,1043,-16138,-3030,-3,-13,-8
10,1393,662856,1031,-16119,-3113,-2,-21,-4
10,1394,662861,1023,-16140,-3179,-2,-18,-5
10,1395,662866,1043,-16115,-3175,0,-16,-2
10,1396,662871,1007,-16116,-3132,-2,-16,0
10,1397,662876,915,-16047,-3199,-2,-10,0
10,1398,662881,964,-16094,-3265,-2,4,3
10,1399,662886,1044,-16140,-3135,-5,21,1
10,1400,662891,1008,-16135,-2978,-6,23,2
10,1401,662896,964,-16094,-2950,-3,7,4
10,1402,662901,953,-16088,-3034,-4,-4,5
10,1403,662906,910,-16096,-3059,-2,-11,6
10,1404,662911,914,-16090,-3032,-4,-12,10
10,1405,662916,955,-16104,-3061,-5,-14,8
10,1406,662921,968,-16078,-3031,-3,-21,9
10,1407,662926,978,-16076,-3113,-3,-28,12
10,1408,662931,979,-16100,-3186,-5,-27,15
10,1409,662936,979,-16083,-3169,-5,-19,15
10,1410,662941,992,-16078,-3097,-6,-17,16
10,1411,662946,1001,-16120,-3041,-9,-23,17
10,1412,662951,1020,-16079,-3074,-8,-27,18
10,1413,662956,995,-16091,-3033,-8,-31,17
10,1414,662961,982,-16044,-3059,-10,-28,21
10,1415,662966,938,-16068,-3111,-9,-24,20
10,1416,662971,953,-16072,-3110,-7,-17,21
10,1417,662976,915,-16071,-3053,-7,-4,23
10,1418,662981,993,-16067,-3031,-9,5,21
10,1419,662986,1014,-16081,-3006,-11,10,22
10,1420,662991,995,-16051,-3016,-9,12,21
10,1421,662996,963,-16073,-3100,-10,11,20
10,1422,663001,956,-16083,-3084,-12,15,22
10,1423,663006,1032,-16098,-3126,-10,14,23
10,1424,663011,1035,-16094,-3167,-9,13,21
10,1425,663016,957,-16077,-3247,-11,11,20
10,1426,663021,937,-16100,-3191,-12,12,22
10,1427,663026,921,-16130,-3083,-11,13,22
10,1428,663031,982,-16153,-3025,-10,6,20
10,1429,663036,1053,-16152,-3114,-9,-2,21
10,1430,663041,1098,-16188,-3218,-8,-10,24
10,1431,663046,1064,-16168,-3262,-8,-5,20
10,1432,663051,1030,-16138,-3233,-8,2,18
10,1433,663056,968,-16155,-3232,-7,4,20
10,1434,663061,1007,-16138,-3222,-10,4,19
10,1435,663066,1027,-16177,-3212,-9,9,18
10,1436,663071,1033,-16197,-3181,-5,18,15
10,1437,663076,966,-16159,-3122,-4,24,13
10,1438,663081,910,-16095,-3151,-6,25,11
10,1439,663086,912,-16068,-3159,-5,20,11
10,1440,663091,945,-16074,-3124,-3,20,7
10,1441,663096,966,-16103,-3109,-2,16,7
10,1442,663101,985,-16090,-3193,1,10,7
10,1443,663106,1034,-16090,-3266,2,4,5
10,1444,663111,1080,-16127,-3322,3,6,2
10,1445,663116,1153,-16144,-3242,2,11,0
10,1446,663121,1089,-16172,-3267,3,7,-1
10,1447,663126,998,-16140,-3292,6,2,-5
10,1448,663131,960,-16095,-3304,5,0,-8
10,1449,663136,928,-16087,-3248,5,5,-9
10,1450,663141,947,-16093,-3194,4,10,-9
10,1451,663146,1009,-16105,-3168,4,13,-11
10,1452,663151,1026,-16093,-3095,4,9,-12
10,1453,663156,974,-16084,-3151,8,3,-15
10,1454,663161,949,-16049,-3155,8,3,-17
10,1455,663166,922,-16055,-3161,8,0,-18
10,1456,663171,890,-16073,-3212,9,-7,-19
10,1457,663176,936,-16097,-3306,9,-10,-22
10,1458,663181,939,-16057,-3294,8,-7,-23
10,1459,663186,897,-16073,-3303,9,-8,-20
10,1460,663191,979,-16116,-3325,10,-9,-25
10,1461,663196,1022,-16118,-3336,10,-8,-25
10,1462,663201,977,-16110,-3276,7,-2,-25
10,1463,663206,932,-16132,-3186,7,4,-26
10,1464,663211,968,-16121,-3128,6,6,-26
10,1465,663216,987,-16147,-3077,3,10,-25
10,1466,663221,958,-16198,-2931,2,12,-26
10,1467,663226,1005,-16159,-2936,2,11,-31
10,1468,663231,1011,-16181,-3003,2,3,-30
10,1469,663236,960,-16189,-2842,-1,0,-28
10,1470,663241,969,-16178,-2794,-2,-15,-27
10,1471,663246,959,-16145,-2797,-2,-29,-26
10,1472,663251,985,-16178,-2861,-4,-37,-27
10,1473,663256,1057,-16183,-2883,-5,-49,-24
10,1474,663261,1048,-16164,-2973,-5,-57,-21
10,1475,663266,1063,-16182,-3034,-5,-68,-17
10,1476,663271,1093,-16197,-3125,-11,-73,-19
10,1477,663276,1094,-16199,-3268,-11,-79,-15
10,1478,663281,1071,-16200,-3196,-11,-65,-14
10,1479,663286,1070,-16196,-3233,-14,-53,-15
10,1480,663291,1051,-16125,-3279,-14,-46,-15
10,1481,663296,1019,-16131,-3253,-14,-39,-13
10,1482,663301,1041,-16133,-3229,-15,-31,-12
10,1483,663306,1037,-16102,-3167,-15,-28,-9
10,1484,663311,1065,-16101,-3221,-17,-27,-8
10,1485,663316,1035,-16086,-3219,-16,-27,-6
10,1486,663321,1050,-16087,-3185,-17,-24,-6
10,1487,663326,1006,-16103,-3169,-16,-30,-6
10,1488,663331,952,-16059,-3259,-13,-35,-3
10,1489,663336,918,-16077,-3348,-14,-36,-2
10,1490,663341,895,-16093,-3370,-15,-31,-2
10,1491,663346,896,-16052,-3359,-11,-21,-3
10,1492,663351,966,-16061,-3429,-12,-11,-1
10,1493,663356,929,-16024,-3344,-12,-8,-1
10,1494,663361,922,-16054,-3263,-10,-5,-1
10,1495,663366,958,-16085,-3306,-10,-5,0
10,1496,663371,957,-16070,-3248,-11,-5,2
10,1497,663376,983,-16063,-3156,-8,-1,3
10,1498,663381,933,-16042,-3117,-7,-3,-1
10,1499,663386,915,-16044,-3095,-8,-7,1
10,1500,663391,922,-16048,-3225,-5,-7,5
10,1501,663396,996,-16060,-3216,-3,1,3
10,1502,663401,976,-16081,-3240,-5,5,1
10,1503,663406,933,-16037,-3183,-7,6,1
10,1504,663411,916,-16029,-3152,-10,0,3
10,1505,663416,936,-16052,-3128,-7,-1,1
10,1506,663421,920,-16048,-3121,-4,-3,2
10,1507,663426,972,-16092,-3177,-1,-6,6
10,1508,663431,990,-16089,-3207,-3,-9,5
10,1509,663436,933,-16092,-3201,-3,-12,3
10,1510,663441,963,-16066,-3269,-2,-12,2
10,1511,663446,1006,-16133,-3315,0,-13,2
10,1512,663451,1011,-16158,-3255,1,-10,0
10,1513,663456,1023,-16118,-3214,0,-6,3
10,1514,663461,956,-16091,-3213,3,-1,-1
10,1515,663466,967,-16051,-3179,3,-1,-2
10,1516,663471,978,-16020,-3158,2,1,-1
10,1517,663476,1005,-16056,-3106,3,-1,-3
10,1518,663481,1035,-16048,-3068,3,-7,-1
10,1519,663486,997,-16041,-3100,4,-15,1
10,1520,663491,1020,-16013,-3136,3,-16,-1
10,1521,663496,1057,-16013,-3161,3,-12,-3
10,1522,663501,1079,-16040,-3119,4,-10,0
10,1523,663506,1027,-16050,-3170,5,-12,-2
10,1524,663511,1015,-16020,-3195,6,-6,-7
10,1525,663516,1019,-15994,-3246,6,5,-6
10,1526,663521,1126,-16083,-3127,5,5,-8
10,1527,663526,1145,-16064,-3122,5,-11,-6
10,1528,663531,1140,-16078,-3113,2,-20,-8
10,1529,663536,1035,-16074,-3153,3,-30,-7
10,1530,663541,998,-16059,-3216,4,-32,-8
10,1531,663546,1024,-16041,-3219,6,-22,-8
10,1532,663551,1078,-16112,-3297,8,-12,-9
10,1533,663556,1104,-16144,-3312,6,0,-8
10,1534,663561,1041,-16116,-3231,6,5,-10
10,1535,663566,977,-16130,-3159,3,11,-11
10,1536,663571,1010,-16107,-3133,4,21,-13
10,1537,663576,996,-16097,-3137,4,34,-17
10,1538,663581,1031,-16098,-3082,4,35,-15
10,1539,663586,997,-16090,-3028,4,25,-17
10,1540,663591,983,-16087,-3059,3,7,-15
10,1541,663596,1047,-16066,-3192,4,-6,-13
10,1542,663601,1032,-16099,-3185,4,-5,-13
10,1543,663606,989,-16119,-3261,3,-1,-15
10,1544,663611,1020,-16134,-3344,1,-1,-14
10,1545,663616,1012,-16105,-3359,1,3,-15
10,1546,663621,962,-16138,-3344,4,7,-17
10,1547,663626,983,-16159,-3338,5,13,-15
10,1548,663631,992,-16159,-3209,2,13,-16
10,1549,663636,1010,-16182,-3177,4,9,-18
10,1550,663641,1043,-16190,-3161,2,2,-18
10,1551,663646,1044,-16188,-3109,3,-5,-18
10,1552,663651,1015,-16180,-3148,4,-13,-15
10,1553,663656,990,-16187,-3161,4,-25,-15
10,1554,663661,1016,-16177,-3195,3,-36,-14
10,1555,663666,1083,-16182,-3175,3,-32,-16
10,1556,663671,1048,-16209,-3172,1,-30,-14
10,1557,663676,1003,-16178,-3198,-1,-28,-14
10,1558,663681,947,-16123,-3272,1,-23,-14
10,1559,663686,923,-16093,-3233,-1,-13,-13
10,1560,663691,941,-16085,-3242,-2,-4,-13
10,1561,663696,982,-16099,-3235,-7,5,-12
10,1562,663701,996,-16143,-3180,-6,13,-12
10,1563,663706,936,-16092,-3211,-2,17,-9
10,1564,663711,955,-16096,-3262,-4,16,-10
10,1565,663716,1001,-16125,-3216,-4,14,-9
10,1566,663721,987,-16110,-3194,-5,12,-9
10,1567,663726,1027,-16124,-3176,-6,11,-9
10,1568,663731,1022,-16153,-3199,-5,12,-9
10,1569,663736,1020,-16103,-3188,-7,17,-8
10,1570,663741,1050,-16040,-3164,-7,12,-6
10,1571,663746,1024,-16097,-3140,-7,10,-7
10,1572,663751,951,-16104,-3183,-5,6,-3
10,1573,663756,968,-16055,-3192,-6,5,-1
10,1574,663761,952,-16065,-3188,-8,5,-4
10,1575,663766,936,-16066,-3257,-6,5,-3
10,1576,663771,979,-16010,-3279,-6,1,-3
10,1577,663776,977,-15996,-3268,-6,-4,-4
10,1578,663781,997,-16060,-3365,-5,-10,-4
10,1579,663786,1014,-16053,-3277,-7,-9,-2
10,1580,663791,1034,-16073,-3281,-3,-7,-3
10,1581,663796,1097,-16073,-3311,-3,-6,-2
10,1582,663801,1037,-16089,-3340,-3,-2,-1
10,1583,663806,1086,-16144,-3300,0,3,-2
10,1584,663811,1034,-16078,-3223,-1,7,-6
10,1585,663816,957,-16077,-3227,-1,3,-5
10,1586,663821,966,-16041,-3240,-1,2,-7
10,1587,663826,987,-16002,-3212,2,8,-5
10,1588,663831,928,-15984,-3199,-2,14,-5
10,1589,663836,916,-16025,-3135,0,11,-7
10,1590,663841,971,-16011,-3159,-1,0,-1
10,1591,663846,995,-16027,-3234,2,1,-5
10,1592,663851,1001,-16030,-3286,2,6,-6
10,1593,663856,993,-16019,-3264,1,10,-6
10,1594,663861,1019,-16042,-3238,2,6,-7
10,1595,663866,1042,-16083,-3253,0,4,-9
10,1596,663871,1021,-16092,-3223,-2,5,-5
10,1597,663876,1047,-16090,-3203,2,6,-4
10,1598,663881,1042,-16076,-3211,0,2,-9
10,1599,663886,1005,-16063,-3221,2,-6,-6
