event_id,seq,ts_ms,ax,ay,az,gx,gy,gz
7,0,430468,249,-16274,1702,4,-196,3
7,1,430473,295,-16324,1731,4,-184,5
7,2,430478,282,-16350,1721,5,-158,7
7,3,430483,131,-16396,1624,8,-119,7
7,4,430488,44,-16333,1516,8,-74,6
7,5,430493,46,-16326,1516,9,-31,5
7,6,430498,62,-16320,1647,11,6,6
7,7,430503,102,-16380,1760,10,36,7
7,8,430508,43,-16417,1753,12,64,5
7,9,430513,-76,-16470,1883,15,92,3
7,10,430518,-212,-16453,1963,13,106,0
7,11,430523,-186,-16432,2022,16,99,4
7,12,430528,-128,-16416,2076,19,77,10
7,13,430533,-26,-16438,2181,20,40,12
7,14,430538,36,-16516,2313,21,5,12
7,15,430543,67,-16566,2418,20,-27,17
7,16,430548,177,-16597,2399,24,-65,24
7,17,430553,281,-16601,2335,23,-103,26
7,18,430558,389,-16609,2377,25,-140,31
7,19,430563,471,-16648,2338,24,-180,39
7,20,430568,447,-16654,2177,22,-212,43
7,21,430573,434,-16660,1904,24,-231,46
7,22,430578,286,-16805,1748,26,-226,51
7,23,430583,73,-16808,1782,26,-199,50
7,24,430588,-103,-16781,1737,24,-170,51
7,25,430593,-119,-16774,1611,26,-133,52
7,26,430598,-106,-16789,1488,28,-83,51
7,27,430603,-107,-16775,1423,31,-31,47
7,28,430608,-54,-16754,1658,25,12,46
7,29,430613,39,-16786,1849,27,38,46
7,30,430618,92,-16776,1828,30,56,49
7,31,430623,-14,-16780,1853,29,79,47
7,32,430628,-268,-16704,1940,30,95,47
7,33,430633,-357,-16658,2059,29,98,46
7,34,430638,-349,-16640,2114,29,81,48
7,35,430643,-244,-16683,2131,30,59,49
7,36,430648,-177,-16763,2091,29,50,50
7,37,430653,-101,-16800,2097,29,46,52
7,38,430658,-49,-16851,2054,31,50,52
7,39,430663,-36,-16872,1836,34,52,54
7,40,430668,-83,-16802,1706,32,61,55
7,41,430673,-157,-16686,1760,33,77,57
7,42,430678,-307,-16610,1774,33,95,59
7,43,430683,-439,-16467,1546,31,117,54
7,44,430688,-645,-16326,1508,36,151,47
7,45,430693,-877,-16181,1772,32,169,46
7,46,430698,-1154,-15932,2227,27,162,39
7,47,430703,-323,-15855,2117,35,138,50
7,48,430708,134,-15875,2079,40,134,37
7,49,430713,-207,-15921,2739,35,110,32
7,50,430718,-387,-15911,2904,30,7,42
7,51,430723,-72,-15982,2618,38,-98,58
7,52,430728,141,-16039,2046,42,-131,62
7,53,430733,18,-15974,2064,41,-97,48
7,54,430738,-108,-15449,2119,41,-88,44
7,55,430743,-272,-15620,2087,42,-118,55
7,56,430748,-103,-16088,1765,42,-162,64
7,57,430753,-376,-16343,1564,40,-167,61
7,58,430758,-607,-16659,1529,39,-111,54
7,59,430763,-823,-16699,1276,44,-46,49
7,60,430768,-543,-16695,1145,49,33,45
7,61,430773,-595,-16554,1371,50,92,35
7,62,430778,-610,-16437,1757,48,107,28
7,63,430783,-624,-16299,1843,47,105,31
7,64,430788,-486,-16257,1669,47,136,30
7,65,430793,-344,-16225,1751,52,197,20
7,66,430798,-394,-16111,2110,53,239,13
7,67,430803,-316,-16090,2475,53,222,14
7,68,430808,-86,-16092,2460,51,155,21
7,69,430813,46,-16072,2337,55,96,25
7,70,430818,-56,-16074,2357,57,63,25
7,71,430823,-226,-16057,2468,55,43,24
7,72,430828,-266,-16032,2608,54,17,27
7,73,430833,-171,-16032,2505,57,-23,31
7,74,430838,-76,-16028,2206,55,-46,37
7,75,430843,-217,-16021,2013,54,-44,34
7,76,430848,-338,-16053,1875,51,-26,28
7,77,430853,-387,-16162,1655,53,1,27
7,78,430858,-291,-16289,1535,54,45,29
7,79,430863,-303,-16375,1561,50,111,26
7,80,430868,-508,-16478,1566,52,181,22
7,81,430873,-751,-16511,1651,53,248,12
7,82,430878,-1032,-16600,1827,50,312,5
7,83,430883,-1165,-16606,1849,52,363,2
7,84,430888,-956,-16675,1848,56,397,-2
7,85,430893,-682,-16647,2022,58,410,-5
7,86,430898,-544,-16655,2392,57,405,-8
7,87,430903,-592,-16746,2682,58,356,-9
7,88,430908,-707,-16774,2444,62,281,0
7,89,430913,-794,-16770,1759,68,221,8
7,90,430918,-666,-16702,1285,74,204,12
7,91,430923,-387,-16637,1545,75,207,13
7,92,430928,-91,-16676,1922,71,222,18
7,93,430933,-45,-16738,1627,76,267,25
7,94,430938,-21,-16900,594,84,370,25
7,95,430943,-29,-17020,12,91,554,21
7,96,430948,-97,-16921,618,87,752,16
7,97,430953,-112,-16812,1497,86,886,16
7,98,430958,-359,-16755,1671,92,963,13
7,99,430963,-674,-16682,1167,98,1035,20
7,100,430968,-990,-16596,1269,99,1127,21
7,101,430973,-954,-16589,2124,103,1170,21
7,102,430978,-677,-16610,3171,109,1123,33
7,103,430983,-293,-16693,3481,115,983,60
7,104,430988,-33,-16792,3525,120,839,74
7,105,430993,-198,-16687,3671,124,716,90
7,106,430998,-224,-16500,3698,124,588,113
7,107,431003,-68,-16384,3675,129,458,139
7,108,431008,39,-16370,3331,134,314,165
7,109,431013,97,-16416,2937,140,188,192
7,110,431018,-175,-16528,2453,140,107,214
7,111,431023,-464,-16687,1916,146,81,236
7,112,431028,-751,-16658,1419,153,134,248
7,113,431033,-1054,-16639,1034,155,251,255
7,114,431038,-1675,-16637,935,159,396,256
7,115,431043,-1831,-16453,877,166,530,264
7,116,431048,-1646,-16548,1032,176,655,277
7,117,431053,-1258,-16573,1827,180,755,288
7,118,431058,-1201,-16446,2811,179,792,297
7,119,431063,-1537,-16274,3299,186,759,307
7,120,431068,-1624,-16140,3091,199,572,362
7,121,431073,-1318,-15992,3319,204,491,388
7,122,431078,-1221,-15887,3667,211,397,409
7,123,431083,-1323,-15770,3412,213,286,434
7,124,431088,-1620,-15714,2872,219,215,459
7,125,431093,-1976,-15717,2488,225,197,482
7,126,431098,-2053,-15701,2446,227,228,500
7,127,431103,-1956,-15674,2361,235,282,519
7,128,431108,-1780,-15684,2228,240,344,534
7,129,431113,-1816,-15659,2332,240,403,547
7,130,431118,-2127,-15576,2590,241,445,559
7,131,431123,-2346,-15564,2688,245,477,578
7,132,431128,-2372,-15568,2621,253,514,598
7,133,431133,-2271,-15613,2943,254,560,618
7,134,431138,-2250,-15598,3349,260,569,631
7,135,431143,-2408,-15490,3518,262,534,644
7,136,431148,-2618,-15369,3479,264,480,668
7,137,431153,-2835,-15444,3606,266,445,693
7,138,431158,-2979,-15384,3703,269,415,708
7,139,431163,-2937,-15418,3870,273,386,723
7,140,431168,-3021,-15445,3768,276,338,739
7,141,431173,-2971,-15430,3681,282,280,763
7,142,431178,-2853,-15468,3600,280,224,784
7,143,431183,-2870,-15462,3470,282,190,802
7,144,431188,-3201,-15469,3133,286,190,811
7,145,431193,-3559,-15528,2823,290,227,826
7,146,431198,-3548,-15571,2745,295,283,838
7,147,431203,-3481,-15679,2989,295,332,845
7,148,431208,-3509,-15809,3262,298,356,853
7,149,431213,-3716,-15851,3363,302,364,860
7,150,431218,-3864,-15816,3419,304,365,870
7,151,431223,-3848,-15777,3627,306,363,884
7,152,431228,-3864,-15738,4050,307,347,892
7,153,431233,-3854,-15660,4260,308,295,903
7,154,431238,-3789,-15553,4220,312,214,924
7,155,431243,-3775,-15494,4167,312,131,942
7,156,431248,-3809,-15510,4102,316,56,960
7,157,431253,-3664,-15467,3773,322,0,980
7,158,431258,-3499,-15467,3293,326,-21,994
7,159,431263,-3517,-15452,3024,328,-6,1004
7,160,431268,-3895,-15391,2952,329,30,1009
7,161,431273,-4491,-15376,2885,326,83,1018
7,162,431278,-4866,-15422,2788,333,155,1026
7,163,431283,-4838,-15338,2881,337,244,1023
7,164,431288,-4549,-15236,3421,341,319,1025
7,165,431293,-4168,-15198,4096,339,336,1036
7,166,431298,-4137,-15144,4405,337,291,1052
7,167,431303,-4299,-15119,4032,340,209,1068
7,168,431308,-4568,-15102,3655,344,167,1082
7,169,431313,-4860,-15050,3544,345,165,1095
7,170,431318,-5023,-15027,3707,345,178,1104
7,171,431323,-4969,-15070,3662,345,179,1112
7,172,431328,-4870,-15117,3420,353,179,1125
7,173,431333,-4976,-15154,3335,352,196,1128
7,174,431338,-5387,-15104,3486,348,220,1127
7,175,431343,-5709,-15124,3397,348,248,1135
7,176,431348,-5878,-15112,3636,352,304,1137
7,177,431353,-5905,-15035,3976,349,329,1141
7,178,431358,-5655,-14980,4353,350,300,1150
7,179,431363,-5390,-15076,4582,350,244,1164
7,180,431368,-5492,-15124,4725,349,207,1170
7,181,431373,-5765,-15027,4628,350,158,1179
7,182,431378,-5894,-14886,4221,352,99,1188
7,183,431383,-5998,-14831,3902,350,46,1199
7,184,431388,-6016,-14787,4000,349,25,1211
7,185,431393,-5751,-14767,3639,348,17,1220
7,186,431398,-5562,-14723,3272,352,53,1228
7,187,431403,-5624,-14784,3177,350,129,1236
7,188,431408,-6047,-14645,3417,345,201,1233
7,189,431413,-6570,-14648,3542,345,249,1233
7,190,431418,-7134,-14671,3786,343,304,1235
7,191,431423,-7559,-14882,4448,344,352,1241
7,192,431428,-7193,-14910,5001,351,326,1248
7,193,431433,-6616,-14649,5524,349,83,1259
7,194,431438,-7090,-14624,5415,346,-101,1279
7,195,431443,-7217,-14527,4717,347,-264,1305
7,196,431448,-6975,-14454,3715,353,-327,1324
7,197,431453,-6815,-14463,2871,360,-252,1323
7,198,431458,-7371,-14315,2892,358,-108,1306
7,199,431463,-7910,-14094,2689,356,-4,1304
7,200,431468,-8082,-14033,2813,355,122,1309
7,201,431473,-7603,-14150,3428,357,275,1316
7,202,431478,-7057,-14117,4302,357,389,1311
7,203,431483,-7050,-14001,5005,353,404,1306
7,204,431488,-7861,-13878,5272,343,330,1308
7,205,431493,-8497,-13798,5115,343,225,1328
7,206,431498,-8571,-13869,5166,343,164,1343
7,207,431503,-8193,-14002,5194,345,122,1351
7,208,431508,-8086,-13974,5285,350,63,1346
7,209,431513,-8344,-13824,5157,347,-27,1350
7,210,431518,-8540,-13582,4758,346,-125,1364
7,211,431523,-8516,-13569,4163,348,-161,1380
7,212,431528,-8684,-13473,4070,350,-130,1378
7,213,431533,-8992,-13332,4154,355,-88,1372
7,214,431538,-9099,-13259,4146,355,-71,1372
7,215,431543,-8998,-13388,4294,360,-55,1382
7,216,431548,-8840,-13422,4190,362,-30,1382
7,217,431553,-9048,-13274,4410,364,7,1374
7,218,431558,-9434,-13057,4548,363,18,1373
7,219,431563,-9574,-13042,4610,366,6,1378
7,220,431568,-9566,-13069,4699,364,3,1380
7,221,431573,-9525,-13053,4957,366,32,1379
7,222,431578,-9431,-12767,5046,369,49,1383
7,223,431583,-9865,-13397,4931,371,45,1422
7,224,431588,-9996,-13201,5113,376,35,1385
7,225,431593,-10067,-12669,5238,373,12,1366
7,226,431598,-10385,-12779,5400,378,-17,1387
7,227,431603,-10303,-12328,5485,378,-40,1372
7,228,431608,-10007,-12237,5412,382,-58,1383
7,229,431613,-9933,-12038,5488,379,-63,1377
7,230,431618,-10581,-12080,5438,382,-69,1374
7,231,431623,-10959,-11884,4944,382,-80,1373
7,232,431628,-11008,-11821,4602,385,-29,1376
7,233,431633,-10974,-11764,4707,381,38,1371
7,234,431638,-10937,-11892,5082,376,90,1363
7,235,431643,-10999,-11665,5388,374,133,1357
7,236,431648,-11116,-12265,5383,382,149,1379
7,237,431653,-10898,-11869,5460,381,170,1344
7,238,431658,-10966,-11952,5504,383,142,1351
7,239,431663,-11223,-11851,5587,384,81,1343
7,240,431668,-11719,-11625,5355,383,18,1334
7,241,431673,-11600,-11703,5028,389,3,1344
7,242,431678,-11119,-11544,5085,391,38,1344
7,243,431683,-11097,-11582,5445,393,72,1339
7,244,431688,-11422,-11558,5351,397,45,1330
7,245,431693,-11782,-11265,4800,403,17,1326
7,246,431698,-12030,-11131,4577,409,40,1328
7,247,431703,-12027,-10823,5024,400,99,1313
7,248,431708,-11868,-10545,5541,397,123,1304
7,249,431713,-11623,-10621,5230,396,111,1303
7,250,431718,-11717,-10480,5416,394,152,1291
7,251,431723,-12020,-10122,5756,391,176,1285
7,252,431728,-12381,-10278,6031,389,165,1298
7,253,431733,-12137,-9948,6097,389,139,1279
7,254,431738,-11806,-10071,6023,388,105,1287
7,255,431743,-11399,-10025,6124,383,76,1281
7,256,431748,-11559,-9877,6282,381,46,1266
7,257,431753,-11789,-9928,5820,382,-4,1272
7,258,431758,-11666,-9948,4987,380,-8,1272
7,259,431763,-11459,-9908,4619,379,51,1268
7,260,431768,-11661,-9817,4937,375,135,1263
7,261,431773,-11927,-9696,4980,375,192,1256
7,262,431778,-12100,-9751,4378,382,239,1253
7,263,431783,-12055,-9644,3787,384,309,1239
7,264,431788,-12240,-9361,4052,375,388,1229
7,265,431793,-12492,-9184,4319,372,418,1233
7,266,431798,-12544,-9191,4098,372,462,1225
7,267,431803,-13076,-9070,4523,365,659,1185
7,268,431808,-13691,-8825,5552,358,704,1172
7,269,431813,-13679,-8776,6177,355,645,1173
7,270,431818,-13408,-8818,6383,353,551,1173
7,271,431823,-12841,-8821,6193,349,452,1172
7,272,431828,-12598,-8597,6081,349,355,1167
7,273,431833,-12843,-8447,5615,347,241,1169
7,274,431838,-13085,-8435,4671,339,160,1168
7,275,431843,-13305,-8521,4062,337,189,1162
7,276,431848,-13243,-8535,3802,335,320,1147
7,277,431853,-13202,-8302,4070,334,492,1125
7,278,431858,-13616,-8137,4551,332,622,1108
7,279,431863,-14219,-8044,5089,325,668,1093
7,280,431868,-14416,-7835,5712,315,661,1077
7,281,431873,-14343,-7457,6215,308,624,1068
7,282,431878,-14270,-7239,6492,303,573,1058
7,283,431883,-14145,-7095,6396,300,466,1051
7,284,431888,-14186,-7098,6022,291,330,1046
7,285,431893,-14360,-7103,5743,282,224,1038
7,286,431898,-14531,-7240,5316,278,181,1028
7,287,431903,-14622,-7423,4867,278,206,1009
7,288,431908,-14415,-7293,4684,279,254,991
7,289,431913,-14342,-7114,4949,274,266,974
7,290,431918,-14378,-7011,5229,266,230,961
7,291,431923,-14103,-6982,5275,262,187,957
7,292,431928,-13756,-6903,5088,259,179,945
7,293,431933,-13805,-6781,5004,259,195,929
7,294,431938,-14099,-6702,5109,255,181,913
7,295,431943,-14458,-6677,5079,245,135,905
7,296,431948,-14505,-6643,4768,243,116,896
7,297,431953,-14315,-6622,4637,243,145,878
7,298,431958,-14044,-6562,4786,237,186,862
7,299,431963,-13799,-6467,4933,232,185,853
7,300,431968,-13778,-6576,4801,228,159,841
7,301,431973,-13926,-6525,4508,227,141,826
7,302,431978,-14110,-6380,4414,224,159,815
7,303,431983,-14228,-6366,4228,224,171,798
7,304,431988,-14029,-6374,4000,225,171,790
7,305,431993,-13623,-6374,3857,222,164,785
7,306,431998,-13661,-6294,3959,218,180,771
7,307,432003,-14077,-6147,3915,216,210,753
7,308,432008,-14754,-5910,3772,213,252,732
7,309,432013,-14649,-5739,3984,211,288,717
7,310,432018,-14315,-5649,4352,206,305,713
7,311,432023,-13961,-5554,4803,200,298,700
7,312,432028,-13975,-5593,4909,198,269,682
7,313,432033,-14469,-5556,4738,195,234,662
7,314,432038,-14927,-5401,4739,190,185,653
7,315,432043,-14792,-5250,4752,181,127,646
7,316,432048,-14314,-5220,4649,179,88,636
7,317,432053,-14122,-5181,4397,180,85,616
7,318,432058,-14189,-5122,3934,177,95,599
7,319,432063,-14420,-4924,3503,170,122,585
7,320,432068,-14581,-4793,3331,163,174,572
7,321,432073,-14584,-4833,3401,154,262,553
7,322,432078,-14596,-4828,3828,149,363,532
7,323,432083,-14646,-4881,4484,143,428,511
7,324,432088,-14673,-4938,5116,137,423,494
7,325,432093,-14414,-4906,5447,133,352,480
7,326,432098,-14651,-4555,5690,124,256,462
7,327,432103,-14887,-4258,5865,110,135,443
7,328,432108,-15303,-4001,5943,99,24,428
7,329,432113,-15067,-3994,5489,92,-71,421
7,330,432118,-14938,-4030,5377,82,-115,400
7,331,432123,-14778,-4020,5662,66,-153,372
7,332,432128,-14452,-3934,5655,58,-227,358
7,333,432133,-13684,-3818,4744,56,-307,363
7,334,432138,-13147,-4056,3525,51,-310,353
7,335,432143,-13529,-4362,2909,35,-233,321
7,336,432148,-14468,-4380,2677,20,-121,290
7,337,432153,-15130,-4395,2517,11,29,273
7,338,432158,-14879,-4455,2894,8,228,252
7,339,432163,-14104,-4417,3925,1,399,217
7,340,432168,-14506,-4489,5960,-21,303,159
7,341,432173,-15149,-4484,5646,-30,105,146
7,342,432178,-15574,-4321,5391,-42,-39,129
7,343,432183,-15809,-4292,5715,-54,-157,103
7,344,432188,-15724,-4237,6074,-68,-313,80
7,345,432193,-15146,-4273,5765,-72,-515,75
7,346,432198,-14524,-4486,4908,-75,-677,61
7,347,432203,-14395,-4621,4037,-85,-748,33
7,348,432208,-14718,-4675,3311,-95,-748,2
7,349,432213,-14961,-4599,2477,-101,-687,-27
7,350,432218,-14617,-4591,1831,-108,-533,-52
7,351,432223,-14268,-4537,1723,-112,-308,-93
7,352,432228,-14044,-4553,2376,-122,-95,-134
7,353,432233,-14630,-4615,3187,-134,45,-169
7,354,432238,-14799,-4827,3668,-139,114,-197
7,355,432243,-14707,-4925,4268,-145,164,-222
7,356,432248,-14380,-4876,5102,-154,180,-249
7,357,432253,-14383,-4839,5745,-159,103,-280
7,358,432258,-14612,-4793,5741,-166,-68,-302
7,359,432263,-14715,-4751,5224,-174,-236,-316
7,360,432268,-14782,-4688,4867,-188,-311,-343
7,361,432273,-14729,-4701,4738,-199,-331,-380
7,362,432278,-14528,-4698,4521,-207,-331,-408
7,363,432283,-14028,-4477,4289,-215,-316,-434
7,364,432288,-13518,-4364,4107,-219,-276,-455
7,365,432293,-13390,-4323,4154,-227,-214,-487
7,366,432298,-13697,-4383,4102,-242,-159,-522
7,367,432303,-13959,-4282,4253,-254,-105,-549
7,368,432308,-14083,-4355,4496,-264,-51,-571
7,369,432313,-13945,-4512,4817,-272,-9,-602
7,370,432318,-14028,-4722,5242,-275,7,-631
7,371,432323,-14375,-4895,5485,-281,-34,-659
7,372,432328,-14458,-4915,5569,-289,-121,-682
7,373,432333,-14244,-4969,5549,-301,-230,-701
7,374,432338,-14107,-5082,5447,-308,-316,-724
7,375,432343,-14323,-5087,5255,-317,-366,-754
7,376,432348,-14607,-5112,4989,-328,-400,-781
7,377,432353,-14441,-5210,4762,-334,-418,-804
7,378,432358,-13670,-5319,4466,-340,-406,-823
7,379,432363,-13171,-5394,4324,-346,-361,-853
7,380,432368,-13254,-5326,4171,-357,-297,-887
7,381,432373,-13750,-5262,3892,-368,-234,-912
7,382,432378,-13786,-5267,3680,-376,-139,-930
7,383,432383,-13299,-5366,3754,-380,-13,-953
7,384,432388,-12891,-5542,4366,-385,123,-987
7,385,432393,-12833,-5720,4989,-391,201,-1014
7,386,432398,-13150,-5775,5228,-395,218,-1033
7,387,432403,-13581,-5778,5264,-399,201,-1050
7,388,432408,-13922,-5790,5619,-407,172,-1071
7,389,432413,-13894,-5942,6254,-417,105,-1085
7,390,432418,-13471,-6057,6772,-419,-25,-1097
7,391,432423,-13132,-6322,6527,-420,-187,-1107
7,392,432428,-13364,-6558,5898,-424,-324,-1124
7,393,432433,-13881,-6571,5199,-435,-425,-1142
7,394,432438,-14128,-6544,4584,-445,-473,-1160
7,395,432443,-13873,-6619,4244,-453,-465,-1175
7,396,432448,-13152,-6791,3981,-458,-398,-1196
7,397,432453,-12343,-6985,3617,-455,-301,-1209
7,398,432458,-12093,-7078,3156,-458,-180,-1224
7,399,432463,-12398,-7153,2928,-461,-53,-1247
7,400,432468,-13025,-7271,3008,-472,84,-1265
7,401,432473,-13201,-7443,3463,-475,231,-1280
7,402,432478,-13266,-7637,4481,-472,377,-1298
7,403,432483,-13217,-7783,5423,-468,447,-1317
7,404,432488,-12966,-7846,6271,-461,397,-1331
7,405,432493,-12885,-7940,6863,-457,220,-1334
7,406,432498,-13129,-8077,7008,-461,-38,-1333
7,407,432503,-13570,-8138,6712,-468,-281,-1332
7,408,432508,-13555,-8159,5601,-471,-470,-1328
7,409,432513,-13238,-8261,4559,-473,-524,-1332
7,410,432518,-12997,-8241,4343,-478,-481,-1347
7,411,432523,-12746,-8334,4165,-483,-436,-1364
7,412,432528,-12593,-8445,3694,-483,-366,-1375
7,413,432533,-12313,-8440,3123,-492,-65,-1399
7,414,432538,-12370,-8499,3638,-494,86,-1412
7,415,432543,-11955,-8793,3703,-486,158,-1410
7,416,432548,-11658,-9203,3741,-480,220,-1413
7,417,432553,-12207,-9480,4255,-478,283,-1423
7,418,432558,-13083,-9545,4961,-471,301,-1428
7,419,432563,-13164,-9659,5169,-462,256,-1422
7,420,432568,-12637,-10003,5209,-453,176,-1419
7,421,432573,-12319,-10248,5721,-454,65,-1424
7,422,432578,-12551,-10205,6089,-452,-101,-1429
7,423,432583,-13101,-10133,5537,-445,-285,-1423
7,424,432588,-13379,-10268,4374,-445,-386,-1417
7,425,432593,-13204,-10335,4007,-448,-356,-1424
7,426,432598,-12882,-10422,4384,-451,-292,-1440
7,427,432603,-12765,-10372,4663,-451,-261,-1458
7,428,432608,-12636,-10267,4278,-447,-265,-1464
7,429,432613,-12014,-10159,3780,-444,-220,-1456
7,430,432618,-11006,-10299,3408,-444,-126,-1442
7,431,432623,-10653,-10590,3548,-445,2,-1446
7,432,432628,-11368,-10944,3695,-443,104,-1460
7,433,432633,-12323,-11178,3671,-439,180,-1481
7,434,432638,-12497,-10898,4142,-439,259,-1491
7,435,432643,-12257,-11574,5226,-427,299,-1447
7,436,432648,-11151,-11664,6539,-414,254,-1461
7,437,432653,-10650,-11844,7076,-400,43,-1459
7,438,432658,-10728,-11944,6472,-399,-299,-1436
7,439,432663,-11498,-11938,4965,-400,-593,-1416
7,440,432668,-12340,-11890,3802,-404,-675,-1414
7,441,432673,-12487,-12036,3430,-408,-586,-1424
7,442,432678,-11928,-11719,3977,-404,-457,-1466
7,443,432683,-11536,-11624,3876,-408,-427,-1466
7,444,432688,-10956,-11843,3532,-411,-397,-1447
7,445,432693,-9835,-11451,3751,-416,-257,-1462
7,446,432698,-8983,-11597,3535,-405,-109,-1445
7,447,432703,-9574,-11888,2864,-406,19,-1454
7,448,432708,-10869,-12047,2441,-410,175,-1471
7,449,432713,-11550,-12260,3007,-415,349,-1470
7,450,432718,-11423,-12620,4871,-410,508,-1469
7,451,432723,-10514,-13178,6506,-393,540,-1465
7,452,432728,-9272,-13682,7169,-369,401,-1458
7,453,432733,-8887,-13871,7421,-367,103,-1457
7,454,432738,-9565,-13666,6978,-369,-361,-1429
7,455,432743,-10309,-13662,5126,-363,-801,-1378
7,456,432748,-10652,-14048,2992,-371,-941,-1369
7,457,432753,-9920,-13742,1469,-363,-785,-1400
7,458,432758,-9495,-14023,2045,-362,-524,-1400
7,459,432763,-9205,-13681,2211,-371,-411,-1420
7,460,432768,-9290,-13478,1771,-373,-311,-1418
7,461,432773,-8502,-13182,1849,-375,-89,-1427
7,462,432778,-7005,-12900,1907,-375,189,-1419
7,463,432783,-6158,-13322,1592,-370,476,-1408
7,464,432788,-8398,-13727,2754,-369,778,-1437
7,465,432793,-11197,-14063,3584,-369,926,-1460
7,466,432798,-11181,-13896,4653,-354,959,-1443
7,467,432803,-8636,-14279,6119,-331,872,-1409
7,468,432808,-6473,-14663,8168,-315,657,-1401
7,469,432813,-6958,-14711,10029,-319,173,-1403
7,470,432818,-8661,-14820,7535,-291,-657,-1323
7,471,432823,-9731,-15224,2725,-282,-1221,-1256
7,472,432828,-10172,-15083,409,-314,-1157,-1274
7,473,432833,-9183,-15099,617,-312,-820,-1298
7,474,432838,-8486,-15178,2287,-300,-525,-1321
7,475,432843,-8238,-15286,1311,-301,-480,-1324
7,476,432848,-8354,-15229,833,-310,-326,-1330
7,477,432853,-8390,-14779,2412,-314,-50,-1350
7,478,432858,-7478,-14509,3318,-304,107,-1346
7,479,432863,-6250,-14503,3693,-290,192,-1330
7,480,432868,-5476,-14528,3117,-295,213,-1314
7,481,432873,-6507,-14647,3029,-301,248,-1304
7,482,432878,-8726,-14984,3408,-306,289,-1302
7,483,432883,-9091,-14995,3774,-294,340,-1296
7,484,432888,-7329,-15317,4164,-269,389,-1264
7,485,432893,-5634,-15593,5319,-248,360,-1256
7,486,432898,-7152,-15367,7420,-255,-392,-1225
7,487,432903,-7132,-15746,3200,-223,-1012,-1125
7,488,432908,-6897,-15928,1224,-234,-1069,-1108
7,489,432913,-6751,-15648,1790,-244,-808,-1146
7,490,432918,-6952,-15495,2461,-234,-667,-1148
7,491,432923,-7005,-15604,1013,-227,-643,-1129
7,492,432928,-6951,-15540,1053,-231,-454,-1130
7,493,432933,-6631,-15275,1858,-236,-252,-1131
7,494,432938,-6207,-15119,3063,-229,-90,-1128
7,495,432943,-5886,-15139,3991,-218,11,-1125
7,496,432948,-5873,-14911,4389,-213,33,-1122
7,497,432953,-5644,-14705,4278,-213,-44,-1096
7,498,432958,-5206,-14583,4307,-217,-129,-1061
7,499,432963,-4884,-14634,3842,-210,-191,-1026
7,500,432968,-5011,-14896,3366,-204,-187,-1003
7,501,432973,-5315,-15076,2766,-202,-115,-999
7,502,432978,-5398,-15073,2641,-200,-38,-992
7,503,432983,-5133,-15055,3197,-194,2,-972
7,504,432988,-5285,-15283,3903,-187,3,-955
7,505,432993,-5456,-15390,4472,-178,-37,-938
7,506,432998,-5066,-15380,4057,-167,-132,-916
7,507,433003,-4787,-15462,4091,-162,-240,-897
7,508,433008,-4768,-15493,4188,-161,-400,-875
7,509,433013,-5012,-15554,4148,-159,-531,-852
7,510,433018,-5239,-15588,2980,-153,-612,-831
7,511,433023,-5221,-15517,1911,-148,-552,-820
7,512,433028,-5138,-15274,1949,-149,-417,-819
7,513,433033,-4707,-15168,2006,-151,-304,-803
7,514,433038,-4329,-15121,2424,-152,-155,-800
7,515,433043,-4096,-15031,2338,-153,-16,-802
7,516,433048,-4257,-14910,2177,-156,138,-799
7,517,433053,-4620,-14712,2659,-159,304,-797
7,518,433058,-4909,-14597,3361,-162,430,-788
7,519,433063,-4614,-14844,3565,-157,504,-770
7,520,433068,-4240,-15092,3907,-151,565,-760
7,521,433073,-4326,-15228,4467,-147,572,-757
7,522,433078,-4905,-15318,5546,-139,461,-746
7,523,433083,-4533,-15443,5800,-130,170,-709
7,524,433088,-3495,-15666,5260,-122,-140,-669
7,525,433093,-3109,-15837,4756,-120,-389,-655
7,526,433098,-3763,-15872,4163,-119,-613,-643
7,527,433103,-4658,-15868,2737,-122,-798,-617
7,528,433108,-4824,-15962,1124,-122,-827,-597
7,529,433113,-4276,-15968,526,-122,-651,-601
7,530,433118,-3859,-15948,1371,-119,-397,-612
7,531,433123,-3654,-15812,2002,-119,-253,-619
7,532,433128,-3715,-15797,1838,-113,-201,-610
7,533,433133,-3661,-15779,1863,-112,-104,-603
7,534,433138,-3421,-15594,2568,-119,16,-600
7,535,433143,-3039,-15519,3024,-111,75,-588
7,536,433148,-2803,-15516,2982,-112,104,-582
7,537,433153,-3157,-15519,2725,-117,139,-577
7,538,433158,-3874,-15540,2621,-125,197,-571
7,539,433163,-4555,-15701,2733,-124,283,-563
7,540,433168,-4624,-15798,3529,-118,391,-560
7,541,433173,-3816,-15978,3840,-104,403,-552
7,542,433178,-2868,-15982,4657,-98,311,-544
7,543,433183,-2816,-15930,5499,-105,69,-528
7,544,433188,-3750,-15843,5831,-106,-249,-508
7,545,433193,-4234,-15849,4742,-99,-558,-474
7,546,433198,-3727,-15924,3268,-92,-729,-450
7,547,433203,-3159,-15956,3075,-94,-790,-448
7,548,433208,-3012,-15944,3190,-98,-881,-442
7,549,433213,-3297,-15931,2519,-101,-977,-426
7,550,433218,-3447,-15991,847,-102,-954,-415
7,551,433223,-3257,-15899,510,-101,-728,-422
7,552,433228,-2700,-15793,741,-97,-501,-425
7,553,433233,-2322,-15683,1487,-94,-301,-424
7,554,433238,-1950,-15862,1791,-98,-185,-423
7,555,433243,-1930,-15388,1910,-97,-91,-416
7,556,433248,-2121,-16011,1931,-91,0,-395
7,557,433253,-2168,-15261,1840,-101,74,-417
7,558,433258,-1830,-15625,2234,-92,177,-384
7,559,433263,-1652,-15690,2727,-90,303,-371
7,560,433268,-2204,-15879,2666,-86,310,-354
7,561,433273,-2445,-15810,2260,-78,300,-345
7,562,433278,-2544,-15885,2804,-76,323,-336
7,563,433283,-2542,-15863,3544,-74,282,-328
7,564,433288,-2505,-15965,3862,-66,153,-307
7,565,433293,-2584,-16027,3595,-67,12,-292
7,566,433298,-2664,-16016,3554,-64,-103,-280
7,567,433303,-2553,-16029,3101,-63,-226,-265
7,568,433308,-2424,-16015,2831,-61,-312,-250
7,569,433313,-2344,-16003,2399,-61,-359,-240
7,570,433318,-2455,-15927,2050,-61,-347,-235
7,571,433323,-2450,-15881,1567,-63,-304,-227
7,572,433328,-2391,-15827,1549,-63,-215,-223
7,573,433333,-2005,-15773,1387,-63,-119,-215
7,574,433338,-1746,-15917,1682,-62,15,-213
7,575,433343,-1817,-15911,1979,-64,120,-217
7,576,433348,-2110,-16020,2137,-65,190,-214
7,577,433353,-2218,-16003,2141,-64,239,-202
7,578,433358,-1918,-16093,2402,-62,274,-192
7,579,433363,-1632,-16188,2798,-63,283,-187
7,580,433368,-1764,-16163,3401,-63,254,-188
7,581,433373,-2163,-16180,3667,-63,154,-175
7,582,433378,-2358,-16186,3287,-58,20,-149
7,583,433383,-2188,-16277,2911,-55,-88,-134
7,584,433388,-1912,-16337,2873,-54,-164,-122
7,585,433393,-1903,-16362,3015,-54,-227,-118
7,586,433398,-2213,-16376,2870,-51,-294,-111
7,587,433403,-2524,-16279,2391,-53,-345,-99
7,588,433408,-2476,-16303,1966,-53,-345,-88
7,589,433413,-2231,-16239,1975,-54,-288,-90
7,590,433418,-1956,-16186,2145,-57,-219,-88
7,591,433423,-1788,-16133,2303,-55,-167,-85
7,592,433428,-1785,-16098,2192,-60,-134,-79
7,593,433433,-1751,-16065,1986,-64,-92,-76
7,594,433438,-1756,-16043,1968,-66,-27,-76
7,595,433443,-1667,-15925,2114,-65,58,-72
7,596,433448,-1644,-15899,2237,-67,140,-70
7,597,433453,-1585,-15947,2303,-69,196,-66
7,598,433458,-1743,-16033,2445,-74,231,-61
7,599,433463,-2089,-16196,2491,-76,249,-57
7,600,433468,-2311,-16278,2567,-70,252,-55
7,601,433473,-2192,-16343,2690,-63,232,-51
7,602,433478,-1802,-16321,2979,-63,177,-43
7,603,433483,-1552,-16251,3490,-64,75,-38
7,604,433488,-1660,-16243,3697,-64,-79,-28
7,605,433493,-1923,-16213,3289,-60,-244,-8
7,606,433498,-2044,-16200,2418,-55,-363,10
7,607,433503,-2130,-16252,1838,-54,-373,12
7,608,433508,-2234,-16124,2398,-59,-319,3
7,609,433513,-2026,-16108,2478,-59,-331,8
7,610,433518,-1784,-16200,1871,-57,-345,19
7,611,433523,-1589,-16294,1475,-54,-292,19
7,612,433528,-1678,-16243,1666,-57,-188,13
7,613,433533,-1657,-16139,1877,-59,-100,10
7,614,433538,-1452,-16062,2058,-58,-36,17
7,615,433543,-1246,-16114,1912,-56,11,23
7,616,433548,-1152,-16105,1991,-57,67,21
7,617,433553,-1268,-16070,2205,-58,111,19
7,618,433558,-1434,-16048,2296,-58,142,20
7,619,433563,-1408,-16062,2288,-57,167,30
7,620,433568,-1339,-16149,2294,-53,183,40
7,621,433573,-1346,-16266,2420,-53,190,37
7,622,433578,-1522,-16277,2540,-52,177,40
7,623,433583,-1788,-16257,2586,-49,146,43
7,624,433588,-2028,-16281,2591,-49,108,48
7,625,433593,-2061,-16283,2648,-48,77,52
7,626,433598,-1993,-16272,2707,-47,53,58
7,627,433603,-2008,-16257,2792,-47,23,56
7,628,433608,-2254,-16255,2840,-43,-22,58
7,629,433613,-2260,-16317,2664,-42,-80,62
7,630,433618,-1995,-16333,2555,-44,-126,64
7,631,433623,-1736,-16359,2491,-45,-146,65
7,632,433628,-1796,-16272,2361,-42,-149,63
7,633,433633,-1736,-16232,2070,-42,-141,64
7,634,433638,-1595,-16247,1899,-42,-114,69
7,635,433643,-1465,-16263,1988,-42,-69,68
7,636,433648,-1415,-16250,2004,-44,-18,65
7,637,433653,-1387,-16232,1929,-46,30,65
7,638,433658,-1425,-16233,1854,-42,70,61
7,639,433663,-1313,-16212,2070,-42,101,62
7,640,433668,-1304,-16132,2201,-42,113,63
7,641,433673,-1340,-16231,2290,-38,112,63
7,642,433678,-1559,-16318,2321,-37,103,64
7,643,433683,-1686,-16347,2269,-35,90,67
7,644,433688,-1753,-16390,2390,-34,70,65
7,645,433693,-1816,-16404,2534,-32,40,68
7,646,433698,-1874,-16393,2633,-28,2,67
7,647,433703,-1959,-16412,2632,-24,-48,71
7,648,433708,-1906,-16368,2600,-24,-91,72
7,649,433713,-1803,-16348,2583,-27,-133,71
7,650,433718,-1820,-16279,2599,-24,-175,70
7,651,433723,-1855,-16298,2491,-25,-205,75
7,652,433728,-1824,-16341,2302,-28,-217,73
7,653,433733,-1653,-16339,2172,-26,-197,73
7,654,433738,-1605,-16319,1970,-27,-157,70
7,655,433743,-1577,-16354,1848,-23,-110,64
7,656,433748,-1631,-16327,1736,-28,-63,59
7,657,433753,-1597,-16302,1714,-29,-24,59
7,658,433758,-1474,-16270,1801,-29,24,55
7,659,433763,-1434,-16277,1883,-29,77,51
7,660,433768,-1460,-16248,2036,-27,121,44
7,661,433773,-1492,-16304,2094,-24,143,41
7,662,433778,-1513,-16302,2131,-25,146,44
7,663,433783,-1622,-16289,2286,-26,132,45
7,664,433788,-1693,-16316,2372,-24,111,44
7,665,433793,-1720,-16328,2368,-21,85,42
7,666,433798,-1755,-16336,2342,-20,59,43
7,667,433803,-1695,-16338,2407,-18,33,43
7,668,433808,-1729,-16288,2437,-19,-3,40
7,669,433813,-1723,-16309,2407,-17,-41,42
7,670,433818,-1709,-16323,2274,-21,-59,44
7,671,433823,-1602,-16347,2153,-19,-52,41
7,672,433828,-1640,-16355,2124,-20,-36,35
7,673,433833,-1702,-16326,2073,-24,-12,30
7,674,433838,-1738,-16275,2069,-21,8,30
7,675,433843,-1657,-16322,1999,-22,24,28
7,676,433848,-1546,-16312,2088,-22,51,24
7,677,433853,-1556,-16313,2192,-24,84,19
7,678,433858,-1620,-16309,2193,-22,105,14
7,679,433863,-1657,-16336,2092,-23,112,13
7,680,433868,-1676,-16391,2074,-26,106,16
7,681,433873,-1690,-16491,2239,-25,104,10
7,682,433878,-1759,-16464,2353,-25,93,5
7,683,433883,-1877,-16393,2319,-24,76,5
7,684,433888,-1853,-16325,2296,-19,58,4
7,685,433893,-1747,-16303,2357,-23,38,2
7,686,433898,-1651,-16278,2495,-25,10,1
7,687,433903,-1593,-16273,2511,-24,-18,1
7,688,433908,-1696,-16259,2301,-24,-43,-1
7,689,433913,-1928,-16284,2110,-24,-53,-1
7,690,433918,-2010,-16256,2116,-26,-51,-7
7,691,433923,-1913,-16233,2200,-25,-49,-8
7,692,433928,-1629,-16220,2278,-25,-50,-7
7,693,433933,-1511,-16250,2318,-29,-50,-14
7,694,433938,-1595,-16254,2244,-29,-55,-17
7,695,433943,-1711,-16210,2093,-29,-64,-14
7,696,433948,-1722,-16228,2012,-30,-61,-15
7,697,433953,-1694,-16335,1930,-28,-41,-16
7,698,433958,-1767,-16453,1793,-28,-11,-22
7,699,433963,-1937,-16535,1774,-28,18,-27
7,700,433968,-1991,-16502,1906,-29,39,-30
7,701,433973,-1897,-16447,2014,-29,50,-31
7,702,433978,-1711,-16387,2058,-27,61,-34
7,703,433983,-1636,-16334,2062,-25,77,-37
7,704,433988,-1624,-16287,2188,-28,84,-42
7,705,433993,-1605,-16160,2233,-32,51,-40
7,706,433998,-1592,-16130,2151,-33,42,-40
7,707,434003,-1605,-16100,2165,-28,47,-41
7,708,434008,-1674,-16020,2212,-30,61,-45
7,709,434013,-1669,-16019,2291,-31,65,-44
7,710,434018,-1543,-16005,2200,-30,55,-41
7,711,434023,-1482,-16038,2105,-31,45,-41
7,712,434028,-1646,-16152,1990,-33,47,-43
7,713,434033,-1864,-16218,1909,-28,57,-44
7,714,434038,-1994,-16278,1953,-32,68,-51
7,715,434043,-1929,-16301,2085,-34,78,-50
7,716,434048,-1808,-16246,2224,-34,82,-53
7,717,434053,-1656,-16296,2282,-35,73,-55
7,718,434058,-1677,-16316,2263,-32,54,-56
7,719,434063,-1698,-16327,2208,-32,28,-55
7,720,434068,-1715,-16345,2215,-36,-6,-53
7,721,434073,-1743,-16291,2162,-36,-25,-53
7,722,434078,-1718,-16353,1969,-35,-25,-52
7,723,434083,-1749,-16406,1926,-33,-12,-56
7,724,434088,-1789,-16436,1855,-34,8,-59
7,725,434093,-1799,-16435,1841,-36,19,-62
7,726,434098,-1764,-16387,1872,-38,30,-63
7,727,434103,-1723,-16385,1808,-38,44,-66
7,728,434108,-1721,-16386,1737,-36,59,-68
7,729,434113,-1705,-16406,1804,-35,75,-68
7,730,434118,-1704,-16366,1958,-34,82,-69
7,731,434123,-1642,-16364,2061,-35,76,-68
7,732,434128,-1614,-16310,2023,-32,70,-68
7,733,434133,-1685,-16307,1873,-33,69,-69
7,734,434138,-1640,-16339,1950,-33,63,-68
7,735,434143,-1551,-16362,2036,-32,52,-66
7,736,434148,-1498,-16446,1999,-31,36,-65
7,737,434153,-1528,-16468,1893,-32,34,-67
7,738,434158,-1689,-16461,1740,-33,40,-69
7,739,434163,-1833,-16452,1796,-32,48,-66
7,740,434168,-1794,-16435,1887,-37,60,-66
7,741,434173,-1641,-16431,1900,-34,71,-68
7,742,434178,-1578,-16419,1879,-32,87,-70
7,743,434183,-1649,-16416,1975,-32,95,-73
7,744,424188,-43,-16517,1934,14,16,-7
7,745,424193,2,-16536,1971,13,11,-8
7,746,424198,29,-16564,1995,13,1,-6
7,747,424203,38,-16580,1947,14,-4,-8
7,748,424208,57,-16548,1876,15,-15,-4
7,749,424213,17,-16562,1895,12,-19,-5
7,750,424218,-19,-16574,1954,11,-21,-7
7,751,424223,-68,-16552,1933,11,-30,-6
7,752,424228,-66,-16508,1957,12,-32,-6
7,753,424233,-54,-16509,1947,12,-29,-5
7,754,424238,-20,-16492,1963,9,-28,-5
7,755,424243,58,-16475,1942,9,-33,-5
7,756,424248,66,-16462,1968,9,-39,-5
7,757,424253,84,-16437,1933,9,-43,-7
7,758,424258,97,-16448,1938,6,-46,-3
7,759,424263,92,-16449,1918,7,-45,-3
7,760,424268,65,-16401,1875,6,-40,-5
7,761,424273,63,-16393,1866,7,-36,-2
7,762,424278,96,-16336,1877,5,-36,-2
7,763,424283,164,-16302,1817,6,-36,-3
7,764,424288,200,-16330,1857,5,-29,-2
7,765,424293,192,-16336,1845,4,-19,1
7,766,424298,155,-16319,1796,6,-8,-1
7,767,424303,173,-16288,1775,5,5,-1
7,768,424308,176,-16307,1733,4,13,-3
7,769,424313,159,-16290,1786,2,23,-4
7,770,424318,152,-16262,1842,1,31,2
7,771,424323,174,-16300,1856,3,36,2
7,772,424328,190,-16283,1840,3,35,0
7,773,424333,136,-16271,1885,6,38,1
7,774,424338,105,-16280,1912,5,37,1
7,775,424343,43,-16327,1927,2,33,0
7,776,424348,15,-16311,1942,2,27,2
7,777,424353,3,-16311,1976,0,24,3
7,778,424358,16,-16347,1993,3,21,3
7,779,424363,86,-16335,2049,4,15,5
7,780,424368,134,-16325,2050,4,7,4
7,781,424373,72,-16296,2067,1,-3,4
7,782,424378,50,-16308,2022,2,-14,4
7,783,424383,13,-16316,1927,2,-14,3
7,784,424388,21,-16311,1903,-1,-14,6
7,785,424393,37,-16335,1912,0,-8,6
7,786,424398,66,-16306,1935,-1,-4,5
7,787,424403,112,-16326,1945,0,0,4
7,788,424408,87,-16357,1956,1,0,5
7,789,424413,61,-16413,1850,-3,7,5
7,790,424418,39,-16384,1843,-3,13,6
7,791,424423,59,-16348,1835,-2,17,5
7,792,424428,97,-16349,1940,-4,20,4
7,793,424433,115,-16318,1970,-3,23,5
7,794,424438,124,-16259,1955,-3,21,7
7,795,424443,123,-16291,1884,-3,25,5
7,796,424448,115,-16308,1880,-2,30,4
7,797,424453,80,-16301,2020,-4,26,4
7,798,424458,51,-16361,2017,-6,13,2
7,799,424463,33,-16348,2025,-3,6,8
7,800,424468,38,-16357,1996,-1,5,9
7,801,424473,15,-16404,1938,-2,5,10
7,802,424478,-12,-16352,1955,0,3,7
7,803,424483,44,-16395,2037,-6,-9,8
7,804,424488,142,-16399,1880,-7,-23,10
7,805,424493,118,-16399,1871,-5,-19,9
7,806,424498,89,-16431,1829,-3,-17,7
7,807,424503,94,-16407,1854,-3,-17,9
7,808,424508,174,-16368,1813,-6,-15,12
7,809,424513,181,-16373,1823,-4,-4,12
7,810,424518,115,-16401,1813,-5,11,11
7,811,424523,68,-16372,1806,-8,23,7
7,812,424528,23,-16357,1836,-10,33,10
7,813,424533,12,-16375,1912,-7,39,11
7,814,424538,16,-16434,1931,-4,43,12
7,815,424543,34,-16457,1986,-6,43,12
7,816,424548,39,-16456,2039,-9,39,8
7,817,424553,9,-16470,2042,-8,27,8
7,818,424558,11,-16498,2038,-7,12,10
7,819,424563,62,-16523,2039,-8,-1,13
7,820,424568,22,-16520,2017,-7,-16,14
7,821,424573,35,-16559,1990,-7,-28,13
7,822,424578,0,-16494,1901,-10,-40,11
7,823,424583,17,-16523,1883,-8,-47,13
7,824,424588,99,-16528,1873,-7,-53,13
7,825,424593,77,-16516,1835,-9,-54,16
7,826,424598,103,-16518,1777,-10,-49,16
7,827,424603,85,-16476,1730,-7,-39,13
7,828,424608,112,-16465,1755,-8,-26,11
7,829,424613,136,-16423,1810,-8,-10,11
7,830,424618,143,-16400,1884,-8,2,13
7,831,424623,217,-16357,1932,-9,11,12
7,832,424628,130,-16302,1900,-8,20,11
7,833,424633,58,-16297,1910,-7,25,12
7,834,424638,17,-16315,1965,-11,31,10
7,835,424643,14,-16345,2037,-13,30,11
7,836,424648,72,-16316,2094,-9,21,13
7,837,424653,82,-16359,2050,-13,16,13
7,838,424658,60,-16376,2014,-12,12,14
7,839,424663,-10,-16408,1977,-10,4,13
7,840,424668,-34,-16435,2017,-10,-3,10
7,841,424673,5,-16412,1992,-9,-15,11
7,842,424678,-10,-16405,1875,-10,-27,13
7,843,424683,50,-16428,1836,-8,-28,12
7,844,424688,103,-16412,1826,-11,-27,11
7,845,424693,129,-16414,1817,-11,-29,12
7,846,424698,139,-16435,1817,-9,-28,14
7,847,424703,109,-16423,1706,-6,-22,13
7,848,424708,31,-16416,1697,-8,-13,10
7,849,424713,9,-16449,1689,-8,2,10
7,850,424718,24,-16410,1779,-8,14,11
7,851,424723,75,-16394,1877,-8,19,10
7,852,424728,104,-16435,1879,-6,22,10
7,853,424733,131,-16397,1891,-7,20,10
7,854,424738,112,-16448,1924,-8,19,7
7,855,424743,69,-16494,1973,-8,16,6
7,856,424748,8,-16489,1999,-7,5,6
7,857,424753,-11,-16471,1989,-4,-6,11
7,858,424758,-28,-16501,1911,-4,-8,8
7,859,424763,-32,-16487,1897,-5,-9,6
7,860,424768,-28,-16445,1970,-4,-8,4
7,861,424773,25,-16425,1966,-4,-14,7
7,862,424778,17,-16425,1907,-3,-23,8
7,863,424783,40,-16476,1886,-3,-23,6
7,864,424788,89,-16404,1879,-3,-18,6
7,865,424793,68,-16336,1826,-4,-12,4
7,866,424798,82,-16379,1821,-2,-6,6
7,867,424803,40,-16372,1845,-3,-2,3
7,868,424808,72,-16377,1850,-2,-1,3
7,869,424813,84,-16392,1927,-3,3,4
7,870,424818,95,-16445,1931,-4,6,4
7,871,424823,68,-16448,1906,-2,12,4
7,872,424828,41,-16469,1946,-3,22,1
7,873,424833,17,-16451,1949,-4,23,0
7,874,424838,-16,-16475,1978,-3,20,-1
7,875,424843,-103,-16493,1978,-2,18,-1
7,876,424848,-212,-16493,1983,-3,16,-4
7,877,424853,-152,-16480,1980,-2,13,-3
7,878,424858,-49,-16497,2030,0,4,-7
7,879,424863,1,-16495,1963,-2,-11,-6
7,880,424868,31,-16427,1989,-1,-24,-3
7,881,424873,-3,-16436,2015,0,-37,-3
7,882,424878,17,-16412,1993,-2,-41,-3
7,883,424883,79,-16348,1995,-2,-48,-2
7,884,424888,149,-16335,1917,1,-52,-4
7,885,424893,146,-16345,1854,2,-58,-2
7,886,424898,115,-16357,1915,0,-60,-2
7,887,424903,111,-16369,1888,-1,-58,-7
7,888,424908,88,-16409,1813,-2,-52,-4
7,889,424913,84,-16395,1769,1,-33,-3
7,890,424918,-3,-16411,1706,3,-15,-6
7,891,424923,-37,-16467,1695,5,3,-8
7,892,424928,-56,-16501,1715,4,15,-8
7,893,424933,-71,-16520,1707,2,29,-8
7,894,424938,-97,-16568,1730,3,41,-9
7,895,424943,-86,-16582,1809,3,51,-14
7,896,424948,-103,-16538,1877,6,54,-15
7,897,424953,-51,-16520,1868,5,49,-19
7,898,424958,-11,-16522,1896,6,42,-19
7,899,424963,24,-16486,1998,5,31,-18
7,900,424968,46,-16418,2101,6,21,-17
7,901,424973,-1,-16400,2099,10,5,-15
7,902,424978,16,-16359,2040,9,-8,-14
7,903,424983,64,-16343,2013,11,-18,-13
7,904,424988,82,-16306,1986,9,-28,-15
7,905,424993,80,-16248,2012,9,-38,-13
7,906,424998,116,-16263,2021,10,-44,-12
7,907,425003,102,-16313,1965,8,-43,-12
7,908,425008,69,-16281,1928,11,-34,-12
7,909,425013,39,-16272,1903,10,-20,-11
7,910,425018,-10,-16309,1824,8,-9,-16
7,911,425023,-49,-16286,1848,11,2,-17
7,912,425028,-12,-16290,1896,9,12,-15
7,913,425033,40,-16297,1921,9,20,-16
7,914,425038,119,-16306,1989,9,27,-18
7,915,425043,87,-16324,2008,9,30,-21
7,916,425048,76,-16311,1969,7,24,-19
7,917,425053,80,-16335,1970,13,17,-18
7,918,425058,71,-16368,2001,13,9,-15
7,919,425063,101,-16355,1927,11,-8,-12
7,920,425068,87,-16352,1908,11,-20,-14
7,921,425073,60,-16372,1893,10,-29,-14
7,922,425078,62,-16413,1857,13,-39,-12
7,923,425083,94,-16406,1762,13,-43,-12
7,924,425088,71,-16414,1697,13,-40,-11
7,925,425093,93,-16384,1608,15,-38,-11
7,926,425098,117,-16400,1627,13,-30,-13
7,927,425103,123,-16415,1680,14,-21,-9
7,928,425108,140,-16466,1646,15,-13,-11
7,929,425113,167,-16443,1661,18,-1,-13
7,930,425118,149,-16457,1680,18,16,-11
7,931,425123,100,-16439,1728,17,31,-8
7,932,425128,129,-16414,1777,18,32,-10
7,933,425133,122,-16371,1793,21,34,-11
7,934,425138,95,-16338,1798,19,38,-11
7,935,425143,116,-16336,1856,17,40,-12
7,936,425148,116,-16323,1921,19,37,-9
7,937,425153,88,-16299,1951,18,29,-9
7,938,425158,117,-16267,2011,18,19,-7
7,939,425163,192,-16238,2027,19,10,-4
7,940,425168,161,-16197,1964,20,6,-2
7,941,425173,133,-16215,1952,20,-3,-6
7,942,425178,69,-16213,1956,17,-13,-3
7,943,425183,71,-16226,1885,21,-28,-1
7,944,425188,72,-16273,1861,20,-40,0
7,945,425193,74,-16339,1878,19,-46,2
7,946,425198,112,-16374,1869,18,-44,4
7,947,425203,154,-16415,1806,19,-39,4
7,948,425208,111,-16447,1792,16,-36,5
7,949,425213,14,-16449,1850,19,-37,5
7,950,425218,-35,-16430,1737,20,-25,3
7,951,425223,-13,-16472,1717,19,-17,3
7,952,425228,-11,-16562,1777,21,-7,6
7,953,425233,-28,-16605,1878,20,5,3
7,954,425238,-10,-16574,2031,19,6,2
7,955,425243,-100,-16500,1988,17,9,4
7,956,425248,-199,-16464,1967,17,16,2
7,957,425253,-169,-16447,2027,17,21,2
7,958,425258,-166,-16400,2196,18,24,2
7,959,425263,-73,-16374,2317,16,15,0
7,960,425268,-47,-16347,2324,13,2,3
7,961,425273,-116,-16345,2202,9,-11,2
7,962,425278,-181,-16392,2186,8,-17,2
7,963,425283,-138,-16413,2223,8,-28,4
7,964,425288,-85,-16394,2240,6,-41,5
7,965,425293,-30,-16411,2159,4,-54,4
7,966,425298,-78,-16455,2068,6,-61,3
7,967,425303,-138,-16461,2012,4,-62,7
7,968,425308,-117,-16450,1952,3,-61,5
7,969,425313,-58,-16450,1933,1,-54,3
7,970,425318,4,-16515,1924,1,-43,3
7,971,425323,21,-16475,1833,2,-32,2
7,972,425328,-11,-16473,1758,0,-21,3
7,973,425333,-44,-16505,1809,-1,-11,6
7,974,425338,-21,-16455,1765,-1,1,4
7,975,425343,-1,-16462,1789,-1,13,2
7,976,425348,5,-16488,1798,0,23,0
7,977,425353,-19,-16435,1844,0,31,2
7,978,425358,-50,-16431,1870,-1,34,2
7,979,425363,-63,-16386,1836,0,31,2
7,980,425368,-31,-16352,1866,2,25,2
7,981,425373,40,-16384,1925,3,18,4
7,982,425378,62,-16322,1963,2,9,3
7,983,425383,108,-16318,2012,2,-5,7
7,984,425388,142,-16305,1978,0,-20,11
7,985,425393,128,-16292,1915,-1,-31,10
7,986,425398,129,-16291,1891,2,-46,12
7,987,425403,148,-16237,1820,4,-52,15
7,988,425408,184,-16225,1803,1,-58,16
7,989,425413,196,-16267,1794,3,-60,18
7,990,425418,146,-16333,1761,1,-55,15
7,991,425423,78,-16362,1697,3,-49,14
7,992,425428,50,-16385,1636,3,-34,18
7,993,425433,-3,-16400,1581,3,-17,17
7,994,425438,32,-16455,1607,1,3,16
7,995,425443,-11,-16442,1674,2,24,15
7,996,425448,-16,-16462,1767,4,44,16
7,997,425453,-17,-16437,1879,2,60,14
7,998,425458,-53,-16400,1918,3,74,15
7,999,425463,-65,-16351,1977,2,79,13
