event_id,seq,ts_ms,ax,ay,az,gx,gy,gz
77,0,953010,-2413,-15779,-3362,5,-10,-10
77,1,953015,-2367,-15810,-3428,3,-9,-6
77,2,953020,-2390,-15810,-3337,4,-5,-6
77,3,953025,-2456,-15796,-3282,5,-5,-10
77,4,953030,-2543,-15848,-3358,5,-9,-11
77,5,953035,-2491,-15856,-3523,2,-18,-5
77,6,953040,-2416,-15840,-3564,0,-14,-4
77,7,953045,-2448,-15860,-3584,-1,-7,-9
77,8,953050,-2476,-15836,-3669,-2,-5,-6
77,9,953055,-2477,-15865,-3706,-1,-8,-6
77,10,953060,-2458,-15879,-3753,-2,-12,-9
77,11,953065,-2464,-15832,-3618,-2,-10,-9
77,12,953070,-2462,-15821,-3575,-1,-7,-11
77,13,953075,-2469,-15865,-3571,1,-6,-5
77,14,953080,-2515,-15824,-3488,2,-8,-5
77,15,953085,-2600,-15810,-3335,4,-10,-8
77,16,953090,-2636,-15787,-3304,4,-14,-10
77,17,953095,-2624,-15795,-3362,5,-15,-7
77,18,953100,-2589,-15818,-3409,3,-13,-8
77,19,953105,-2535,-15822,-3417,1,-8,-7
77,20,953110,-2480,-15809,-3360,0,-9,-6
77,21,953115,-2406,-15873,-3426,-3,-14,-3
77,22,953120,-2465,-15837,-3418,-1,-13,-6
77,23,953125,-2535,-15817,-3433,0,-8,-3
77,24,953130,-2459,-15848,-3456,2,-8,-1
77,25,953135,-2449,-15867,-3389,-2,-11,1
77,26,953140,-2401,-15833,-3451,-2,-16,0
77,27,953145,-2336,-15844,-3537,-2,-13,2
77,28,953150,-2307,-15862,-3619,1,-9,0
77,29,953155,-2339,-15814,-3614,0,-9,-2
77,30,953160,-2474,-15839,-3558,-1,-13,-4
77,31,953165,-2576,-15827,-3555,-2,-14,-3
77,32,953170,-2577,-15822,-3463,1,-9,-6
77,33,953175,-2516,-15824,-3446,1,-4,-8
77,34,953180,-2478,-15807,-3387,1,-6,-9
77,35,953185,-2495,-15837,-3480,-2,-12,-11
77,36,953190,-2554,-15847,-3442,-2,-12,-13
77,37,953195,-2559,-15828,-3442,-3,-5,-10
77,38,953200,-2496,-15801,-3396,-5,-5,-5
77,39,953205,-2468,-15829,-3294,-3,-8,-5
77,40,953210,-2464,-15819,-3346,-7,-14,1
77,41,953215,-2394,-15818,-3507,-3,-18,5
77,42,953220,-2260,-15844,-3592,-2,-14,8
77,43,953225,-2275,-15800,-3686,-5,-11,6
77,44,953230,-2313,-15830,-3644,-2,-15,7
77,45,953235,-2342,-15823,-3520,-2,-19,6
77,46,953240,-2351,-15811,-3546,-3,-16,9
77,47,953245,-2361,-15806,-3595,-1,-13,11
77,48,953250,-2467,-15848,-3648,1,-13,8
77,49,953255,-2557,-15859,-3740,0,-18,8
77,50,953260,-2571,-15834,-3778,0,-19,5
77,51,953265,-2659,-15802,-3650,1,-6,1
77,52,953270,-2667,-15828,-3582,1,-2,-3
77,53,953275,-2643,-15823,-3595,4,-7,-1
77,54,953280,-2581,-15840,-3729,3,-10,-3
77,55,953285,-2639,-15883,-3744,5,-7,-4
77,56,953290,-2658,-15831,-3679,6,-5,-5
77,57,953295,-2542,-15834,-3550,-2,-6,-7
77,58,953300,-2467,-15798,-3449,0,0,-7
77,59,953305,-2449,-15821,-3354,4,5,-7
77,60,953310,-2475,-15842,-3248,3,7,-5
77,61,953315,-2381,-15806,-3225,4,-2,0
77,62,953320,-2353,-15836,-3291,5,-10,6
77,63,953325,-2325,-15840,-3420,5,-7,7
77,64,953330,-2335,-15841,-3557,2,2,6
77,65,953335,-2471,-15802,-3478,2,5,2
77,66,953340,-2565,-15809,-3433,2,-4,2
77,67,953345,-2637,-15845,-3537,4,-15,4
77,68,953350,-2679,-15822,-3600,3,-15,5
77,69,953355,-2673,-15832,-3578,2,-8,3
77,70,953360,-2623,-15821,-3543,5,-5,1
77,71,953365,-2577,-15834,-3573,3,-6,-4
77,72,953370,-2674,-15846,-3643,4,-10,-4
77,73,953375,-2756,-15856,-3627,3,-16,-4
77,74,953380,-2728,-15826,-3555,0,-19,-3
77,75,953385,-2577,-15820,-3424,0,-11,-2
77,76,953390,-2510,-15870,-3324,2,-7,-3
77,77,953395,-2421,-15793,-3314,3,-7,-7
77,78,953400,-2377,-15814,-3304,5,-3,-7
77,79,953405,-2455,-15807,-3318,2,-1,-7
77,80,953410,-2571,-15822,-3270,-3,-5,-6
77,81,953415,-2557,-15853,-3336,-3,-14,-3
77,82,953420,-2425,-15823,-3508,-1,-14,2
77,83,953425,-2441,-15875,-3520,0,-7,3
77,84,953430,-2537,-15817,-3457,-2,-6,-3
77,85,953435,-2581,-15799,-3480,-2,-17,-2
77,86,953440,-2555,-15826,-3551,-1,-22,-1
77,87,953445,-2586,-15824,-3506,-3,-10,-1
77,88,953450,-2664,-15805,-3381,-3,-6,-7
77,89,953455,-2713,-15801,-3354,-2,-15,-4
77,90,953460,-2668,-15810,-3425,0,-20,-5
77,91,953465,-2564,-15802,-3476,0,-13,-4
77,92,953470,-2553,-15795,-3545,-2,-8,-4
77,93,953475,-2556,-15843,-3536,-5,-11,-8
77,94,953480,-2507,-15820,-3589,-6,-20,-7
77,95,953485,-2453,-15811,-3564,-5,-16,-6
77,96,953490,-2464,-15817,-3472,-7,-7,-7
77,97,953495,-2518,-15849,-3417,-8,-11,-5
77,98,953500,-2466,-15819,-3450,-7,-16,-4
77,99,953505,-2468,-15850,-3509,-4,-12,-6
77,100,953510,-2444,-15832,-3593,-2,-2,-7
77,101,953515,-2482,-15835,-3615,-2,3,-4
77,102,953520,-2451,-15828,-3600,-2,0,-2
77,103,953525,-2434,-15815,-3493,-4,-3,-4
77,104,953530,-2569,-15805,-3350,-3,-5,-4
77,105,953535,-2597,-15859,-3379,0,-16,-1
77,106,953540,-2585,-15881,-3378,-1,-20,-1
77,107,953545,-2606,-15855,-3389,-1,-15,-1
77,108,953550,-2559,-15837,-3399,0,-14,-2
77,109,953555,-2444,-15837,-3489,-4,-16,1
77,110,953560,-2366,-15839,-3672,-5,-17,-1
77,111,953565,-2402,-15799,-3727,-3,-16,-6
77,112,953570,-2420,-15777,-3742,-3,-14,-1
77,113,953575,-2489,-15794,-3707,-4,-12,0
77,114,953580,-2565,-15801,-3483,-6,-3,-7
77,115,953585,-2583,-15768,-3310,-4,1,-9
77,116,953590,-2596,-15809,-3391,-3,-3,-7
77,117,953595,-2648,-15831,-3563,-3,-8,-6
77,118,953600,-2569,-15836,-3682,-6,-7,-5
77,119,953605,-2536,-15850,-3519,-6,0,-5
77,120,953610,-2643,-15829,-3338,-5,4,-6
77,121,953615,-2735,-15831,-3418,-5,-4,-4
77,122,953620,-2642,-15845,-3601,-2,-12,-1
77,123,953625,-2511,-15817,-3573,-2,-11,-1
77,124,953630,-2463,-15839,-3530,-4,-7,0
77,125,953635,-2542,-15838,-3498,-2,-7,-4
77,126,953640,-2611,-15801,-3553,-1,-16,-4
77,127,953645,-2595,-15780,-3526,-1,-22,-2
77,128,953650,-2477,-15779,-3461,-3,-15,-2
77,129,953655,-2389,-15798,-3424,-1,-11,-2
77,130,953660,-2542,-15809,-3614,-5,-23,-6
77,131,953665,-2570,-15807,-3698,-5,-22,-9
77,132,953670,-2524,-15809,-3702,-6,-13,-4
77,133,953675,-2517,-15840,-3602,-5,-9,-5
77,134,953680,-2509,-15802,-3603,-3,-8,-11
77,135,953685,-2425,-15789,-3641,0,-8,-9
77,136,953690,-2324,-15777,-3694,-2,-10,-6
77,137,953695,-2386,-15813,-3509,-3,-7,-6
77,138,953700,-2488,-15828,-3456,-3,-9,-11
77,139,953705,-2551,-15829,-3347,-3,-15,-5
77,140,953710,-2585,-15842,-3297,-6,-14,-2
77,141,953715,-2493,-15861,-3302,-3,-15,0
77,142,953720,-2462,-15889,-3394,-2,-16,-1
77,143,953725,-2490,-15837,-3448,-2,-17,0
77,144,953730,-2538,-15860,-3565,-1,-18,2
77,145,953735,-2531,-15832,-3659,-1,-17,4
77,146,953740,-2464,-15826,-3729,-3,-14,2
77,147,953745,-2426,-15825,-3804,-1,-6,1
77,148,953750,-2551,-15820,-3729,-1,-7,-5
77,149,953755,-2661,-15829,-3633,-2,-16,-4
77,150,953760,-2669,-15845,-3584,-3,-22,-2
77,151,953765,-2600,-15792,-3561,-2,-20,-4
77,152,953770,-2583,-15818,-3429,-3,-12,-8
77,153,953775,-2588,-15800,-3369,-2,-9,-6
77,154,953780,-2454,-15824,-3447,-1,-13,-6
77,155,953785,-2391,-15815,-3512,-1,-6,-6
77,156,953790,-2374,-15812,-3436,0,1,-3
77,157,953795,-2371,-15812,-3370,-2,-9,-2
77,158,953800,-2414,-15816,-3608,-3,-18,1
77,159,953805,-2466,-15811,-3847,-1,-14,5
77,160,953810,-2564,-15792,-3750,-3,-4,1
77,161,953815,-2660,-15794,-3573,2,-7,-1
77,162,953820,-2668,-15816,-3570,3,-13,1
77,163,953825,-2498,-15814,-3664,1,-13,3
77,164,953830,-2503,-15805,-3585,3,-8,0
77,165,953835,-2607,-15858,-3487,6,-6,-2
77,166,953840,-2603,-15876,-3589,4,-14,-2
77,167,953845,-2499,-15827,-3745,3,-15,2
77,168,953850,-2486,-15836,-3776,3,-5,2
77,169,953855,-2587,-15819,-3693,2,0,-4
77,170,953860,-2606,-15858,-3630,3,-7,-7
77,171,953865,-2581,-15840,-3646,1,-15,-8
77,172,953870,-2659,-15821,-3587,0,-10,-6
77,173,953875,-2683,-15800,-3435,-4,-5,-9
77,174,953880,-2599,-15798,-3318,-1,-6,-7
77,175,953885,-2540,-15821,-3418,3,-11,-9
77,176,953890,-2510,-15826,-3413,1,-10,-4
77,177,953895,-2464,-15845,-3401,2,-11,-4
77,178,953900,-2448,-15803,-3481,2,-17,-6
77,179,953905,-2479,-15791,-3543,1,-15,-3
77,180,953910,-2506,-15787,-3553,-1,-13,-1
77,181,953915,-2493,-15789,-3571,0,-9,-2
77,182,953920,-2567,-15812,-3550,4,-10,-3
77,183,953925,-2629,-15833,-3598,-1,-14,-2
77,184,953930,-2626,-15842,-3543,-2,-13,-1
77,185,953935,-2569,-15808,-3503,0,-10,-4
77,186,953940,-2524,-15830,-3503,2,-8,-5
77,187,953945,-2566,-15829,-3525,3,-12,-2
77,188,953950,-2669,-15788,-3673,3,-25,-5
77,189,953955,-2696,-15814,-3791,2,-28,-9
77,190,953960,-2618,-15856,-3728,0,-22,-8
77,191,953965,-2502,-15843,-3673,1,-13,-5
77,192,953970,-2546,-15854,-3673,1,-7,-7
77,193,953975,-2618,-15814,-3623,2,-10,-9
77,194,953980,-2629,-15802,-3591,2,-6,-8
77,195,953985,-2513,-15827,-3441,2,2,-6
77,196,953990,-2375,-15794,-3380,5,7,-7
77,197,953995,-2324,-15786,-3397,2,4,-9
77,198,954000,-2476,-15800,-3496,1,-3,-7
77,199,954005,-2453,-15820,-3486,1,-9,-7
77,200,954010,-2475,-15818,-3471,1,-15,-5
77,201,954015,-2498,-15770,-3526,1,-19,1
77,202,954020,-2499,-15823,-3599,5,-24,0
77,203,954025,-2630,-15829,-3670,6,-25,0
77,204,954030,-2748,-15845,-3533,2,-21,-1
77,205,954035,-2673,-15821,-3469,0,-25,-3
77,206,954040,-2612,-15853,-3508,3,-27,-4
77,207,954045,-2497,-15828,-3597,3,-22,-3
77,208,954050,-2374,-15829,-3545,3,-12,-3
77,209,954055,-2422,-15836,-3532,2,-2,-9
77,210,954060,-2485,-15796,-3564,1,8,-11
77,211,954065,-2486,-15848,-3594,3,15,-6
77,212,954070,-2465,-15832,-3530,2,13,-3
77,213,954075,-2417,-15794,-3435,2,6,-1
77,214,954080,-2370,-15819,-3452,2,-8,-1
77,215,954085,-2351,-15798,-3569,3,-18,-1
77,216,954090,-2351,-15790,-3689,4,-13,-2
77,217,954095,-2389,-15815,-3617,1,1,-2
77,218,954100,-2514,-15765,-3344,1,0,-7
77,219,954105,-2581,-15775,-3300,2,-11,-6
77,220,954110,-2616,-15825,-3457,6,-14,-4
77,221,954115,-2585,-15802,-3540,1,-10,-1
77,222,954120,-2539,-15828,-3508,-1,-5,0
77,223,954125,-2618,-15856,-3479,0,-9,-1
77,224,954130,-2727,-15867,-3576,1,-17,-3
77,225,954135,-2695,-15820,-3699,0,-15,-4
77,226,954140,-2595,-15841,-3747,1,-3,-4
77,227,954145,-2474,-15855,-3699,4,9,-3
77,228,954150,-2494,-15860,-3642,8,3,-1
77,229,954155,-2626,-15813,-3757,6,-8,-8
77,230,954160,-2742,-15823,-3762,8,-13,-9
77,231,954165,-2716,-15825,-3747,8,-6,-7
77,232,954170,-2685,-15789,-3591,6,0,-4
77,233,954175,-2737,-15800,-3507,7,-7,-7
77,234,954180,-2705,-15847,-3569,7,-12,-9
77,235,954185,-2606,-15835,-3610,8,-7,-8
77,236,954190,-2562,-15813,-3577,9,0,-6
77,237,954195,-2540,-15833,-3446,8,-3,-7
77,238,954200,-2487,-15825,-3459,8,-11,-5
77,239,954205,-2540,-15803,-3598,7,-7,-4
77,240,954210,-2589,-15842,-3651,10,-2,-6
77,241,954215,-2575,-15811,-3591,8,-4,-3
77,242,954220,-2576,-15835,-3459,7,-9,-4
77,243,954225,-2610,-15795,-3463,4,-8,-7
77,244,954230,-2613,-15815,-3562,5,-6,-8
77,245,954235,-2521,-15846,-3471,7,-2,-9
77,246,954240,-2507,-15817,-3481,9,-3,-7
77,247,954245,-2514,-15856,-3535,7,-12,-9
77,248,954250,-2614,-15815,-3582,6,-17,-11
77,249,954255,-2602,-15831,-3589,8,-13,-11
77,250,954260,-2598,-15824,-3520,9,-12,-9
77,251,954265,-2498,-15838,-3532,6,-13,-8
77,252,954270,-2459,-15807,-3486,7,-5,-8
77,253,954275,-2616,-15813,-3362,9,0,-10
77,254,954280,-2666,-15816,-3413,7,0,-12
77,255,954285,-2601,-15805,-3455,9,-1,-10
77,256,954290,-2584,-15827,-3462,5,0,-11
77,257,954295,-2544,-15801,-3305,5,-1,-10
77,258,954300,-2499,-15834,-3234,7,-9,-9
77,259,954305,-2491,-15822,-3293,7,-16,-10
77,260,954310,-2516,-15842,-3402,7,-13,-8
77,261,954315,-2428,-15809,-3462,5,-15,-8
77,262,954320,-2404,-15820,-3359,1,-19,-9
77,263,954325,-2404,-15773,-3332,2,-18,-10
77,264,954330,-2476,-15823,-3389,3,-17,-12
77,265,954335,-2571,-15844,-3476,4,-17,-7
77,266,954340,-2499,-15789,-3506,-1,-11,-10
77,267,954345,-2536,-15823,-3419,-5,-1,-13
77,268,954350,-2517,-15855,-3395,-1,-2,-13
77,269,954355,-2491,-15835,-3561,1,-6,-10
77,270,954360,-2586,-15813,-3630,1,-7,-11
77,271,954365,-2594,-15836,-3563,-3,-14,-11
77,272,954370,-2595,-15814,-3447,-5,-19,-8
77,273,954375,-2541,-15845,-3338,-4,-13,-10
77,274,954380,-2486,-15823,-3292,0,-9,-10
77,275,954385,-2458,-15829,-3375,-1,-18,-6
77,276,954390,-2431,-15844,-3477,-1,-23,-5
77,277,954395,-2486,-15820,-3585,0,-9,-8
77,278,954400,-2509,-15816,-3489,-1,-9,-9
77,279,954405,-2424,-15806,-3462,-4,-13,-10
77,280,954410,-2434,-15795,-3575,-2,-15,-7
77,281,954415,-2413,-15802,-3571,1,-7,-6
77,282,954420,-2440,-15805,-3480,1,-6,-10
77,283,954425,-2531,-15841,-3456,-3,-8,-13
77,284,954430,-2571,-15853,-3526,-3,-12,-13
77,285,954435,-2514,-15837,-3525,-2,-3,-14
77,286,954440,-2653,-15825,-3455,-4,3,-16
77,287,954445,-2796,-15829,-3325,-3,-6,-11
77,288,954450,-2630,-15873,-3400,-4,-19,-8
77,289,954455,-2512,-15859,-3566,-5,-15,-8
77,290,954460,-2563,-15852,-3556,-2,-5,-9
77,291,954465,-2591,-15840,-3585,-4,-11,-8
77,292,954470,-2537,-15830,-3685,-6,-18,-7
77,293,954475,-2522,-15810,-3828,-5,-17,-9
77,294,954480,-2442,-15854,-3769,-4,-11,-6
77,295,954485,-2421,-15822,-3663,-3,-6,-3
77,296,954490,-2387,-15819,-3632,-3,-4,0
77,297,954495,-2418,-15796,-3723,0,4,0
77,298,954500,-2499,-15779,-3741,1,20,-2
77,299,954505,-2605,-15772,-3734,1,31,-5
77,300,954510,-2817,-15832,-3832,-2,27,-2
77,301,954515,-2695,-15841,-3834,-6,33,-2
77,302,954520,-2359,-15787,-3871,-9,65,5
77,303,954525,-2393,-15756,-3828,-1,123,-1
77,304,954530,-2757,-15825,-3868,0,167,-12
77,305,954535,-2788,-15813,-3583,-3,184,-8
77,306,954540,-2639,-15763,-3222,-3,184,-3
77,307,954545,-2926,-15834,-3139,-1,167,-9
77,308,954550,-2764,-15908,-3091,-5,124,-8
77,309,954555,-2549,-15830,-3101,-7,73,-4
77,310,954560,-2586,-15812,-3193,-4,32,-10
77,311,954565,-2836,-15935,-3094,-4,-4,-14
77,312,954570,-3049,-15852,-3261,0,-55,-15
77,313,954575,-3001,-15816,-3429,0,-91,-15
77,314,954580,-2792,-15781,-3511,-5,-119,-13
77,315,954585,-2792,-15841,-3425,-2,-147,-15
77,316,954590,-2900,-15832,-3493,1,-182,-13
77,317,954595,-2723,-15838,-3946,1,-199,-5
77,318,954600,-2774,-15821,-4230,0,-171,-3
77,319,954605,-2779,-15764,-4249,2,-126,-5
77,320,954610,-2714,-15720,-3962,0,-76,-8
77,321,954615,-2685,-15760,-3968,-2,-27,-9
77,322,954620,-2743,-15709,-3869,-1,32,-13
77,323,954625,-2805,-15658,-3554,-2,80,-19
77,324,954630,-2857,-15590,-3243,-3,99,-25
77,325,954635,-2885,-15610,-3152,-4,92,-23
77,326,954640,-2854,-15764,-3124,-5,71,-14
77,327,954645,-2660,-15757,-2920,-9,38,-11
77,328,954650,-2620,-15790,-2690,-10,-11,-9
77,329,954655,-2783,-15800,-2631,-11,-63,-1
77,330,954660,-2985,-15804,-2928,-12,-97,2
77,331,954665,-3004,-15832,-3201,-12,-100,4
77,332,954670,-2896,-15804,-3310,-12,-84,8
77,333,954675,-2853,-15696,-3273,-11,-82,12
77,334,954680,-3016,-15734,-3391,-7,-92,14
77,335,954685,-3258,-15706,-3590,-8,-104,12
77,336,954690,-3399,-15573,-3697,-10,-105,18
77,337,954695,-3447,-15513,-3569,-9,-107,19
77,338,954700,-3425,-15588,-3388,-3,-127,23
77,339,954705,-3432,-15719,-3438,1,-168,28
77,340,954710,-3389,-15746,-3413,0,-207,32
77,341,954715,-3357,-15721,-3292,0,-233,35
77,342,954720,-3237,-15700,-3321,5,-250,47
77,343,954725,-3270,-15797,-3502,9,-256,62
77,344,954730,-3219,-15919,-3749,11,-244,63
77,345,954735,-3304,-15888,-3750,13,-200,60
77,346,954740,-3496,-15765,-3616,14,-141,62
77,347,954745,-3689,-15667,-3542,16,-71,65
77,348,954750,-3737,-15849,-3330,22,-2,74
77,349,954755,-3602,-16043,-2961,23,50,79
77,350,954760,-3347,-16133,-2432,29,83,86
77,351,954765,-3318,-15839,-2496,35,59,93
77,352,954770,-3439,-15669,-2421,35,26,102
77,353,954775,-3452,-15694,-2616,35,-20,108
77,354,954780,-3462,-15721,-2830,39,-55,117
77,355,954785,-3374,-15549,-2811,46,-85,132
77,356,954790,-3300,-15474,-3114,53,-129,145
77,357,954795,-3409,-15611,-3510,61,-157,152
77,358,954800,-3598,-15682,-3716,66,-164,156
77,359,954805,-3800,-15528,-3731,73,-151,159
77,360,954810,-4000,-15343,-3678,77,-129,163
77,361,954815,-4019,-15393,-3557,81,-107,168
77,362,954820,-3924,-15652,-3298,91,-78,171
77,363,954825,-3841,-15800,-3306,100,-47,174
77,364,954830,-3743,-15837,-3538,110,-16,175
77,365,954835,-3687,-15849,-3496,110,13,179
77,366,954840,-3568,-15880,-3194,111,26,179
77,367,954845,-3709,-15839,-3136,117,32,177
77,368,954850,-4029,-15722,-3322,122,53,171
77,369,954855,-4110,-15539,-3428,127,79,175
77,370,954860,-3898,-15441,-3389,132,95,186
77,371,954865,-3812,-15583,-3264,140,108,188
77,372,954870,-3832,-15740,-3337,146,115,187
77,373,954875,-3852,-15784,-3223,148,125,188
77,374,954880,-3881,-15715,-2858,149,131,188
77,375,954885,-3853,-15646,-2419,152,117,188
77,376,954890,-3767,-15685,-2437,156,87,192
77,377,954895,-3732,-15612,-2651,158,64,196
77,378,954900,-3702,-15634,-2818,159,42,201
77,379,954905,-3683,-15672,-2709,157,13,206
77,380,954910,-3636,-15753,-2749,158,-17,210
77,381,954915,-3629,-15763,-2851,157,-19,213
77,382,954920,-3620,-15746,-2706,153,11,213
77,383,954925,-3705,-15735,-2305,151,30,212
77,384,954930,-3879,-15723,-2255,154,17,216
77,385,954935,-3899,-15837,-2562,156,-8,224
77,386,954940,-3732,-15961,-2769,151,-10,233
77,387,954945,-3589,-16139,-2757,147,12,235
77,388,954950,-3680,-16165,-2759,148,29,230
77,389,954955,-3952,-16024,-2875,143,35,228
77,390,954960,-4075,-15953,-2889,139,37,234
77,391,954965,-4187,-16001,-2842,136,54,236
77,392,954970,-4183,-16128,-2699,133,79,244
77,393,954975,-3930,-16060,-2334,131,96,249
77,394,954980,-3687,-15947,-2081,128,101,251
77,395,954985,-3839,-15961,-2037,131,83,250
77,396,954990,-3952,-15988,-2176,133,42,257
77,397,954995,-3789,-15935,-2458,129,-2,266
77,398,955000,-3687,-15774,-2529,125,-40,271
77,399,955005,-3851,-15747,-2533,120,-68,273
77,400,955010,-3970,-15822,-2674,119,-88,279
77,401,955015,-3991,-15735,-2782,117,-83,283
77,402,955020,-3981,-15648,-2686,116,-57,284
77,403,955025,-4038,-15729,-2749,114,-27,289
77,404,955030,-4191,-15846,-2981,117,-1,290
77,405,955035,-4237,-15860,-3028,112,32,289
77,406,955040,-4186,-15806,-2886,108,67,291
77,407,955045,-4188,-15673,-2756,109,94,292
77,408,955050,-4258,-15629,-2825,104,104,294
77,409,955055,-4357,-15684,-2733,106,95,296
77,410,955060,-4447,-15798,-2533,105,85,299
77,411,955065,-4354,-15794,-2429,107,75,306
77,412,955070,-4212,-15805,-2334,109,66,312
77,413,955075,-4122,-15794,-2164,107,47,314
77,414,955080,-4125,-15872,-2319,112,9,316
77,415,955085,-4164,-15946,-2794,115,-29,319
77,416,955090,-4208,-15914,-3073,115,-43,324
77,417,955095,-4231,-15732,-3125,113,-45,328
77,418,955100,-4282,-15591,-3188,117,-45,329
77,419,955105,-4598,-15663,-3227,116,-39,326
77,420,955110,-4716,-15763,-3285,119,-16,327
77,421,955115,-4522,-15745,-3064,121,33,330
77,422,955120,-4383,-15679,-2848,122,77,329
77,423,955125,-4261,-15622,-2721,124,88,328
77,424,955130,-4513,-15683,-2661,121,50,335
77,425,955135,-4520,-15738,-2546,119,51,334
77,426,955140,-4559,-15732,-2562,123,71,338
77,427,955145,-4607,-15686,-2797,127,100,340
77,428,955150,-4532,-15628,-2968,127,125,340
77,429,955155,-4537,-15612,-2610,122,138,338
77,430,955160,-4637,-15595,-2295,127,128,339
77,431,955165,-4615,-15541,-2476,129,106,343
77,432,955170,-4404,-15461,-2656,128,98,346
77,433,955175,-4229,-15435,-2585,126,80,351
77,434,955180,-4299,-15440,-2407,127,40,352
77,435,955185,-4533,-15382,-2657,127,-12,352
77,436,955190,-4611,-15397,-3037,130,-42,358
77,437,955195,-4629,-15391,-3069,128,-46,361
77,438,955200,-4692,-15475,-2845,126,-54,363
77,439,955205,-4715,-15609,-2789,124,-74,364
77,440,955210,-4826,-15790,-2704,124,-75,365
77,441,955215,-4678,-15863,-2765,128,-54,368
77,442,955220,-4414,-15861,-2938,131,-25,369
77,443,955225,-4519,-15867,-2986,127,-6,364
77,444,955230,-4754,-15844,-2969,123,-7,359
77,445,955235,-4865,-15822,-2886,122,6,364
77,446,955240,-4876,-15775,-2932,121,41,364
77,447,955245,-4662,-15759,-2877,120,88,366
77,448,955250,-4465,-15904,-2733,121,121,367
77,449,955255,-4404,-15917,-2698,123,127,363
77,450,955260,-4561,-15880,-2865,124,118,361
77,451,955265,-4627,-15769,-2915,118,113,363
77,452,955270,-4621,-15702,-2937,113,100,361
77,453,955275,-4599,-15677,-2900,110,84,362
77,454,955280,-4612,-15676,-2879,112,65,366
77,455,955285,-4724,-15506,-2675,115,63,363
77,456,955290,-4824,-15385,-2464,114,55,364
77,457,955295,-4747,-15371,-2345,117,26,368
77,458,955300,-4526,-15410,-2490,118,-17,373
77,459,955305,-4455,-15423,-2614,115,-49,375
77,460,955310,-4519,-15440,-2740,115,-70,372
77,461,955315,-4732,-15484,-2879,112,-83,370
77,462,955320,-5009,-15452,-2943,110,-73,368
77,463,955325,-5081,-15374,-2992,111,-43,368
77,464,955330,-4946,-15427,-3224,113,12,364
77,465,955335,-4787,-15446,-3219,112,74,360
77,466,955340,-4670,-15393,-2978,113,111,357
77,467,955345,-4710,-15327,-2780,108,103,350
77,468,955350,-4831,-15417,-2719,106,81,344
77,469,955355,-4865,-15473,-2787,106,63,347
77,470,955360,-4779,-15557,-2713,102,64,341
77,471,955365,-4713,-15598,-2542,101,70,335
77,472,955370,-4654,-15587,-2547,102,58,335
77,473,955375,-4544,-15543,-2764,103,40,335
77,474,955380,-4548,-15563,-2861,103,42,333
77,475,955385,-4483,-15658,-2804,104,53,327
77,476,955390,-4433,-15612,-2794,104,63,327
77,477,955395,-4424,-15577,-2858,105,68,324
77,478,955400,-4433,-15627,-3008,103,67,320
77,479,955405,-4413,-15618,-2884,99,57,315
77,480,955410,-4468,-15570,-2693,96,45,312
77,481,955415,-4525,-15558,-2723,97,34,307
77,482,955420,-4411,-15587,-2847,96,38,307
77,483,955425,-4198,-15545,-2807,93,54,305
77,484,955430,-4177,-15570,-2435,90,58,300
77,485,955435,-4221,-15628,-2297,89,40,298
77,486,955440,-4265,-15680,-2655,90,17,298
77,487,955445,-4257,-15673,-3081,88,23,292
77,488,955450,-4255,-15590,-3141,84,49,283
77,489,955455,-4292,-15498,-2864,79,64,277
77,490,955460,-4375,-15446,-2675,77,59,267
77,491,955465,-4471,-15417,-2823,78,60,260
77,492,955470,-4286,-15382,-3048,79,86,256
77,493,955475,-4194,-15335,-3007,78,111,247
77,494,955480,-4226,-15292,-2847,69,111,234
77,495,955485,-4335,-15310,-2912,69,98,229
77,496,955490,-4206,-15281,-3253,66,101,225
77,497,955495,-4199,-15316,-2746,60,134,203
77,498,955500,-4219,-15323,-2621,57,121,196
77,499,955505,-4118,-15266,-2667,55,111,188
77,500,955510,-4053,-15259,-2500,54,117,178
77,501,955515,-4018,-15333,-2309,52,100,170
77,502,955520,-3952,-15399,-2365,52,31,164
77,503,955525,-3935,-15459,-2758,48,-45,157
77,504,955530,-3958,-15496,-3009,42,-83,147
77,505,955535,-3915,-15543,-3077,39,-82,135
77,506,955540,-3909,-15531,-3208,35,-69,120
77,507,955545,-4044,-15442,-3192,33,-54,106
77,508,955550,-3996,-15398,-3326,29,-40,97
77,509,955555,-3774,-15489,-3154,22,-8,88
77,510,955560,-3691,-15524,-2841,17,36,73
77,511,955565,-3706,-15558,-2735,14,62,56
77,512,955570,-3654,-15495,-2741,10,67,43
77,513,955575,-3585,-15311,-2664,1,53,33
77,514,955580,-3637,-15228,-2494,-2,28,22
77,515,955585,-3526,-15210,-2675,-6,-14,11
77,516,955590,-3427,-15219,-2888,-9,-39,3
77,517,955595,-3380,-15268,-2945,-12,-46,-8
77,518,955600,-3329,-15387,-2997,-16,-40,-24
77,519,955605,-3355,-15464,-3142,-20,-32,-39
77,520,955610,-3251,-15485,-3244,-26,-21,-46
77,521,955615,-3126,-15504,-3212,-32,-6,-59
77,522,955620,-3101,-15548,-3126,-32,13,-76
77,523,955625,-3158,-15560,-3168,-35,29,-94
77,524,955630,-3284,-15494,-3427,-40,51,-108
77,525,955635,-3400,-15484,-3462,-41,66,-121
77,526,955640,-3394,-15548,-3171,-50,61,-135
77,527,955645,-3263,-15531,-3091,-57,43,-149
77,528,955650,-3134,-15510,-3231,-57,41,-159
77,529,955655,-3028,-15393,-3241,-56,53,-176
77,530,955660,-2895,-15417,-3163,-60,48,-191
77,531,955665,-2869,-15526,-3088,-67,22,-205
77,532,955670,-2876,-15607,-2937,-68,-10,-223
77,533,955675,-2956,-15587,-2873,-73,-35,-235
77,534,955680,-2767,-15536,-2839,-75,-63,-241
77,535,955685,-2508,-15554,-3075,-77,-91,-254
77,536,955690,-2459,-15635,-3480,-78,-118,-270
77,537,955695,-2536,-15618,-3644,-81,-133,-288
77,538,955700,-2716,-15571,-3458,-89,-139,-301
77,539,955705,-2609,-15499,-3595,-91,-137,-313
77,540,955710,-2360,-15607,-4068,-90,-109,-322
77,541,955715,-2343,-15837,-4291,-95,-57,-342
77,542,955720,-2385,-15891,-4123,-99,-10,-368
77,543,955725,-2478,-15960,-3839,-102,17,-385
77,544,955730,-2293,-15908,-3873,-105,38,-400
77,545,955735,-2145,-15880,-3696,-107,73,-417
77,546,955740,-2178,-16074,-3458,-111,78,-433
77,547,955745,-2030,-16207,-3352,-117,41,-447
77,548,955750,-1852,-16136,-3433,-123,-3,-466
77,549,955755,-1848,-16089,-3389,-127,-30,-481
77,550,955760,-2159,-16048,-3292,-132,-63,-500
77,551,955765,-2303,-15946,-3409,-138,-101,-517
77,552,955770,-2106,-15943,-3765,-142,-114,-527
77,553,955775,-1955,-15922,-3897,-145,-90,-545
77,554,955780,-1766,-15889,-3890,-149,-67,-563
77,555,955785,-1708,-15935,-3693,-153,-65,-575
77,556,955790,-1648,-16050,-3661,-160,-82,-592
77,557,955795,-1555,-16197,-3917,-166,-81,-609
77,558,955800,-1456,-16371,-4103,-168,-44,-624
77,559,955805,-1320,-16442,-4061,-177,6,-648
77,560,955810,-1258,-16487,-3782,-187,30,-667
77,561,955815,-1270,-16497,-3480,-194,33,-686
77,562,955820,-1323,-16491,-3348,-195,24,-702
77,563,955825,-1339,-16530,-3532,-199,8,-713
77,564,955830,-1279,-16636,-3734,-205,-14,-727
77,565,955835,-1278,-16702,-3956,-216,-49,-741
77,566,955840,-1251,-16742,-4273,-220,-79,-752
77,567,955845,-1268,-16893,-4635,-223,-88,-764
77,568,955850,-1343,-16940,-4658,-230,-72,-785
77,569,955855,-1293,-16887,-4500,-237,-47,-804
77,570,955860,-1150,-16823,-4716,-240,11,-835
77,571,955865,-1048,-16788,-4480,-245,48,-853
77,572,955870,-1165,-16789,-4126,-252,74,-875
77,573,955875,-1290,-16790,-4161,-253,93,-892
77,574,955880,-1228,-16807,-4286,-257,128,-901
77,575,955885,-984,-16734,-4216,-261,170,-917
77,576,955890,-924,-16848,-3753,-265,203,-942
77,577,955895,-1136,-17087,-3265,-267,203,-960
77,578,955900,-1092,-17271,-3384,-272,175,-969
77,579,955905,-772,-17358,-3898,-277,161,-977
77,580,955910,-844,-17541,-3868,-285,172,-998
77,581,955915,-1262,-17578,-3622,-292,167,-1021
77,582,955920,-1553,-17321,-3694,-297,161,-1034
77,583,955925,-1659,-17136,-3934,-299,191,-1039
77,584,955930,-1528,-17251,-4067,-298,232,-1046
77,585,955935,-1528,-17559,-3781,-298,236,-1059
77,586,955940,-1723,-17680,-3548,-303,196,-1078
77,587,955945,-1883,-17608,-3535,-303,163,-1092
77,588,955950,-2099,-17448,-3504,-304,161,-1104
77,589,955955,-2233,-17418,-3331,-305,145,-1115
77,590,955960,-2123,-17270,-3221,-308,77,-1128
77,591,955965,-1884,-17118,-3154,-312,-4,-1139
77,592,955970,-1850,-17049,-3120,-306,-52,-1153
77,593,955975,-1933,-17093,-3378,-300,-72,-1163
77,594,955980,-2064,-17154,-3616,-304,-84,-1169
77,595,955985,-2068,-17101,-3808,-307,-100,-1176
77,596,955990,-2091,-17085,-4016,-311,-96,-1183
77,597,955995,-2217,-17060,-4160,-309,-68,-1194
77,598,956000,-1746,-15677,-4146,-307,-30,-1200
77,599,956005,-618,-9902,-4089,-332,-15,-1136
77,600,956010,-8616,-11361,15524,-238,58,-1128
77,601,956015,5680,-13058,-15195,-151,-1393,-292
77,602,956020,9566,-19455,-14905,-114,854,-618
77,603,956025,-1784,-21528,4041,-223,2421,-1373
77,604,956030,-4981,-19255,9457,-241,350,-1024
77,605,956035,-4380,-13368,-3318,-133,-1352,-733
77,606,956040,-5718,-14334,-12922,-201,-823,-787
77,607,956045,-3622,-18094,-10306,-221,467,-811
77,608,956050,-2306,-17141,-686,-278,1147,-913
77,609,956055,-619,-15923,663,-266,521,-896
77,610,956060,-445,-16916,-5671,-149,-92,-797
77,611,956065,-3021,-17363,-6541,-194,262,-836
77,612,956070,-2718,-16622,-3703,-224,685,-886
77,613,956075,-1840,-16308,198,-246,710,-894
77,614,956080,-1564,-16388,-579,-246,259,-882
77,615,956085,-1365,-16904,-3675,-214,-122,-848
77,616,956090,-1935,-16689,-4431,-223,-30,-866
77,617,956095,-2733,-16278,-3250,-215,176,-883
77,618,956100,-2610,-16234,-2698,-206,178,-883
77,619,956105,-2207,-16465,-3521,-212,81,-867
77,620,956110,-1585,-16930,-4275,-224,73,-851
77,621,956115,-1442,-16922,-3369,-234,195,-871
77,622,956120,-1718,-16908,-2307,-224,246,-885
77,623,956125,-2035,-16762,-2545,-215,153,-884
77,624,956130,-2101,-16710,-3314,-215,55,-872
77,625,956135,-2001,-16632,-3500,-227,40,-873
77,626,956140,-1795,-16666,-2904,-231,74,-871
77,627,956145,-1535,-16838,-2523,-230,62,-868
77,628,956150,-1392,-17031,-2784,-231,11,-864
77,629,956155,-1223,-16921,-3414,-229,-25,-862
77,630,956160,-1254,-16585,-3407,-234,-1,-867
77,631,956165,-1510,-16550,-3036,-231,15,-864
77,632,956170,-1610,-16616,-3085,-233,-20,-853
77,633,956175,-1231,-16581,-3327,-236,-68,-842
77,634,956180,-1047,-16520,-3388,-235,-78,-828
77,635,956185,-1187,-16370,-3348,-231,-84,-824
77,636,956190,-1211,-16247,-3396,-230,-119,-813
77,637,956195,-1166,-16292,-3330,-231,-158,-797
77,638,956200,-1073,-16455,-3469,-226,-175,-783
77,639,956205,-937,-16503,-3693,-223,-159,-768
77,640,956210,-740,-16378,-3521,-218,-129,-765
77,641,956215,-758,-16395,-3164,-218,-124,-757
77,642,956220,-678,-16383,-3375,-213,-147,-745
77,643,956225,-537,-16439,-4029,-208,-156,-727
77,644,956230,-360,-16276,-3833,-211,-139,-711
77,645,956235,-659,-16182,-3631,-209,-161,-702
77,646,956240,-893,-16012,-3691,-207,-155,-691
77,647,956245,-704,-15906,-3890,-197,-117,-668
77,648,956250,-365,-15836,-3765,-192,-76,-652
77,649,956255,-241,-15860,-3706,-190,-85,-647
77,650,956260,-262,-15924,-3701,-187,-125,-640
77,651,956265,-450,-15996,-3721,-185,-152,-630
77,652,956270,-592,-15828,-3709,-183,-147,-621
77,653,956275,-557,-15812,-3745,-178,-130,-603
77,654,956280,-292,-15760,-3800,-177,-110,-595
77,655,956285,-205,-15738,-3741,-171,-90,-584
77,656,956290,-165,-15772,-3586,-163,-80,-577
77,657,956295,21,-15788,-3275,-160,-89,-566
77,658,956300,272,-15938,-3140,-156,-126,-550
77,659,956305,517,-15900,-3432,-152,-173,-529
77,660,956310,700,-15926,-3927,-146,-195,-511
77,661,956315,450,-15998,-3991,-146,-200,-503
77,662,956320,114,-15968,-3800,-146,-206,-493
77,663,956325,-60,-15903,-3825,-143,-215,-471
77,664,956330,1,-15904,-4064,-139,-189,-463
77,665,956335,-35,-15973,-4230,-135,-119,-459
77,666,956340,75,-16004,-4361,-131,-53,-454
77,667,956345,95,-15906,-4265,-130,-34,-448
77,668,956350,99,-15768,-4109,-131,-45,-443
77,669,956355,-76,-15645,-3985,-126,-59,-434
77,670,956360,-255,-15530,-3951,-120,-77,-427
77,671,956365,-31,-15339,-4009,-116,-95,-415
77,672,956370,326,-15272,-4107,-108,-109,-398
77,673,956375,405,-15363,-4147,-104,-111,-395
77,674,956380,260,-15419,-3988,-101,-120,-389
77,675,956385,355,-15341,-3723,-100,-141,-373
77,676,956390,485,-15246,-3572,-95,-163,-361
77,677,956395,470,-15364,-3764,-91,-180,-353
77,678,956400,539,-15508,-4086,-92,-190,-343
77,679,956405,740,-15446,-4398,-96,-198,-338
77,680,956410,888,-15096,-4246,-98,-193,-335
77,681,956415,698,-15161,-4046,-93,-189,-321
77,682,956420,854,-15344,-4376,-88,-182,-309
77,683,956425,1181,-15402,-4553,-84,-144,-302
77,684,956430,1153,-15557,-4382,-86,-106,-300
77,685,956435,662,-15592,-4254,-86,-111,-293
77,686,956440,467,-15260,-4602,-89,-144,-279
77,687,956445,671,-15025,-5156,-90,-138,-263
77,688,956450,885,-15067,-5009,-87,-85,-255
77,689,956455,1005,-15151,-4239,-83,-50,-255
77,690,956460,1041,-15151,-3896,-76,-82,-250
77,691,956465,1228,-15164,-4149,-68,-135,-229
77,692,956470,1364,-15215,-4637,-64,-157,-214
77,693,956475,1549,-15194,-4830,-65,-164,-207
77,694,956480,1386,-15257,-4576,-70,-187,-201
77,695,956485,1145,-15213,-4510,-73,-229,-193
77,696,956490,1238,-15257,-4846,-69,-246,-178
77,697,956495,1467,-15261,-5003,-64,-213,-170
77,698,956500,1655,-15371,-4905,-64,-179,-166
77,699,956505,1559,-15390,-4633,-62,-183,-162
77,700,956510,1453,-15287,-4506,-62,-213,-157
77,701,956515,1509,-15195,-4697,-60,-227,-145
77,702,956520,1546,-15177,-4982,-57,-203,-132
77,703,956525,1697,-15273,-5114,-56,-167,-128
77,704,956530,1739,-15295,-4934,-57,-154,-129
77,705,956535,1645,-15326,-4760,-61,-163,-123
77,706,956540,1671,-15212,-4727,-60,-166,-110
77,707,956545,1755,-15226,-4975,-55,-148,-99
77,708,956550,1815,-15327,-5205,-55,-111,-99
77,709,956555,1892,-15165,-5304,-53,-88,-94
77,710,956560,1863,-15064,-5318,-59,-77,-87
77,711,956565,1676,-15150,-5071,-59,-67,-84
77,712,956570,1692,-15259,-4919,-58,-59,-82
77,713,956575,1924,-15158,-4901,-54,-62,-72
77,714,956580,2071,-15080,-4880,-54,-65,-65
77,715,956585,2233,-14960,-4744,-52,-87,-61
77,716,956590,2351,-14950,-4450,-53,-124,-54
77,717,956595,2305,-15023,-4758,-53,-189,-40
77,718,956600,2174,-15009,-4851,-53,-181,-36
77,719,956605,2162,-15032,-4996,-56,-187,-29
77,720,956610,2164,-14980,-5255,-59,-184,-23
77,721,956615,2045,-15041,-5543,-63,-163,-21
77,722,956620,2173,-15073,-5528,-64,-124,-21
77,723,956625,2358,-15059,-5346,-65,-78,-20
77,724,956630,2423,-15221,-5362,-63,-61,-21
77,725,956635,2435,-15279,-5416,-66,-44,-21
77,726,956640,2293,-15249,-5263,-71,-22,-19
77,727,956645,2047,-15227,-5047,-72,-17,-16
77,728,956650,1979,-15094,-5141,-71,-25,-10
77,729,956655,2055,-15017,-5087,-66,-25,-7
77,730,956660,2200,-14982,-4842,-62,-31,-10
77,731,956665,2409,-14975,-4782,-62,-62,-1
77,732,956670,2579,-14995,-5060,-61,-106,8
77,733,956675,2542,-15024,-5281,-62,-141,10
77,734,956680,2417,-14996,-5105,-72,-160,6
77,735,956685,2284,-14989,-4985,-69,-167,11
77,736,956690,2531,-15001,-5140,-66,-158,19
77,737,956695,2795,-15049,-5342,-71,-132,27
77,738,956700,2753,-15070,-5214,-70,-109,22
77,739,956705,2504,-15136,-5050,-73,-112,19
77,740,956710,2427,-15063,-5310,-71,-123,26
77,741,956715,2809,-14829,-5741,-69,-107,33
77,742,956720,2823,-14898,-5688,-73,-66,33
77,743,956725,2665,-15123,-5456,-73,-59,36
77,744,956730,2708,-15069,-5563,-68,-61,47
77,745,956735,2761,-15040,-5772,-65,-28,50
77,746,956740,2814,-15074,-5711,-63,27,53
77,747,956745,2903,-15098,-5344,-61,47,55
77,748,956750,2802,-15102,-5008,-62,8,54
77,749,956755,2759,-15115,-5167,-59,-50,60
77,750,956760,2843,-15154,-5325,-54,-68,67
77,751,956765,2979,-14994,-5092,-50,-64,75
77,752,956770,2981,-14945,-5061,-45,-83,78
77,753,956775,2866,-15108,-5373,-44,-120,79
77,754,956780,2761,-15178,-5620,-44,-149,85
77,755,956785,2728,-15116,-5604,-45,-151,92
77,756,956790,2605,-15146,-5511,-45,-130,93
77,757,956795,2567,-15181,-5708,-40,-106,95
77,758,956800,2608,-15220,-5898,-34,-62,95
77,759,956805,2552,-15297,-5720,-35,-11,92
77,760,956810,2522,-15274,-5592,-29,9,90
77,761,956815,2575,-15066,-5481,-30,18,87
77,762,956820,2692,-15183,-5594,-28,7,92
77,763,956825,2797,-15287,-5758,-26,-8,95
77,764,956830,2746,-15251,-5703,-25,-5,93
77,765,956835,2777,-15239,-5718,-24,9,90
77,766,956840,2691,-15228,-5584,-21,37,87
77,767,956845,2649,-15207,-5347,-19,56,88
77,768,956850,2632,-15087,-5248,-18,65,88
77,769,956855,2709,-15099,-5193,-16,60,90
77,770,956860,2819,-15133,-5185,-15,44,92
77,771,956865,2943,-15050,-4945,-16,25,87
77,772,956870,2846,-15152,-4823,-15,-12,87
77,773,956875,2817,-15175,-5149,-11,-50,85
77,774,956880,2929,-15178,-5439,-10,-56,87
77,775,956885,2877,-15134,-5408,-11,-36,87
77,776,956890,2790,-15129,-5381,-9,-39,87
77,777,956895,2814,-15101,-5685,-9,-52,87
77,778,956900,2798,-15152,-5764,-9,-18,85
77,779,956905,2813,-15229,-5438,-9,13,81
77,780,956910,2940,-15207,-5256,-8,11,81
77,781,956915,3126,-15231,-5329,-2,-11,86
77,782,956920,3109,-15236,-5583,-2,-22,82
77,783,956925,2951,-15224,-5613,-3,-28,76
77,784,956930,2872,-15229,-5617,-4,-34,73
77,785,956935,2787,-15228,-5498,-1,-22,60
77,786,956940,2735,-15300,-5393,4,-13,61
77,787,956945,2929,-15262,-5439,5,-9,68
77,788,956950,3045,-15222,-5382,7,7,65
77,789,956955,2923,-15250,-5299,11,20,59
77,790,956960,2922,-15185,-5239,12,5,61
77,791,956965,2940,-15240,-5276,12,-11,57
77,792,956970,2890,-15213,-5350,10,-32,54
77,793,956975,2795,-15176,-5350,10,-47,49
77,794,956980,2773,-15128,-5233,10,-55,50
77,795,956985,2749,-15150,-5260,10,-54,48
77,796,956990,2863,-15237,-5444,12,-45,46
77,797,956995,2884,-15281,-5270,14,-25,44
77,798,957000,2840,-15218,-5035,11,-25,38
77,799,957005,2728,-15294,-5139,14,-37,38
77,800,957010,2614,-15315,-5230,12,-42,37
77,801,957015,2714,-15228,-5182,16,-48,33
77,802,957020,2696,-15205,-5281,14,-61,31
77,803,957025,2774,-15252,-5595,17,-83,33
77,804,957030,2770,-15236,-5900,21,-79,31
77,805,957035,2693,-15188,-6100,19,-43,23
77,806,957040,2559,-15255,-5992,17,5,17
77,807,957045,2534,-15286,-5676,15,42,16
77,808,957050,2721,-15202,-5304,14,63,15
77,809,957055,2848,-15228,-4973,19,69,13
77,810,957060,2785,-15398,-4698,21,54,10
77,811,957065,2734,-15446,-4478,19,15,10
77,812,957070,2794,-15478,-4586,18,-29,14
77,813,957075,2753,-15547,-4865,18,-60,18
77,814,957080,2645,-15589,-5012,12,-79,14
77,815,957085,2693,-15591,-5091,11,-104,17
77,816,957090,2745,-15627,-5423,12,-124,21
77,817,957095,2687,-15597,-5590,11,-114,16
77,818,957100,2663,-15579,-5219,11,-90,18
77,819,957105,2671,-15549,-5010,15,-95,21
77,820,957110,2685,-15591,-5305,17,-115,26
77,821,957115,2931,-15596,-5529,17,-120,26
77,822,957120,2902,-15510,-5398,13,-120,19
77,823,957125,2648,-15449,-5356,14,-139,16
77,824,957130,2546,-15357,-5667,11,-146,16
77,825,957135,2644,-15266,-6010,11,-118,16
77,826,957140,2650,-15288,-5791,13,-60,12
77,827,957145,2664,-15199,-5431,13,-36,10
77,828,957150,2580,-15178,-5521,14,-46,9
77,829,957155,2657,-15154,-5674,17,-41,8
77,830,957160,2785,-15117,-5699,19,-25,8
77,831,957165,2726,-15109,-5434,22,-22,6
77,832,957170,2564,-15091,-5369,24,-45,9
77,833,957175,2592,-15089,-5516,26,-67,12
77,834,957180,2749,-15100,-5571,29,-57,15
77,835,957185,2867,-15163,-5365,33,-42,18
77,836,957190,2990,-15206,-5185,34,-55,20
77,837,957195,3032,-15225,-5129,33,-85,20
77,838,957200,2806,-15257,-5260,35,-112,19
77,839,957205,2722,-15207,-5397,35,-127,20
77,840,957210,2717,-15312,-5454,33,-133,22
77,841,957215,2631,-15449,-5449,30,-139,25
77,842,957220,2594,-15451,-5597,29,-132,23
77,843,957225,2524,-15370,-5657,28,-101,20
77,844,957230,2507,-15275,-5594,29,-63,18
77,845,957235,2615,-15196,-5398,30,-37,19
77,846,957240,2657,-15248,-5385,32,-40,20
77,847,957245,2516,-15315,-5474,34,-54,22
77,848,957250,2482,-15346,-5430,33,-64,21
77,849,957255,2522,-15329,-5247,33,-71,24
77,850,957260,2456,-15277,-5160,35,-79,24
77,851,957265,2388,-15253,-5271,37,-88,24
77,852,957270,2466,-15276,-5386,36,-91,28
77,853,957275,2614,-15314,-5512,34,-90,32
77,854,957280,2597,-15362,-5632,31,-82,30
77,855,957285,2517,-15433,-5621,29,-79,29
77,856,957290,2497,-15448,-5671,25,-61,25
77,857,957295,2428,-15491,-5539,26,-21,18
77,858,957300,2225,-15490,-5319,22,23,17
77,859,957305,2115,-15450,-5030,19,46,17
77,860,957310,2219,-15349,-4874,17,40,15
77,861,957315,2302,-15328,-4878,16,22,15
77,862,957320,2346,-15371,-4855,12,-6,17
77,863,957325,2277,-15330,-4737,11,-43,14
77,864,957330,2323,-15341,-5097,12,-92,18
77,865,957335,2373,-15349,-5241,12,-82,18
77,866,957340,2472,-15357,-5331,7,-81,19
77,867,957345,2484,-15350,-5331,7,-94,21
77,868,957350,2538,-15336,-5465,6,-110,24
77,869,957355,2478,-15442,-5543,4,-111,28
77,870,957360,2366,-15489,-5461,5,-102,25
77,871,957365,2296,-15494,-5293,4,-91,25
77,872,957370,2337,-15400,-5331,5,-87,25
77,873,957375,2459,-15340,-5365,7,-80,27
77,874,957380,2395,-15446,-5291,9,-80,29
77,875,957385,2333,-15453,-5314,10,-98,28
77,876,957390,2320,-15367,-5422,6,-109,26
77,877,957395,2209,-15381,-5618,5,-87,25
77,878,957400,2078,-15394,-5664,8,-48,20
77,879,957405,1934,-15334,-5476,8,-13,21
77,880,957410,1896,-15366,-5326,5,10,22
77,881,957415,1857,-15387,-5136,6,36,17
77,882,957420,1985,-15325,-5150,7,49,18
77,883,957425,2182,-15332,-5042,10,48,16
77,884,957430,2179,-15306,-4811,9,14,14
77,885,957435,2008,-15296,-4897,6,-42,13
77,886,957440,2049,-15214,-5252,8,-86,15
77,887,957445,2183,-15221,-5474,7,-88,14
77,888,957450,2164,-15292,-5399,7,-68,12
77,889,957455,2145,-15314,-5308,7,-57,13
77,890,957460,2261,-15364,-5256,8,-52,17
77,891,957465,2308,-15471,-5216,13,-44,19
77,892,957470,2395,-15495,-5086,14,-43,23
77,893,957475,2486,-15442,-5135,13,-55,25
77,894,957480,2435,-15491,-5368,14,-71,26
77,895,957485,2300,-15538,-5575,18,-81,26
77,896,957490,2268,-15437,-5614,17,-69,28
77,897,957495,2260,-15323,-5612,19,-42,26
77,898,957500,2075,-15346,-5539,18,-17,24
77,899,957505,2095,-15408,-5560,18,-4,22
77,900,957510,2042,-15423,-5398,23,8,22
77,901,957515,2008,-15424,-5263,23,22,20
77,902,957520,2038,-15363,-5334,26,29,22
77,903,957525,2120,-15286,-5406,27,26,28
77,904,957530,2181,-15269,-5324,26,22,21
77,905,957535,2188,-15376,-5243,30,16,22
77,906,957540,2167,-15425,-5254,31,11,26
77,907,957545,2195,-15403,-5328,32,13,21
77,908,957550,2110,-15404,-5174,30,17,20
77,909,957555,2015,-15416,-5117,31,12,24
77,910,957560,2104,-15296,-5217,35,11,28
77,911,957565,2264,-15271,-5299,36,16,32
77,912,957570,2384,-15283,-5212,35,14,33
77,913,957575,2520,-15348,-5212,35,-11,35
77,914,957580,2517,-15402,-5366,34,-35,39
77,915,957585,2466,-15441,-5450,32,-43,39
77,916,957590,2338,-15506,-5365,34,-26,38
77,917,957595,2327,-15456,-5462,35,1,41
77,918,957600,2416,-15486,-5609,34,28,42
77,919,957605,2471,-15406,-5558,30,53,34
77,920,957610,2262,-15365,-5099,29,59,29
77,921,957615,2128,-15319,-4961,30,28,40
77,922,957620,2202,-15271,-5185,31,5,46
77,923,957625,2201,-15308,-5295,34,10,49
77,924,957630,2279,-15348,-5209,37,19,51
77,925,957635,2355,-15364,-5140,34,6,51
77,926,957640,2264,-15438,-5325,35,-22,52
77,927,957645,2253,-15512,-5444,32,-34,55
77,928,957650,2302,-15505,-5428,29,-22,52
77,929,957655,2299,-15500,-5453,28,6,52
77,930,957660,2112,-15497,-5294,25,26,50
77,931,957665,2072,-15447,-5171,25,29,47
77,932,957670,2161,-15439,-5198,27,31,48
77,933,957675,2313,-15527,-5201,28,28,52
77,934,957680,2454,-15529,-5335,28,12,52
77,935,957685,2299,-15544,-5554,28,-8,49
77,936,957690,2092,-15499,-5791,25,-16,47
77,937,957695,2164,-15410,-5423,22,43,48
77,938,957700,2207,-15442,-5210,24,61,46
77,939,957705,2222,-15421,-5106,25,53,44
77,940,957710,2251,-15388,-5038,26,28,48
77,941,957715,2285,-15399,-5078,25,5,49
77,942,957720,2360,-15394,-5295,24,-18,49
77,943,957725,2197,-15484,-5512,21,-30,44
77,944,957730,2024,-15508,-5596,18,-29,42
77,945,957735,2032,-15403,-5634,14,-7,44
77,946,957740,2033,-15488,-5471,13,30,40
77,947,957745,2018,-15477,-5216,17,55,39
77,948,957750,2104,-15427,-5054,13,50,40
77,949,957755,2242,-15437,-5022,11,26,35
77,950,957760,2177,-15457,-5037,12,-10,37
77,951,957765,2177,-15420,-5005,8,-45,35
77,952,957770,2136,-15470,-5112,7,-74,38
77,953,957775,2132,-15486,-5391,8,-80,37
77,954,957780,2228,-15415,-5608,8,-62,39
77,955,957785,2188,-15368,-5583,8,-34,32
77,956,957790,2085,-15390,-5395,3,-22,28
77,957,957795,2070,-15379,-5324,2,-22,30
77,958,957800,2110,-15349,-5342,5,-25,31
77,959,957805,2110,-15362,-5299,5,-30,34
77,960,957810,2133,-15429,-5327,4,-52,34
77,961,957815,2122,-15373,-5219,1,-80,34
77,962,957820,2112,-15299,-5285,-1,-91,31
77,963,957825,1967,-15346,-5465,-1,-75,30
77,964,957830,1833,-15328,-5474,-2,-48,31
77,965,957835,1832,-15284,-5300,-6,-30,37
77,966,957840,1978,-15333,-5226,-5,-28,38
77,967,957845,2089,-15383,-5217,-5,-28,40
77,968,957850,2135,-15423,-5314,-5,-22,33
77,969,957855,2043,-15458,-5332,-7,-21,32
77,970,957860,2017,-15366,-5464,-12,-22,34
77,971,957865,1978,-15344,-5475,-11,-15,37
77,972,957870,1984,-15413,-5378,-10,2,35
77,973,957875,2081,-15521,-5215,-9,8,37
77,974,957880,2248,-15493,-5122,-7,2,38
77,975,957885,2304,-15563,-5089,-11,-20,34
77,976,957890,2223,-15567,-5086,-13,-39,30
77,977,957895,2053,-15508,-5127,-14,-57,31
77,978,957900,1892,-15308,-5286,-16,-61,29
77,979,957905,1829,-15194,-5493,-18,-39,31
77,980,957910,1847,-15223,-5457,-18,-12,37
77,981,957915,1988,-15276,-5259,-18,-1,37
77,982,957920,2173,-15336,-5242,-16,-10,40
77,983,957925,2306,-15420,-5432,-17,-26,42
77,984,957930,2213,-15554,-5497,-18,-41,41
77,985,957935,2020,-15488,-5444,-24,-46,39
77,986,957940,1957,-15420,-5437,-27,-41,40
77,987,957945,2054,-15311,-5352,-24,-8,43
77,988,957950,2090,-15276,-5283,-18,33,42
77,989,957955,2031,-15238,-5195,-17,50,40
77,990,957960,2128,-15222,-5068,-15,39,42
77,991,957965,2181,-15359,-5086,-16,15,46
77,992,957970,2149,-15474,-5179,-20,-5,43
77,993,957975,2077,-15553,-5313,-24,-22,43
77,994,957980,1923,-15476,-4975,-30,-35,43
77,995,957985,1950,-15462,-4906,-28,-51,48
77,996,957990,1941,-15509,-4951,-25,-48,49
77,997,957995,2052,-15498,-4934,-27,-31,46
77,998,958000,2143,-15450,-4686,-29,-37,51
77,999,958005,2252,-15453,-4684,-28,-74,51
