event_id,seq,ts_ms,ax,ay,az,gx,gy,gz
3,0,113018,-171,-16433,1463,4,-121,4
3,1,113023,-233,-16436,1490,4,-123,4
3,2,113028,-255,-16424,1429,4,-124,3
3,3,113033,-202,-16452,1450,3,-118,0
3,4,113038,-175,-16491,1499,1,-108,-3
3,5,113043,-162,-16413,1519,2,-103,-5
3,6,113048,-124,-16410,1624,2,-102,-4
3,7,113053,-75,-16415,1549,2,-104,0
3,8,113058,-13,-16427,1578,2,-98,-2
3,9,113063,71,-16413,1664,-3,-85,-5
3,10,113068,35,-16375,1674,-6,-78,-5
3,11,113073,72,-16447,1594,-5,-80,-6
3,12,113078,139,-16446,1517,-8,-74,-3
3,13,113083,86,-16397,1518,-11,-63,-3
3,14,113088,0,-16409,1489,-11,-56,-5
3,15,113093,-64,-16476,1396,-10,-56,-4
3,16,113098,-223,-16545,1173,-10,-58,-4
3,17,113103,-403,-16523,856,-9,-59,-3
3,18,113108,-565,-16515,717,-7,-46,-4
3,19,113113,-713,-16569,603,-7,-33,-10
3,20,113118,-692,-16631,588,-3,-25,-13
3,21,113123,-554,-16619,771,-2,-13,-14
3,22,113128,-500,-16520,1034,-3,1,-19
3,23,113133,-470,-16461,1322,-2,11,-24
3,24,113138,-350,-16354,1706,-1,19,-29
3,25,113143,-213,-16320,1791,-1,26,-26
3,26,113148,-76,-16341,1823,-1,34,-30
3,27,113153,-1,-16307,1999,-2,42,-34
3,28,113158,-25,-16340,2015,-3,31,-34
3,29,113163,-36,-16333,1906,-5,8,-32
3,30,113168,-25,-16397,1822,-5,-8,-32
3,31,113173,73,-16410,1642,-4,-12,-29
3,32,113178,62,-16401,1671,-6,-14,-24
3,33,113183,71,-16391,1721,-8,-29,-25
3,34,113188,100,-16362,1623,-10,-54,-22
3,35,113193,287,-16399,1526,-10,-65,-20
3,36,113198,446,-16422,1463,-8,-70,-17
3,37,113203,562,-16406,1424,-6,-70,-15
3,38,113208,588,-16393,1446,-6,-73,-10
3,39,113213,635,-16353,1324,-4,-89,-3
3,40,113218,540,-16394,1148,-3,-97,-4
3,41,113223,351,-16491,967,-3,-98,-4
3,42,113228,166,-16569,720,-1,-88,0
3,43,113233,-1,-16584,674,2,-64,-5
3,44,113238,-76,-16591,608,-1,-40,-4
3,45,113243,-193,-16544,769,-1,-12,-6
3,46,113248,-297,-16481,1017,0,10,-12
3,47,113253,-435,-16440,1250,3,29,-17
3,48,113258,-573,-16420,1286,3,46,-24
3,49,113263,-609,-16487,1350,1,67,-28
3,50,113268,-569,-16486,1450,2,84,-31
3,51,113273,-480,-16462,1507,3,94,-35
3,52,113278,-449,-16436,1664,-1,94,-38
3,53,113283,-448,-16391,1815,0,82,-43
3,54,113288,-415,-16354,1883,-1,64,-43
3,55,113293,-308,-16385,1866,-2,53,-41
3,56,113298,-165,-16397,1856,-2,53,-42
3,57,113303,18,-16353,1962,-4,51,-43
3,58,113308,205,-16295,1988,-7,31,-42
3,59,113313,280,-16299,1830,-4,-3,-37
3,60,113318,401,-16489,1635,-4,-37,-32
3,61,113323,436,-16460,1430,-4,-63,-24
3,62,113328,446,-16451,1257,-6,-78,-21
3,63,113333,451,-16474,1167,-4,-88,-15
3,64,113338,469,-16473,1166,-4,-102,-13
3,65,113343,426,-16499,1168,-1,-120,-9
3,66,113348,399,-16489,1208,-2,-129,-6
3,67,113353,363,-16378,1219,-4,-127,-2
3,68,113358,366,-16382,1198,-4,-118,-3
3,69,113363,350,-16408,1253,-4,-103,-6
3,70,113368,335,-16473,1211,1,-93,-7
3,71,113373,330,-16489,1169,0,-85,-8
3,72,113378,329,-16524,1086,-2,-77,-4
3,73,113383,323,-16497,1231,-3,-60,-3
3,74,113388,299,-16398,1268,-5,-37,-7
3,75,113393,298,-16385,1325,-4,-16,-10
3,76,113398,329,-16435,1315,0,3,-9
3,77,113403,275,-16451,1307,-2,19,-10
3,78,113408,291,-16461,1307,-3,32,-10
3,79,113413,248,-16465,1396,-5,40,-10
3,80,113418,229,-16417,1522,-5,36,-9
3,81,113423,247,-16402,1443,-3,32,-7
3,82,113428,266,-16414,1419,-4,32,-9
3,83,113433,303,-16398,1429,-4,38,-6
3,84,113438,336,-16422,1404,-2,24,-1
3,85,113443,321,-16451,1492,-4,13,0
3,86,113448,216,-16434,1460,-5,1,5
3,87,113453,120,-16422,1306,-6,-5,7
3,88,113458,-102,-16486,1086,-4,1,4
3,89,113463,-175,-16603,898,0,8,4
3,90,113468,-152,-16625,966,-2,20,5
3,91,113473,-131,-16532,959,-4,22,7
3,92,113478,-118,-16396,1095,-4,30,4
3,93,113483,-87,-16438,1181,2,35,2
3,94,113488,-173,-16510,1106,3,44,-2
3,95,113493,-156,-16534,962,4,58,-6
3,96,113498,-194,-16526,995,1,70,-7
3,97,113503,-199,-16521,1125,0,78,-9
3,98,113508,-230,-16471,1219,4,74,-11
3,99,113513,-119,-16489,1264,6,72,-10
3,100,113518,-77,-16439,1337,3,80,-9
3,101,113523,-46,-16399,1412,4,85,-12
3,102,113528,-97,-16357,1543,6,87,-19
3,103,113533,-29,-16459,1522,6,82,-22
3,104,113538,-9,-16489,1487,8,73,-16
3,105,113543,12,-16441,1304,6,65,-13
3,106,113548,-14,-16385,1253,2,66,-14
3,107,113553,28,-16471,1264,6,59,-14
3,108,113558,22,-16545,1308,11,51,-14
3,109,113563,71,-16452,1204,10,36,-13
3,110,113568,161,-16404,1145,10,31,-14
3,111,113573,349,-16435,1255,9,26,-9
3,112,113578,378,-16399,1332,13,12,-6
3,113,113583,373,-16431,1414,14,-7,-5
3,114,113588,245,-16423,1363,17,-23,0
3,115,113593,187,-16427,1241,17,-39,-1
3,116,113598,22,-16454,1353,14,-46,3
3,117,113603,44,-16418,1312,17,-55,9
3,118,113608,86,-16396,1441,20,-57,7
3,119,113613,76,-16422,1487,18,-72,8
3,120,113618,109,-16398,1569,19,-87,11
3,121,113623,109,-16382,1556,20,-99,12
3,122,113628,21,-16404,1584,21,-108,10
3,123,113633,16,-16426,1557,21,-118,13
3,124,113638,-84,-16413,1455,18,-122,14
3,125,113643,-81,-16488,1210,22,-133,15
3,126,113648,-41,-16553,1191,22,-133,16
3,127,113653,-47,-16545,1181,22,-135,17
3,128,113658,10,-16467,1294,20,-139,18
3,129,113663,11,-16394,1366,19,-138,16
3,130,113668,-38,-16429,1379,23,-138,14
3,131,113673,-65,-16540,1263,25,-129,12
3,132,113678,-108,-16562,1168,24,-116,10
3,133,113683,-215,-16572,1089,25,-98,9
3,134,113688,-319,-16637,1017,23,-80,9
3,135,113693,-397,-16681,1050,19,-64,8
3,136,113698,-364,-16836,1234,20,-49,9
3,137,113703,-327,-16944,1378,23,-43,8
3,138,113708,-312,-17047,1452,21,-46,4
3,139,113713,-326,-17113,1545,20,-69,5
3,140,113718,-238,-17130,1634,19,-113,8
3,141,113723,-57,-17159,1682,21,-167,12
3,142,113728,205,-17155,1815,18,-222,18
3,143,113733,294,-17126,1953,18,-267,23
3,144,113738,222,-17115,1930,17,-305,27
3,145,113743,126,-17194,1687,21,-348,33
3,146,113748,58,-17236,1406,19,-382,38
3,147,113753,80,-17288,1291,15,-399,44
3,148,113758,158,-17344,1348,13,-412,47
3,149,113763,136,-17386,1464,15,-407,48
3,150,113768,64,-17408,1392,14,-392,53
3,151,113773,16,-17449,1190,14,-364,49
3,152,113778,-57,-17405,1228,12,-326,48
3,153,113783,-304,-17437,1255,11,-298,50
3,154,113788,-282,-17557,1155,10,-280,48
3,155,113793,-189,-17557,1300,8,-262,53
3,156,113798,-66,-17451,1537,6,-242,53
3,157,113803,-273,-17361,1328,16,-215,46
3,158,113808,-280,-17304,1287,9,-205,45
3,159,113813,-111,-17193,1466,7,-209,51
3,160,113818,92,-17122,1649,6,-232,56
3,161,113823,74,-17107,1595,8,-262,55
3,162,113828,-12,-17078,1376,12,-279,58
3,163,113833,-10,-17037,1241,12,-283,63
3,164,113838,90,-16915,1366,13,-283,66
3,165,113843,22,-16848,1571,10,-287,68
3,166,113848,-179,-16782,1681,12,-304,66
3,167,113853,-370,-16772,1623,16,-326,69
3,168,113858,-402,-16655,1594,13,-339,72
3,169,113863,-273,-16604,1842,13,-353,75
3,170,113868,-153,-16583,2206,11,-387,76
3,171,113873,-251,-16558,2320,8,-445,78
3,172,113878,-330,-16603,2218,11,-514,83
3,173,113883,-346,-16606,2133,10,-566,89
3,174,113888,-225,-16609,2215,10,-599,93
3,175,113893,-138,-16622,2358,7,-635,93
3,176,113898,-79,-16587,2355,5,-674,95
3,177,113903,27,-16597,2086,7,-718,100
3,178,113908,158,-16602,1679,7,-747,107
3,179,113913,346,-16539,1488,4,-749,109
3,180,113918,417,-16425,1534,5,-743,112
3,181,113923,340,-16320,1573,6,-741,116
3,182,113928,220,-16183,1459,7,-734,118
3,183,113933,165,-16081,1295,8,-711,120
3,184,113938,118,-15975,1316,6,-669,124
3,185,113943,-38,-15925,1626,3,-625,122
3,186,113948,-238,-15892,1869,1,-610,121
3,187,113953,-470,-15903,1878,5,-615,128
3,188,113958,-498,-15960,1790,5,-627,128
3,189,113963,-465,-15984,1985,2,-639,128
3,190,113968,-351,-15938,2208,1,-670,128
3,191,113973,-206,-15913,2311,5,-734,133
3,192,113978,-210,-15931,2203,2,-823,139
3,193,113983,-46,-15858,2062,2,-906,145
3,194,113988,35,-15725,2180,4,-973,152
3,195,113993,-5,-15857,2244,5,-1038,158
3,196,113998,-284,-15735,2292,6,-1091,159
3,197,114003,-781,-15870,2281,7,-1141,164
3,198,114008,-761,-15916,2055,8,-1209,170
3,199,114013,-570,-15868,1816,10,-1268,175
3,200,114018,-254,-15905,1988,10,-1317,171
3,201,114023,-404,-15936,2233,8,-1377,177
3,202,114028,-575,-15911,2219,7,-1450,181
3,203,114033,-546,-15957,2164,10,-1501,186
3,204,114038,-382,-15995,2025,8,-1510,189
3,205,114043,-164,-15948,1959,8,-1495,190
3,206,114048,-34,-15950,1911,9,-1497,187
3,207,114053,24,-15909,1968,7,-1529,188
3,208,114058,-102,-15880,2035,5,-1581,196
3,209,114063,-253,-15856,1930,4,-1618,203
3,210,114068,-398,-15863,1849,7,-1625,206
3,211,114073,-546,-15905,1956,5,-1608,205
3,212,114078,-815,-15947,2311,3,-1597,199
3,213,114083,-955,-15995,2514,2,-1639,196
3,214,114088,-854,-16018,2172,7,-1711,204
3,215,114093,-579,-16110,1859,9,-1771,212
3,216,114098,-304,-16131,2286,5,-1812,209
3,217,114103,23,-16061,3364,-4,-1863,213
3,218,114108,16,-16029,3584,-3,-1970,226
3,219,114113,173,-16266,2507,10,-2085,226
3,220,114118,134,-16407,1876,10,-2153,233
3,221,114123,-13,-16298,2840,-8,-2201,240
3,222,114128,24,-16254,3739,-14,-2303,247
3,223,114133,-159,-16334,3334,-3,-2428,257
3,224,114138,-204,-16552,2267,5,-2503,264
3,225,114143,-672,-16439,2165,-4,-2528,262
3,226,114148,-857,-16327,2840,-14,-2594,259
3,227,114153,-1008,-16187,2834,-11,-2733,272
3,228,114158,-803,-16303,1935,-3,-2856,285
3,229,114163,-687,-16353,1307,0,-2880,283
3,230,114168,-657,-16362,2140,-4,-2829,275
3,231,114173,-559,-16457,2125,-1,-2852,279
3,232,114178,-286,-16617,1756,3,-2867,279
3,233,114183,-406,-16569,1755,1,-2838,277
3,234,114188,-301,-16579,2054,-5,-2789,277
3,235,114193,-420,-16474,2409,-8,-2754,268
3,236,114198,-417,-16466,2240,-8,-2751,270
3,237,114203,-527,-16460,2249,-9,-2752,271
3,238,114208,-873,-16468,2449,-11,-2774,273
3,239,114213,-1124,-16418,2447,-13,-2822,272
3,240,114218,-1065,-16346,2083,-13,-2873,271
3,241,114223,-838,-16449,1762,-7,-2909,275
3,242,114228,-638,-16430,2017,-13,-2934,269
3,243,114233,-647,-16364,2225,-14,-2984,269
3,244,114238,-876,-16440,2421,-6,-3033,277
3,245,114243,-1089,-16455,1599,-1,-3077,275
3,246,114248,-791,-16432,1194,-5,-3089,275
3,247,114253,-774,-16484,689,-7,-3080,277
3,248,114258,-1027,-16462,883,-8,-2999,259
3,249,114263,-1037,-16526,653,3,-2944,258
3,250,114268,-1410,-16564,-417,11,-2885,259
3,251,114273,-894,-16808,-1204,16,-2796,258
3,252,114278,-1177,-16682,142,0,-2582,225
3,253,114283,-1436,-16730,593,1,-2465,214
3,254,114288,-1578,-16812,661,12,-2329,205
3,255,114293,-1558,-16887,-116,15,-2172,197
3,256,114298,-1475,-16787,764,3,-1954,173
3,257,114303,-1592,-16556,1949,-12,-1812,150
3,258,114308,-1735,-16479,2558,-8,-1761,140
3,259,114313,-1494,-16545,1969,-2,-1757,140
3,260,114318,-1005,-16703,1058,-8,-1721,136
3,261,114323,-637,-16634,2042,-18,-1643,121
3,262,114328,-297,-16548,2685,-22,-1683,116
3,263,114333,-32,-16647,2365,-14,-1806,130
3,264,114338,296,-16854,1335,-8,-1908,142
3,265,114343,218,-16800,1748,-18,-1897,132
3,266,114348,-123,-16679,2762,-30,-1913,128
3,267,114353,-336,-16529,2800,-27,-2003,137
3,268,114358,-498,-16454,2492,-21,-2075,147
3,269,114363,-394,-16432,1541,-25,-2145,151
3,270,114368,-667,-16258,2534,-35,-2125,140
3,271,114373,-752,-16093,2634,-37,-2194,142
3,272,114378,-823,-16103,2397,-33,-2257,147
3,273,114383,-632,-16170,1759,-34,-2281,150
3,274,114388,-923,-16108,2201,-45,-2273,142
3,275,114393,-979,-16054,1861,-49,-2322,145
3,276,114398,-1145,-16014,1908,-46,-2350,145
3,277,114403,-1004,-16114,1558,-50,-2369,147
3,278,114408,-1045,-16148,2138,-59,-2317,138
3,279,114413,-1456,-16064,2113,-74,-2274,125
3,280,114418,-1496,-16032,2596,-70,-2162,103
3,281,114423,-1660,-16025,2862,-71,-2169,101
3,282,114428,-859,-16006,995,-73,-2317,122
3,283,114433,-291,-16231,1168,-68,-2303,133
3,284,114438,-136,-16142,1970,-88,-2248,109
3,285,114443,-119,-16054,1890,-83,-2263,109
3,286,114448,112,-16345,1391,-72,-2285,126
3,287,114453,104,-16392,1319,-82,-2309,126
3,288,114458,14,-16290,1919,-88,-2328,124
3,289,114463,-371,-16270,2087,-88,-2370,132
3,290,114468,-541,-16392,1312,-82,-2415,139
3,291,114473,-841,-16457,1415,-85,-2382,133
3,292,114478,-1153,-16432,1865,-93,-2389,130
3,293,114483,-1696,-16288,1651,-93,-2433,136
3,294,114488,-1363,-16482,1549,-80,-2391,140
3,295,114493,-1422,-16282,1510,-101,-2330,122
3,296,114498,-915,-16185,1441,-103,-2295,119
3,297,114503,-1311,-16226,1170,-100,-2216,115
3,298,114508,-1508,-16345,350,-102,-2125,105
3,299,114513,-1405,-16373,-187,-101,-1995,100
3,300,114518,-903,-16304,199,-112,-1836,86
3,301,114523,-503,-16281,529,-119,-1733,74
3,302,114528,-457,-16457,643,-110,-1661,72
3,303,114533,-596,-16392,720,-115,-1437,54
3,304,114538,-326,-16349,911,-120,-1353,54
3,305,114543,342,-16439,958,-112,-1319,57
3,306,114548,495,-16433,1026,-115,-1302,53
3,307,114553,382,-16368,1228,-117,-1297,54
3,308,114558,27,-16421,1162,-118,-1290,60
3,309,114563,-363,-16374,1184,-111,-1293,64
3,310,114568,-739,-16223,1220,-110,-1311,58
3,311,114573,-683,-15535,1033,-113,-1346,77
3,312,114578,-938,-17033,1350,-114,-1374,148
3,313,114583,-515,-15993,1377,-111,-1398,42
3,314,114588,-571,-16220,991,-94,-1457,69
3,315,114593,-448,-16473,657,-91,-1443,78
3,316,114598,-756,-16341,1182,-115,-1348,50
3,317,114603,-531,-16319,1413,-115,-1279,49
3,318,114608,-493,-16452,1764,-112,-1200,48
3,319,114613,-562,-16349,1093,-110,-1160,43
3,320,114618,-174,-16614,831,-110,-1087,42
3,321,114623,-98,-16530,655,-121,-1035,39
3,322,114628,145,-16571,1339,-119,-973,39
3,323,114633,96,-16609,1426,-124,-949,36
3,324,114638,15,-16700,1272,-117,-981,42
3,325,114643,434,-16654,623,-114,-1008,47
3,326,114648,108,-16641,1698,-118,-944,39
3,327,114653,-2,-16405,2059,-121,-984,38
3,328,114658,-264,-16569,2069,-115,-1083,52
3,329,114663,211,-16255,2109,-120,-1169,53
3,330,114668,164,-16131,2504,-127,-1209,65
3,331,114673,451,-16360,1910,-138,-1256,64
3,332,114678,-205,-15861,3516,-111,-1193,42
3,333,114683,-121,-16509,1051,-111,-1394,90
3,334,114688,-346,-15784,2169,-137,-1393,68
3,335,114693,116,-16276,1441,-115,-1473,112
3,336,114698,-221,-15968,1711,-137,-1427,81
3,337,114703,495,-16360,-65,-110,-1474,110
3,338,114708,-36,-16286,720,-129,-1350,86
3,339,114713,251,-16164,678,-130,-1388,89
3,340,114718,-31,-16199,1459,-121,-1322,88
3,341,114723,-424,-16195,657,-117,-1260,77
3,342,114728,-273,-16287,498,-122,-1165,75
3,343,114733,-515,-15985,1206,-134,-1059,59
3,344,114738,-325,-16086,1780,-128,-1040,71
3,345,114743,-368,-16157,974,-124,-1036,66
3,346,114748,-131,-16412,-373,-112,-994,71
3,347,114753,44,-16560,35,-120,-846,64
3,348,114758,104,-16281,967,-131,-758,49
3,349,114763,290,-16633,221,-120,-791,61
3,350,114768,322,-16903,-528,-101,-733,61
3,351,114773,237,-16994,-718,-104,-623,56
3,352,114778,34,-16656,396,-116,-491,40
3,353,114783,-231,-16483,1055,-112,-440,44
3,354,114788,-194,-16380,855,-102,-393,42
3,355,114793,-150,-16324,423,-102,-295,35
3,356,114798,-362,-16279,1384,-114,-152,27
3,357,114803,-299,-16145,2270,-121,-105,16
3,358,114808,-64,-16127,2212,-118,-112,17
3,359,114813,-65,-16184,1592,-119,-102,18
3,360,114818,-12,-16181,1533,-126,-55,12
3,361,114823,102,-16123,2028,-131,-31,11
3,362,114828,272,-16113,2314,-134,-64,17
3,363,114833,402,-16188,2004,-131,-113,21
3,364,114838,337,-16273,1523,-129,-135,24
3,365,114843,265,-16335,1359,-130,-139,22
3,366,114848,395,-16329,1461,-134,-156,27
3,367,114853,625,-16308,1297,-130,-199,36
3,368,114858,750,-16352,800,-123,-233,41
3,369,114863,647,-16369,457,-119,-239,40
3,370,114868,399,-16356,534,-119,-232,43
3,371,114873,182,-16331,638,-120,-229,46
3,372,114878,84,-16291,448,-111,-214,48
3,373,114883,-3,-16319,464,-110,-164,45
3,374,114888,-229,-16185,956,-113,-102,37
3,375,114893,-482,-15997,1511,-115,-62,31
3,376,114898,-358,-15935,1422,-112,2,30
3,377,114903,-144,-15963,1521,-118,62,23
3,378,114908,26,-15972,1878,-121,89,17
3,379,114913,154,-16031,1856,-117,58,21
3,380,114918,192,-16110,1526,-115,15,24
3,381,114923,172,-16175,1413,-121,-7,22
3,382,114928,67,-16185,1480,-124,-25,22
3,383,114933,48,-16294,1326,-118,-62,25
3,384,114938,268,-16409,791,-111,-107,31
3,385,114943,389,-16407,278,-108,-132,34
3,386,114948,302,-16419,-68,-105,-132,36
3,387,114953,210,-16386,-562,-96,-120,38
3,388,114958,185,-16401,-1152,-85,-81,39
3,389,114963,262,-16378,-1167,-81,0,37
3,390,114968,-97,-16204,-224,-82,110,32
3,391,114973,-603,-16001,725,-80,198,19
3,392,114978,-1132,-15911,966,-74,285,12
3,393,114983,-1245,-15918,536,-69,400,7
3,394,114988,-865,-15942,574,-72,551,-5
3,395,114993,-556,-15914,1229,-81,671,-22
3,396,114998,-316,-15590,1533,-82,704,-28
3,397,115003,-594,-16456,996,-82,711,25
3,398,115008,-367,-16417,533,-76,773,-20
3,399,115013,-341,-16031,928,-84,861,-53
3,400,115018,63,-16453,642,-73,836,-21
3,401,115023,193,-16437,692,-71,846,-30
3,402,115028,220,-16571,343,-65,847,-27
3,403,115033,-91,-16637,410,-64,873,-35
3,404,115038,-253,-16683,223,-56,889,-38
3,405,115043,-238,-16708,182,-49,911,-32
3,406,115048,-221,-16728,228,-47,957,-36
3,407,115053,-238,-16766,321,-42,1008,-42
3,408,115058,-299,-16752,175,-38,1053,-43
3,409,115063,-357,-16761,161,-34,1112,-46
3,410,115068,-403,-16776,271,-31,1177,-49
3,411,115073,-392,-16715,436,-30,1243,-56
3,412,115078,-343,-16662,623,-28,1292,-60
3,413,115083,-386,-16587,880,-27,1332,-63
3,414,115088,-514,-16477,1379,-27,1356,-67
3,415,115093,-649,-16347,2003,-30,1366,-71
3,416,115098,-837,-16324,1848,-20,1341,-66
3,417,115103,-616,-16306,1174,-9,1326,-68
3,418,115108,-322,-16456,1198,-23,1377,-73
3,419,115113,-184,-16305,1019,-24,1324,-70
3,420,115118,340,-16415,447,-4,1235,-51
3,421,115123,125,-16305,94,0,1269,-60
3,422,115128,107,-16299,-736,2,1302,-58
3,423,115133,59,-16265,-1164,12,1397,-59
3,424,115138,48,-16197,-1109,18,1484,-62
3,425,115143,5,-16030,-529,18,1555,-64
3,426,115148,-645,-15929,12,22,1666,-64
3,427,115153,-1185,-15908,501,30,1813,-72
3,428,115158,-1570,-15778,744,24,1998,-93
3,429,115163,-1387,-15889,867,22,2131,-104
3,430,115168,-893,-15963,614,23,2184,-107
3,431,115173,-491,-16128,883,30,2242,-108
3,432,115178,-467,-16211,1569,24,2294,-116
3,433,115183,-608,-16277,1206,22,2267,-116
3,434,115188,-722,-16418,1413,34,2266,-109
3,435,115193,-848,-16509,1475,35,2265,-109
3,436,115198,-787,-16579,1685,30,2257,-115
3,437,115203,-653,-16700,1342,30,2230,-117
3,438,115208,-698,-16852,1530,35,2236,-115
3,439,115213,-578,-16876,1363,33,2184,-110
3,440,115218,-261,-16967,763,33,2139,-98
3,441,115223,-150,-17036,304,40,2152,-97
3,442,115228,75,-17109,268,48,2201,-100
3,443,115233,-90,-16867,1147,40,2277,-115
3,444,115238,-302,-16688,1729,41,2261,-111
3,445,115243,-514,-16529,1802,46,2215,-101
3,446,115248,-845,-16421,1390,53,2206,-102
3,447,115253,-870,-16388,1054,58,2211,-104
3,448,115258,-510,-16416,1140,55,2187,-101
3,449,115263,43,-16333,1635,53,2045,-90
3,450,115268,-103,-16425,709,62,1990,-89
3,451,115273,-411,-16572,-115,69,1998,-84
3,452,115278,-401,-16527,-48,67,2033,-83
3,453,115283,-609,-16432,398,64,2058,-82
3,454,115288,-1042,-16504,419,74,2066,-85
3,455,115293,-1805,-16807,74,84,2119,-88
3,456,115298,-2296,-16876,-51,78,2234,-102
3,457,115303,-2395,-16786,404,72,2388,-119
3,458,115308,-2275,-16783,715,79,2522,-136
3,459,115313,-1915,-16848,750,83,2627,-150
3,460,115318,-1763,-16829,964,77,2727,-164
3,461,115323,-1826,-16705,1330,71,2811,-176
3,462,115328,-1698,-16709,1175,77,2862,-182
3,463,115333,-1188,-16678,1057,81,2920,-189
3,464,115338,-474,-16599,1572,72,2960,-193
3,465,115343,-139,-16460,2609,65,2957,-194
3,466,115348,-174,-16384,2825,68,2889,-195
3,467,115353,-226,-16407,2232,77,2797,-189
3,468,115358,-36,-16381,1805,74,2730,-180
3,469,115363,271,-16358,2205,65,2654,-173
3,470,115368,534,-16335,2422,68,2518,-165
3,471,115373,564,-16440,1604,82,2358,-152
3,472,115378,655,-16614,410,93,2241,-143
3,473,115383,767,-16701,62,92,2189,-136
3,474,115388,864,-16562,625,89,2173,-130
3,475,115393,753,-16480,968,98,2157,-122
3,476,115398,412,-16440,568,108,2163,-121
3,477,115403,-46,-16371,56,111,2242,-122
3,478,115408,-406,-16199,311,106,2361,-130
3,479,115413,-630,-15988,1031,102,2456,-136
3,480,115418,-691,-15898,1429,106,2511,-140
3,481,115423,-797,-15953,1371,109,2551,-141
3,482,115428,-842,-15853,1272,104,2596,-148
3,483,115433,-787,-15897,1339,104,2639,-153
3,484,115438,-534,-15961,1035,112,2647,-157
3,485,115443,-103,-16003,472,117,2626,-157
3,486,115448,270,-16197,251,119,2619,-152
3,487,115453,332,-16243,921,117,2624,-150
3,488,115458,-80,-16286,2027,116,2626,-149
3,489,115463,-811,-16202,2274,119,2634,-158
3,490,115468,-1374,-16325,1391,130,2675,-160
3,491,115473,-1227,-16281,594,134,2738,-167
3,492,115478,-685,-16191,1234,128,2793,-172
3,493,115483,-492,-16130,2117,125,2759,-174
3,494,115488,-353,-16165,1722,132,2653,-171
3,495,115493,-352,-16339,671,136,2634,-169
3,496,115498,-218,-16305,639,134,2720,-179
3,497,115503,-80,-16258,1680,133,2790,-178
3,498,115508,-94,-16059,1783,138,2776,-180
3,499,115513,-46,-16175,417,151,2746,-171
3,500,115518,24,-16234,-1077,155,2806,-173
3,501,115523,263,-16260,-1313,155,2954,-176
3,502,115528,453,-16245,-1061,164,3091,-180
3,503,115533,414,-16388,-1463,181,3215,-180
3,504,115538,148,-16520,-1997,189,3396,-187
3,505,115543,-478,-16593,-1528,187,3664,-197
3,506,115548,-1283,-16483,-649,189,3939,-216
3,507,115553,-1887,-16314,-190,196,4192,-229
3,508,115558,-2215,-16458,-454,208,4431,-236
3,509,115563,-2051,-16417,-452,213,4654,-257
3,510,115568,-2044,-16273,740,208,4837,-272
3,511,115573,-2203,-16248,1583,206,4910,-280
3,512,115578,-2422,-16293,1900,215,4942,-285
3,513,115583,-2386,-16344,1807,220,4980,-286
3,514,115588,-1865,-16398,2240,221,5013,-288
3,515,115593,-1199,-16268,3083,220,5003,-293
3,516,115598,-719,-16428,3594,220,4902,-283
3,517,115603,-291,-16401,3524,221,4761,-275
3,518,115608,-122,-16606,3571,217,4649,-259
3,519,115613,129,-16655,4194,211,4555,-253
3,520,115618,350,-16603,4451,211,4449,-242
3,521,115623,353,-16637,4412,214,4337,-230
3,522,115628,-43,-16345,4170,196,4050,-212
3,523,115633,-264,-16307,4074,192,3883,-191
3,524,115638,-292,-16133,3719,191,3733,-182
3,525,115643,-287,-15994,3544,190,3606,-176
3,526,115648,-240,-16019,3757,188,3465,-158
3,527,115653,-243,-15917,4122,181,3300,-156
3,528,115658,-420,-15946,4049,181,3124,-147
3,529,115663,-604,-16036,3763,179,2975,-137
3,530,115668,-699,-16074,3450,181,2851,-130
3,531,115673,-466,-16057,3470,178,2732,-124
3,532,115678,-223,-16151,3479,177,2591,-121
3,533,115683,-28,-16137,3181,175,2435,-125
3,534,115688,-23,-16212,2682,177,2308,-113
3,535,115693,-99,-16318,2315,176,2229,-108
3,536,115698,-88,-16406,2389,174,2194,-104
3,537,115703,54,-16425,2596,173,2187,-100
3,538,115708,92,-16375,2531,170,2186,-99
3,539,115713,71,-16364,2199,172,2195,-103
3,540,115718,7,-16300,1900,167,2218,-104
3,541,115723,67,-16318,1964,166,2240,-102
3,542,115728,100,-16192,1928,165,2250,-103
3,543,115733,-15,-16227,1784,164,2252,-103
3,544,115738,-295,-16368,1805,165,2255,-101
3,545,115743,-544,-16378,1863,163,2261,-103
3,546,115748,-624,-16433,1926,162,2269,-103
3,547,115753,-581,-16494,1781,166,2276,-107
3,548,115758,-575,-16484,1938,168,2270,-106
3,549,115763,-669,-16609,2289,164,2234,-104
3,550,115768,-753,-16536,2560,162,2174,-110
3,551,115773,-667,-16490,2678,163,2106,-106
3,552,115778,-436,-16391,2905,160,2040,-108
3,553,115783,-265,-16242,3339,160,1954,-102
3,554,115788,-223,-16118,3592,155,1838,-98
3,555,115793,-210,-15980,3598,153,1690,-93
3,556,115798,-84,-15881,3436,150,1538,-85
3,557,115803,169,-15816,3444,143,1400,-76
3,558,115808,413,-15704,3627,141,1269,-70
3,559,115813,357,-15654,3594,139,1140,-64
3,560,115818,124,-15666,3174,132,1029,-58
3,561,115823,-94,-15598,2607,125,953,-57
3,562,115828,-304,-15505,2354,125,907,-56
3,563,115833,-492,-15440,2289,122,869,-55
3,564,115838,-615,-15366,2304,116,823,-57
3,565,115843,-681,-15302,2268,113,786,-57
3,566,115848,-704,-15157,2192,108,756,-60
3,567,115853,-693,-14991,2024,110,721,-63
3,568,115858,-493,-14821,1671,112,676,-62
3,569,115863,-191,-14547,1450,110,637,-62
3,570,115868,-118,-14419,1613,104,609,-63
3,571,115873,-369,-14418,1831,96,604,-69
3,572,115878,-672,-14367,1594,92,634,-73
3,573,115883,-672,-14485,1157,96,710,-77
3,574,115888,-387,-14484,1130,94,809,-85
3,575,115893,-146,-14428,1667,86,870,-96
3,576,115898,1,-14409,2107,84,860,-100
3,577,115903,118,-14414,2171,78,823,-95
3,578,115908,240,-14428,2216,69,812,-93
3,579,115913,278,-14469,2478,66,817,-96
3,580,115918,272,-14472,2834,61,793,-99
3,581,115923,211,-14568,2888,58,729,-93
3,582,115928,125,-14601,2623,52,642,-89
3,583,115933,31,-14614,2462,41,556,-85
3,584,115938,-78,-14683,2676,35,471,-78
3,585,115943,-202,-14746,2747,35,382,-75
3,586,115948,-365,-14821,2425,30,300,-75
3,587,115953,-478,-14915,1894,27,241,-74
3,588,115958,-505,-15068,1674,20,201,-74
3,589,115963,-558,-15202,1821,10,165,-76
3,590,115968,-585,-15367,1846,8,136,-78
3,591,115973,-543,-15558,1448,8,125,-79
3,592,115978,-465,-15692,1153,5,148,-83
3,593,115983,-468,-15773,1286,-1,176,-90
3,594,115988,-585,-15862,1505,-7,187,-96
3,595,115993,-733,-16185,969,-9,208,-101
3,596,115998,-608,-16270,1031,-15,246,-103
3,597,116003,-493,-16341,1452,-22,276,-114
3,598,116008,-532,-16451,1704,-26,270,-119
3,599,116013,-1334,-18128,2491,-27,250,-120
3,600,116018,6794,-25868,13066,355,850,-443
3,601,116023,-20774,-4808,-20411,549,745,-899
3,602,116028,715,-21619,-26408,-667,-4003,847
3,603,116033,-9541,-17945,20645,-90,6092,-31
3,604,116038,-5140,3583,9569,-226,2497,-646
3,605,116043,24613,-18614,11963,249,-1952,343
3,606,116048,-12485,-13897,4956,175,1677,-87
3,607,116053,-4443,-21420,-988,-57,113,-90
3,608,116058,-2707,-15995,1001,29,971,-89
3,609,116063,3984,-15564,-4318,-17,1078,-35
3,610,116068,5601,-15618,10078,41,1726,-226
3,611,116073,191,-16108,5382,9,930,-120
3,612,116078,-2078,-16203,6049,58,152,-57
3,613,116083,-1241,-17121,-951,13,20,58
3,614,116088,880,-15920,-28,-7,568,-8
3,615,116093,2346,-16323,4221,30,1162,-102
3,616,116098,27,-15259,7914,-3,993,-124
3,617,116103,68,-16027,5391,15,202,-1
3,618,116108,-99,-16914,846,10,-182,73
3,619,116113,-391,-16621,388,-18,103,21
3,620,116118,-835,-16255,3608,-12,541,-37
3,621,116123,-982,-15345,6179,-11,496,-45
3,622,116128,102,-16139,4343,18,46,40
3,623,116133,335,-16525,1666,2,-158,54
3,624,116138,-808,-16404,2025,-12,9,13
3,625,116143,-1382,-16409,2970,-20,92,9
3,626,116148,-1082,-16067,3557,-13,43,23
3,627,116153,-5,-16381,2510,-2,-89,55
3,628,116158,44,-16254,2330,-12,-96,35
3,629,116163,-499,-16449,2520,-17,-87,26
3,630,116168,-1132,-16295,2573,-24,-125,29
3,631,116173,-924,-16386,1840,-17,-153,44
3,632,116178,-563,-16554,1433,-13,-98,39
3,633,116183,-502,-16449,1715,-13,-5,18
3,634,116188,-669,-16463,2118,-10,7,13
3,635,116193,-767,-16395,1753,-17,-60,20
3,636,116198,-733,-16566,1276,-15,-74,28
3,637,116203,-822,-16449,1263,-17,-16,12
3,638,116208,-804,-16375,1753,-13,55,2
3,639,116213,-760,-16404,2057,-7,70,1
3,640,116218,-524,-16371,1979,-8,47,0
3,641,116223,-365,-16436,1871,-8,29,1
3,642,116228,-381,-16403,1828,-11,24,-6
3,643,116233,-434,-16395,2042,-4,20,-3
3,644,116238,-366,-16362,2191,-1,8,2
3,645,116243,-224,-16341,2253,1,-4,4
3,646,116248,-110,-16306,2295,2,-25,4
3,647,116253,-118,-16336,2293,-1,-50,5
3,648,116258,-237,-16380,2279,0,-63,9
3,649,116263,-326,-16344,2320,-2,-75,9
3,650,116268,-304,-16352,2329,0,-88,14
3,651,116273,-232,-16329,2319,-2,-99,15
3,652,116278,-261,-16309,2293,-4,-109,16
3,653,116283,-294,-16346,2250,-2,-124,17
3,654,116288,-277,-16373,2057,-1,-144,19
3,655,116293,-229,-16425,1951,5,-160,25
3,656,116298,-173,-16459,2011,1,-164,24
3,657,116303,-175,-16392,2112,-1,-167,25
3,658,116308,-159,-16325,2154,0,-177,29
3,659,116313,-115,-16318,2113,4,-180,30
3,660,116318,19,-16385,1981,5,-171,30
3,661,116323,88,-16429,1814,4,-152,27
3,662,116328,128,-16444,1932,7,-134,29
3,663,116333,204,-16386,2088,2,-125,28
3,664,116338,127,-16340,2101,1,-121,31
3,665,116343,113,-16299,2084,1,-106,31
3,666,116348,102,-16318,2067,0,-74,26
3,667,116353,80,-16380,2099,3,-38,27
3,668,116358,10,-16382,2116,-3,5,25
3,669,116363,-56,-16389,2039,-4,20,24
3,670,116368,-153,-16361,2110,-4,38,23
3,671,116373,-277,-16351,2197,-6,59,22
3,672,116378,-354,-16324,2227,-9,75,20
3,673,116383,-299,-16309,2207,-5,87,20
3,674,116388,-286,-16312,2207,-11,93,19
3,675,116393,-405,-16341,2212,-11,96,18
3,676,116398,-504,-16373,2245,-9,96,17
3,677,116403,-553,-16327,2202,-11,93,18
3,678,116408,-554,-16344,2188,-12,100,15
3,679,116413,-576,-16348,2270,-9,109,14
3,680,116418,-657,-16383,2380,-10,108,13
3,681,116423,-741,-16358,2365,-10,104,9
3,682,116428,-769,-16342,2288,-12,96,9
3,683,116433,-776,-16379,2241,-11,89,12
3,684,116438,-745,-16394,2203,-11,93,9
3,685,116443,-784,-16366,2264,-12,95,8
3,686,116448,-831,-16356,2386,-16,83,5
3,687,116453,-905,-16335,2332,-15,62,5
3,688,116458,-879,-16327,2252,-14,47,5
3,689,116463,-854,-16363,2178,-15,41,3
3,690,116468,-780,-16388,2247,-15,41,4
3,691,116473,-746,-16395,2358,-13,33,3
3,692,116478,-679,-16366,2360,-16,12,2
3,693,116483,-676,-16373,2302,-17,-7,2
3,694,116488,-704,-16402,2168,-17,-19,6
3,695,116493,-755,-16394,2110,-17,-20,3
3,696,116498,-718,-16384,2116,-15,-19,0
3,697,116503,-699,-16380,2159,-16,-22,3
3,698,116508,-707,-16385,2105,-18,-29,2
3,699,116513,-756,-16405,2003,-18,-33,0
3,700,116518,-712,-16421,1956,-17,-33,-3
3,701,116523,-683,-16414,1967,-16,-26,-6
3,702,116528,-637,-16373,2035,-15,-26,-4
3,703,116533,-598,-16378,2004,-14,-28,-4
3,704,116538,-532,-16379,2032,-16,-32,-6
3,705,116543,-570,-16371,1964,-14,-37,-6
3,706,116548,-523,-16369,1937,-13,-39,-6
3,707,116553,-531,-16371,1963,-11,-36,-8
3,708,116558,-508,-16438,2018,-10,-35,-9
3,709,116563,-427,-16384,2012,-12,-32,-8
3,710,116568,-444,-16383,2025,-12,-34,-11
3,711,116573,-448,-16400,2045,-11,-36,-9
3,712,116578,-486,-16395,1982,-13,-36,-9
3,713,116583,-433,-16406,1961,-12,-31,-11
3,714,116588,-425,-16399,1947,-10,-22,-13
3,715,116593,-401,-16416,1968,-10,-17,-15
3,716,116598,-430,-16383,1989,-7,-18,-14
3,717,116603,-438,-16419,1932,-6,-19,-15
3,718,116608,-427,-16415,1932,-10,-14,-13
3,719,116613,-462,-16385,1948,-9,-7,-16
3,720,116618,-426,-16373,1998,-7,0,-16
3,721,116623,-414,-16364,2013,-10,5,-17
3,722,116628,-397,-16372,2022,-5,5,-19
3,723,116633,-374,-16377,2020,-3,1,-19
3,724,116638,-314,-16371,1985,-6,-1,-18
3,725,116643,-241,-16380,2018,-5,-4,-16
3,726,116648,-163,-16387,1995,-4,-7,-14
3,727,116653,-110,-16395,2022,-3,-13,-17
3,728,116658,-85,-16388,2053,-6,-18,-12
3,729,116663,-235,-16426,2064,-5,-25,-11
3,730,116668,-264,-16385,2063,-6,-24,-11
3,731,116673,-241,-16367,2071,-4,-19,-8
3,732,116678,-270,-16375,2056,-6,-13,-8
3,733,116683,-291,-16384,2015,-5,-5,-8
3,734,116688,-320,-16382,2060,-6,-3,-8
3,735,116693,-323,-16379,2012,-6,-5,-7
3,736,116698,-340,-16372,1953,-7,-4,-10
3,737,116703,-318,-16360,1972,-7,-2,-9
3,738,116708,-289,-16360,2005,-6,2,-9
3,739,116713,-275,-16387,2043,-2,3,-9
3,740,116718,-204,-16366,2071,-1,-2,-8
3,741,116723,-212,-16349,2040,-3,-14,-6
3,742,116728,-199,-16337,2037,-1,-14,-4
3,743,116733,-129,-16372,2065,-5,-11,-5
3,744,116738,-114,-16382,2098,-4,-13,-2
3,745,116743,-132,-16390,2039,-2,-16,-1
3,746,116748,-141,-16375,2012,-3,-17,-1
3,747,116753,-195,-16395,2007,-2,-16,-1
3,748,116758,-226,-16412,1985,-3,-12,-1
3,749,116763,-232,-16335,2017,-1,-7,3
3,750,116768,-277,-16342,1976,0,-4,5
3,751,116773,-282,-16366,2017,-2,2,1
3,752,116778,-318,-16373,1997,-4,10,0
3,753,116783,-367,-16377,1990,-4,15,1
3,754,116788,-401,-16344,1948,-3,20,-5
3,755,116793,-391,-16360,1932,-3,21,-2
3,756,116798,-383,-16409,1975,-2,23,-1
3,757,116803,-383,-16421,2033,1,22,-1
3,758,116808,-432,-16367,2077,0,21,-1
3,759,116813,-407,-16353,2085,0,23,0
3,760,116818,-380,-16381,2128,-1,20,0
3,761,116823,-372,-16374,2075,-2,24,-3
3,762,116828,-359,-16372,2053,-4,25,-3
3,763,116833,-344,-16365,2058,-2,19,-2
3,764,116838,-319,-16401,2039,-4,18,-1
3,765,116843,-331,-16388,2122,-4,13,-1
3,766,116848,-323,-16358,2112,-2,6,0
3,767,116853,-343,-16346,2139,-4,5,0
3,768,116858,-307,-16373,2126,-2,5,0
3,769,116863,-310,-16373,2092,1,0,1
3,770,116868,-281,-16384,2049,-4,1,2
3,771,116873,-330,-16369,2066,-4,0,2
3,772,116878,-393,-16360,2093,-3,-4,3
3,773,116883,-359,-16387,2093,-5,-4,3
3,774,116888,-353,-16369,2114,-5,-3,3
3,775,116893,-313,-16381,2103,-4,2,1
3,776,116898,-310,-16388,2117,-4,4,0
3,777,116903,-342,-16384,2145,-4,2,4
3,778,116908,-362,-16390,2062,-6,0,6
3,779,116913,-399,-16379,2033,-8,-2,7
3,780,116918,-405,-16377,2096,-7,3,4
3,781,116923,-404,-16367,2112,-2,7,3
3,782,116928,-451,-16325,2100,-5,4,1
3,783,116933,-436,-16330,2112,-6,1,2
3,784,116938,-442,-16345,2017,-3,2,4
3,785,116943,-430,-16387,1966,-1,5,1
3,786,116948,-441,-16453,1942,-4,3,-2
3,787,116953,-457,-16418,1939,-6,7,1
3,788,116958,-427,-16409,1984,-6,7,2
3,789,116963,-400,-16372,2007,-7,6,2
3,790,116968,-440,-16357,2047,-5,6,3
3,791,116973,-470,-16391,2046,-3,11,0
3,792,116978,-464,-16399,2035,-1,14,-2
3,793,116983,-438,-16386,2049,-3,12,1
3,794,116988,-433,-16383,2085,-3,11,1
3,795,116993,-395,-16386,2114,-6,9,0
3,796,116998,-414,-16373,2091,-5,6,-1
3,797,117003,-440,-16346,2092,-7,1,-1
3,798,117008,-434,-16351,2086,-5,-2,-2
3,799,117013,-531,-16376,2017,0,-8,0
3,800,117018,-546,-16410,1978,-3,-10,0
3,801,117023,-457,-16366,1935,-3,-15,1
3,802,117028,-453,-16384,1877,-2,-16,1
3,803,117033,-452,-16423,1913,-3,-14,1
3,804,117038,-464,-16441,1931,-2,-12,0
3,805,117043,-537,-16373,1940,-3,-5,-5
3,806,117048,-500,-16378,1926,-4,0,-5
3,807,117053,-503,-16392,1930,-1,8,-6
3,808,117058,-495,-16379,1988,1,19,-5
3,809,117063,-468,-16389,1977,-1,23,-8
3,810,117068,-479,-16363,2010,-1,21,-7
3,811,117073,-449,-16388,1992,1,18,-8
3,812,117078,-383,-16374,2030,-1,16,-8
3,813,117083,-434,-16392,2075,-2,19,-8
3,814,117088,-407,-16368,2123,0,20,-10
3,815,117093,-373,-16381,2052,0,5,-6
3,816,117098,-409,-16383,2056,0,-1,-8
3,817,117103,-413,-16376,2036,1,-7,-7
3,818,117108,-412,-16375,2041,1,-11,-6
3,819,117113,-387,-16384,2036,1,-15,-8
3,820,117118,-367,-16414,2009,-1,-21,-7
3,821,117123,-331,-16407,2037,-1,-24,-5
3,822,117128,-348,-16347,2102,0,-25,-2
3,823,117133,-330,-16362,2100,-2,-22,-3
3,824,117138,-331,-16387,2077,-2,-20,-5
3,825,117143,-325,-16336,2019,3,-18,-3
3,826,117148,-324,-16343,2011,2,-15,-3
3,827,117153,-287,-16390,2001,0,-16,-2
3,828,117158,-308,-16394,1970,0,-19,-1
3,829,117163,-284,-16378,2006,1,-18,-3
3,830,117168,-328,-16400,1974,-2,-16,-3
3,831,117173,-367,-16371,1991,-1,-15,-3
3,832,117178,-380,-16362,1964,1,-14,-3
3,833,117183,-358,-16401,1962,0,-8,-4
3,834,117188,-372,-16425,1963,1,-9,-5
3,835,117193,-384,-16398,2059,2,-9,-3
3,836,117198,-416,-16406,2049,1,-7,-3
3,837,117203,-433,-16414,2075,-1,-6,-4
3,838,117208,-433,-16370,2109,0,-5,-3
3,839,117213,-393,-16390,2090,-2,-3,-2
3,840,117218,-373,-16363,2031,-3,-3,-2
3,841,117223,-375,-16400,1991,-2,-8,0
3,842,117228,-343,-16426,1982,-1,-14,-1
3,843,117233,-330,-16374,1991,0,-14,-2
3,844,117238,-346,-16360,1991,-4,-14,-2
3,845,117243,-354,-16369,2039,-1,-16,2
3,846,117248,-340,-16376,2005,0,-11,0
3,847,117253,-371,-16391,2011,0,-7,-5
3,848,117258,-325,-16353,2011,-1,-8,-1
3,849,117263,-328,-16366,2059,0,-6,-1
3,850,117268,-294,-16345,2016,1,-6,-1
3,851,117273,-296,-16422,1978,1,-5,2
3,852,117278,-331,-16377,2089,1,-6,-1
3,853,117283,-354,-16338,2140,0,-6,-2
3,854,117288,-397,-16391,2112,1,-4,-3
3,855,117293,-391,-16371,2068,-1,-5,-2
3,856,117298,-373,-16329,2038,-2,-3,-1
3,857,117303,-438,-16356,2072,1,-1,-1
3,858,117308,-410,-16389,2039,2,-3,0
3,859,117313,-452,-16384,2033,2,-3,0
3,860,117318,-471,-16389,2037,0,-6,-2
3,861,117323,-563,-16371,2025,-1,-8,-1
3,862,117328,-561,-16389,2000,0,-6,1
3,863,117333,-530,-16410,2024,-1,-3,-2
3,864,117338,-539,-16383,2069,-4,-4,-2
3,865,117343,-510,-16362,2068,-3,-8,-2
3,866,117348,-439,-16373,2062,0,-13,-1
3,867,117353,-438,-16383,2041,-1,-11,-4
3,868,117358,-435,-16374,2049,-1,-11,-3
3,869,117363,-465,-16368,2034,0,-10,-4
3,870,117368,-437,-16375,1981,0,-10,-5
3,871,117373,-375,-16372,1981,-2,-9,-5
3,872,117378,-355,-16395,1986,-1,-9,-5
3,873,117383,-385,-16372,2028,-1,-9,-5
3,874,117388,-441,-16398,2044,-2,-5,-6
3,875,117393,-452,-16384,2036,-3,-8,-6
3,876,117398,-458,-16384,2022,-2,-6,-9
3,877,117403,-429,-16384,2034,-1,-4,-7
3,878,117408,-410,-16418,2036,1,-5,-6
3,879,117413,-381,-16392,2058,0,-9,-6
3,880,117418,-359,-16387,2032,-3,-10,-7
3,881,117423,-363,-16383,1999,-1,-12,-5
3,882,117428,-361,-16374,1979,-1,-13,-4
3,883,117433,-385,-16387,2004,-1,-14,-6
3,884,117438,-416,-16408,2009,2,-16,-3
3,885,117443,-380,-16407,2027,0,-16,-4
3,886,117448,-397,-16363,1994,-1,-13,-5
3,887,117453,-412,-16400,1991,2,-8,-4
3,888,117458,-384,-16384,1981,1,-3,-3
3,889,117463,-364,-16377,2005,-2,-4,-3
3,890,117468,-359,-16383,2039,-4,-8,-5
3,891,117473,-414,-16382,2041,-1,-12,-6
3,892,117478,-424,-16366,2043,1,-11,-6
3,893,117483,-386,-16374,2023,1,-8,-6
3,894,117488,-336,-16341,1971,2,-8,-4
3,895,117493,-347,-16397,1943,1,-10,-5
3,896,117498,-332,-16449,1890,0,-11,-7
3,897,117503,-399,-16457,1917,1,-14,-6
3,898,117508,-407,-16401,1949,1,-13,-7
3,899,117513,-395,-16349,1975,1,-7,-4
3,900,117518,-305,-16372,1969,2,-3,-6
3,901,117523,-324,-16389,2006,2,-2,-7
3,902,117528,-363,-16382,2012,3,-1,-8
3,903,117533,-342,-16350,2016,2,-5,-6
3,904,117538,-304,-16375,2021,3,-9,-4
3,905,117543,-249,-16383,2001,2,-7,-7
3,906,117548,-255,-16372,1997,1,-3,-6
3,907,117553,-257,-16357,1995,3,-4,-5
3,908,117558,-268,-16393,2022,3,-11,-2
3,909,117563,-324,-16357,2016,1,-9,-2
3,910,117568,-365,-16370,1988,3,-7,-4
3,911,117573,-376,-16360,2027,0,-4,-5
3,912,117578,-392,-16396,2059,0,3,-5
3,913,117583,-369,-16363,2105,1,6,-5
3,914,117588,-389,-16360,2087,1,1,-2
3,915,117593,-390,-16404,2068,1,-1,-3
3,916,117598,-413,-16366,2050,1,-4,-3
3,917,117603,-397,-16390,2045,2,-5,-3
3,918,117608,-405,-16383,2058,3,-7,-2
3,919,117613,-420,-16386,2034,0,-7,-4
3,920,117618,-448,-16369,1961,2,-10,-4
3,921,117623,-469,-16406,1977,2,-11,-3
3,922,117628,-481,-16379,1954,2,-9,-5
3,923,117633,-504,-16384,1985,1,-7,-4
3,924,117638,-461,-16389,2038,1,-6,-5
3,925,117643,-469,-16371,2070,3,-2,-6
3,926,117648,-435,-16377,2094,3,-2,-7
3,927,117653,-448,-16390,2090,3,-3,-7
3,928,117658,-448,-16365,2101,3,-3,-5
3,929,117663,-405,-16388,2069,2,-4,-4
3,930,117668,-365,-16382,2105,3,-6,-4
3,931,117673,-365,-16380,2095,4,-10,-6
3,932,117678,-374,-16370,2060,1,-14,-6
3,933,117683,-381,-16385,2030,4,-17,-5
3,934,117688,-407,-16378,2004,2,-13,-3
3,935,117693,-379,-16411,2044,0,-12,-4
3,936,117698,-368,-16375,2042,1,-11,-5
3,937,117703,-351,-16343,2047,3,-9,-5
3,938,117708,-329,-16343,2096,2,-5,-6
3,939,117713,-349,-16346,2063,3,-6,-6
3,940,117718,-387,-16385,2059,0,-6,-7
3,941,117723,-386,-16390,2129,-1,-3,-5
3,942,117728,-361,-16338,2122,-2,-1,-7
3,943,117733,-295,-16335,2111,-4,-5,-6
3,944,117738,-298,-16318,2083,-1,-8,-5
3,945,117743,-226,-16346,2068,1,-12,-4
3,946,117748,-207,-16399,2020,2,-14,-5
3,947,117753,-301,-16448,1997,1,-14,-1
3,948,117758,-343,-16416,2001,-1,-15,-1
3,949,117763,-376,-16379,1987,-1,-13,-4
3,950,117768,-390,-16366,2008,-3,-3,-2
3,951,117773,-359,-16398,1997,-1,9,-3
3,952,117778,-355,-16364,2100,-4,16,-7
3,953,117783,-323,-16354,2095,-6,14,-7
3,954,117788,-337,-16365,2075,-2,4,-4
3,955,117793,-324,-16385,2100,0,-2,-1
3,956,117798,-344,-16382,2091,-2,-4,-1
3,957,117803,-429,-16373,2099,-1,-6,-2
3,958,117808,-405,-16377,2061,0,-9,-1
3,959,117813,-361,-16330,2039,0,-12,-2
3,960,117818,-367,-16358,1992,0,-14,-4
3,961,117823,-357,-16424,1868,-1,-17,0
3,962,117828,-320,-16429,1921,1,-12,-1
3,963,117833,-305,-16390,1986,-2,-8,-2
3,964,117838,-313,-16355,2009,-1,-7,-1
3,965,117843,-341,-16384,2043,-1,-1,-3
3,966,117848,-344,-16422,2096,-1,3,-3
3,967,117853,-291,-16368,2083,-3,7,-4
3,968,117858,-271,-16379,2098,-3,7,-1
3,969,117863,-289,-16325,2090,-2,2,0
3,970,117868,-296,-16330,2080,-1,-5,3
3,971,117873,-328,-16353,2071,-1,-12,0
3,972,117878,-358,-16371,2048,-2,-9,1
3,973,117883,-346,-16407,2009,-2,-6,3
3,974,117888,-354,-16380,1990,-2,-9,2
3,975,117893,-388,-16397,1946,-4,-9,1
3,976,117898,-426,-16407,1951,-3,-9,2
3,977,117903,-478,-16414,1994,-1,-7,3
3,978,117908,-462,-16374,1997,-2,-6,2
3,979,117913,-410,-16378,2025,-3,-1,0
3,980,117918,-367,-16391,2048,0,3,1
3,981,117923,-407,-16412,2069,-2,0,2
3,982,117928,-367,-16385,2040,-3,-6,1
3,983,117933,-375,-16367,2033,-2,-5,-2
3,984,117938,-398,-16368,2074,-5,-4,0
3,985,117943,-371,-16369,2081,-3,-5,-2
3,986,117948,-367,-16353,2058,-2,-7,0
3,987,117953,-345,-16358,2085,-2,-8,2
3,988,117958,-351,-16385,2038,-1,-7,2
3,989,117963,-353,-16385,2008,1,-9,3
3,990,117968,-342,-16396,1983,-3,-5,2
3,991,117973,-315,-16389,1979,-7,-5,3
3,992,117978,-365,-16400,1940,-2,-7,4
3,993,117983,-368,-16406,1902,-5,-5,2
3,994,117988,-376,-16422,1947,-5,-3,1
3,995,117993,-388,-16380,1995,-3,0,2
3,996,117998,-383,-16357,2022,-4,1,1
3,997,118003,-382,-16380,1994,-4,1,3
3,998,118008,-411,-16376,2008,-2,2,3
3,999,118013,-427,-16364,1986,0,4,0
