event_id,seq,ts_ms,ax,ay,az,gx,gy,gz
7,0,837665,-601,-16573,1361,-8,-108,-33
7,1,837670,-729,-16630,1359,-7,-97,-37
7,2,837675,-783,-16679,1344,-4,-87,-36
7,3,837680,-685,-16714,1344,-5,-77,-36
7,4,837685,-627,-16705,1329,-4,-68,-36
7,5,837690,-543,-16693,1391,-6,-71,-39
7,6,837695,-547,-16637,1429,-6,-75,-39
7,7,837700,-512,-16586,1431,-6,-78,-37
7,8,837705,-445,-16550,1390,-4,-77,-39
7,9,837710,-429,-16438,1404,-1,-78,-37
7,10,837715,-455,-16389,1389,0,-77,-37
7,11,837720,-517,-16321,1385,-4,-77,-36
7,12,837725,-532,-16306,1381,-4,-82,-33
7,13,837730,-478,-16350,1424,-2,-79,-32
7,14,837735,-464,-16341,1427,-3,-72,-34
7,15,837740,-509,-16325,1419,-4,-71,-35
7,16,837745,-614,-16326,1402,-4,-75,-31
7,17,837750,-646,-16301,1341,-3,-77,-35
7,18,837755,-768,-16312,1378,-2,-76,-33
7,19,837760,-796,-16343,1573,-5,-77,-30
7,20,837765,-770,-16334,1683,-7,-82,-33
7,21,837770,-763,-16350,1656,-4,-91,-33
7,22,837775,-765,-16388,1539,-7,-104,-35
7,23,837780,-743,-16416,1565,-7,-127,-33
7,24,837785,-808,-16354,1696,-6,-162,-31
7,25,837790,-739,-16427,1750,-10,-204,-29
7,26,837795,-698,-16471,1579,-8,-233,-26
7,27,837800,-626,-16483,1374,-6,-244,-25
7,28,837805,-548,-16453,1385,-8,-251,-27
7,29,837810,-491,-16423,1437,-8,-271,-26
7,30,837815,-426,-16355,1284,-9,-293,-20
7,31,837820,-396,-16310,1112,-10,-290,-16
7,32,837825,-505,-16252,1061,-11,-259,-20
7,33,837830,-512,-16231,1049,-11,-220,-22
7,34,837835,-466,-16178,1122,-11,-186,-20
7,35,837840,-428,-16212,1044,-10,-156,-17
7,36,837845,-440,-16200,1056,-13,-124,-19
7,37,837850,-477,-16180,1176,-15,-91,-22
7,38,837855,-508,-16186,1263,-15,-62,-19
7,39,837860,-489,-16173,1298,-14,-42,-16
7,40,837865,-386,-16159,1338,-18,-30,-16
7,41,837870,-364,-16151,1490,-18,-25,-19
7,42,837875,-424,-16128,1624,-17,-37,-16
7,43,837880,-411,-16142,1642,-15,-56,-8
7,44,837885,-394,-16166,1639,-20,-73,-5
7,45,837890,-411,-16173,1759,-21,-86,-3
7,46,837895,-394,-16211,1912,-26,-105,-1
7,47,837900,-416,-16244,2007,-26,-130,2
7,48,837905,-486,-16253,1927,-27,-154,6
7,49,837910,-505,-16207,1827,-30,-160,8
7,50,837915,-562,-16199,1747,-33,-161,8
7,51,837920,-654,-16212,1694,-34,-166,10
7,52,837925,-621,-16259,1567,-34,-177,13
7,53,837930,-519,-16290,1434,-39,-177,15
7,54,837935,-510,-16300,1401,-41,-160,14
7,55,837940,-552,-16271,1491,-43,-126,13
7,56,837945,-654,-16223,1474,-43,-88,11
7,57,837950,-765,-16115,1520,-46,-53,10
7,58,837955,-771,-16034,1652,-49,-10,10
7,59,837960,-690,-15941,1935,-52,24,10
7,60,837965,-686,-15868,2255,-54,42,6
7,61,837970,-825,-15840,2486,-57,51,4
7,62,837975,-895,-15853,2633,-63,45,9
7,63,837980,-908,-15820,2883,-70,31,6
7,64,837985,-1027,-15872,3202,-74,-8,4
7,65,837990,-1146,-15871,3411,-81,-62,7
7,66,837995,-1024,-15868,3513,-83,-133,13
7,67,838000,-882,-15960,3758,-85,-211,15
7,68,838005,-801,-16050,4091,-93,-289,17
7,69,838010,-736,-16065,4371,-103,-368,22
7,70,838015,-682,-15938,4550,-113,-441,24
7,71,838020,-733,-15756,4650,-123,-498,27
7,72,838025,-817,-15631,4793,-134,-535,31
7,73,838030,-614,-15222,5219,-160,-564,37
7,74,838035,-463,-14938,5503,-178,-564,37
7,75,838040,-597,-14722,5773,-193,-560,33
7,76,838045,-887,-14555,5844,-207,-564,34
7,77,838050,-889,-14403,5737,-222,-567,37
7,78,838055,-624,-13995,5849,-236,-552,37
7,79,838060,-304,-13640,6324,-257,-533,35
7,80,838065,-250,-13262,6741,-275,-540,35
7,81,838070,-293,-12973,6543,-286,-580,42
7,82,838075,-356,-12718,6065,-302,-613,49
7,83,838080,-426,-12588,5753,-324,-640,51
7,84,838085,-558,-12693,5705,-341,-671,55
7,85,838090,-712,-13031,5334,-349,-732,63
7,86,838095,-793,-13580,4533,-353,-789,68
7,87,838100,-967,-14143,3617,-359,-803,75
7,88,838105,-1236,-14676,3270,-367,-767,69
7,89,838110,-1453,-15173,3113,-372,-716,66
7,90,838115,-1537,-15540,2717,-372,-658,61
7,91,838120,-1609,-15786,2314,-374,-577,49
7,92,838125,-1752,-15914,2222,-375,-484,39
7,93,838130,-1692,-15959,2472,-375,-407,31
7,94,838135,-1462,-16055,2793,-372,-361,23
7,95,838140,-1272,-16144,2970,-374,-345,18
7,96,838145,-1200,-16228,2963,-369,-360,13
7,97,838150,-1215,-16125,2991,-366,-399,13
7,98,838155,-1044,-15897,3080,-367,-460,15
7,99,838160,-895,-15724,3263,-369,-541,18
7,100,838165,-729,-15727,3173,-363,-635,29
7,101,838170,-548,-15809,2740,-354,-715,37
7,102,838175,-480,-15971,2279,-352,-770,41
7,103,838180,-512,-16105,2056,-351,-814,45
7,104,838185,-528,-16203,1799,-346,-865,52
7,105,838190,-501,-16340,1229,-339,-900,58
7,106,838195,-633,-16502,615,-328,-894,59
7,107,838200,-851,-16689,233,-320,-845,55
7,108,838205,-830,-16852,101,-314,-791,57
7,109,838210,-536,-17036,133,-307,-741,58
7,110,838215,-184,-17128,167,-294,-697,57
7,111,838220,-29,-17107,213,-288,-658,48
7,112,838225,-137,-16986,290,-283,-618,51
7,113,838230,-387,-16786,414,-272,-598,53
7,114,838235,-465,-16697,477,-264,-594,56
7,115,838240,-446,-16666,659,-256,-599,61
7,116,838245,-402,-16661,753,-247,-616,65
7,117,838250,-423,-16767,662,-241,-645,66
7,118,838255,-498,-16929,482,-231,-685,70
7,119,838260,-357,-17128,188,-221,-727,76
7,120,838265,-16,-17224,4,-214,-754,80
7,121,838270,78,-17317,-165,-207,-760,82
7,122,838275,-292,-17481,-399,-196,-758,86
7,123,838280,-671,-17655,-696,-186,-740,91
7,124,838285,-623,-17818,-1000,-174,-704,95
7,125,838290,-293,-17871,-866,-166,-649,92
7,126,838295,-234,-17836,-324,-158,-594,90
7,127,838300,-517,-17730,146,-154,-580,88
7,128,838305,-705,-17642,150,-149,-599,91
7,129,838310,-770,-17575,-146,-139,-607,96
7,130,838315,-834,-17664,-203,-131,-591,95
7,131,838320,-944,-17839,175,-127,-594,96
7,132,838325,-948,-17996,274,-121,-627,95
7,133,838330,-787,-18287,-172,-111,-660,102
7,134,838335,-478,-18053,-616,-102,-650,91
7,135,838340,-441,-18024,-398,-98,-590,101
7,136,838345,-671,-18064,-229,-90,-559,109
7,137,838350,-835,-17938,-422,-87,-542,102
7,138,838355,-1083,-17951,-665,-82,-478,105
7,139,838360,-1389,-18162,-692,-78,-375,110
7,140,838365,-1246,-17712,-366,-73,-272,82
7,141,838370,-1464,-17445,305,-72,-210,78
7,142,838375,-1598,-17471,715,-66,-250,85
7,143,838380,-1854,-17371,1061,-61,-321,81
7,144,838385,-1739,-17465,944,-54,-408,87
7,145,838390,-1497,-17490,1169,-49,-461,85
7,146,838395,-814,-17580,1327,-41,-649,90
7,147,838400,-800,-17740,864,-35,-789,100
7,148,838405,-1098,-17818,68,-29,-896,112
7,149,838410,-1342,-17880,-709,-20,-936,115
7,150,838415,-1524,-17909,-1145,-16,-892,116
7,151,838420,-1279,-17942,-1562,-9,-805,110
7,152,838425,-1055,-18055,-1627,-1,-692,99
7,153,838430,-944,-18121,-1613,6,-596,90
7,154,838435,-951,-18157,-1605,15,-513,85
7,155,838440,-699,-17951,-2009,27,-427,85
7,156,838445,-383,-17718,-2025,38,-306,83
7,157,838450,-584,-17339,-1441,38,-189,80
7,158,838455,-1053,-16963,-716,43,-125,73
7,159,838460,-1452,-16707,-548,53,-111,76
7,160,838465,-1478,-16502,-686,60,-99,77
7,161,838470,-1343,-16311,-92,60,-73,75
7,162,838475,-1375,-16317,1018,61,-95,71
7,163,838480,-1447,-16484,1503,67,-212,71
7,164,838485,-1620,-16886,906,77,-367,75
7,165,838490,-1877,-17228,164,86,-495,73
7,166,838495,-1979,-17349,-49,89,-598,68
7,167,838500,-1621,-17279,191,94,-698,68
7,168,838505,-1013,-17296,155,98,-805,76
7,169,838510,-807,-17414,-407,112,-892,80
7,170,838515,-1019,-17516,-1138,127,-923,77
7,171,838520,-1156,-17383,-1484,133,-892,75
7,172,838525,-814,-17059,-1360,136,-823,75
7,173,838530,-290,-16696,-1127,138,-738,77
7,174,838535,-190,-16296,-1272,144,-633,68
7,175,838540,-577,-15990,-1540,149,-502,60
7,176,838545,-906,-15793,-1281,144,-356,48
7,177,838550,-746,-15523,-371,136,-230,43
7,178,838555,-290,-15373,420,137,-149,37
7,179,838560,-192,-15468,638,144,-125,32
7,180,838565,-505,-15519,554,148,-146,27
7,181,838570,-946,-15395,643,148,-220,30
7,182,838575,-1073,-15381,833,146,-329,42
7,183,838580,-857,-15630,714,152,-450,54
7,184,838585,-760,-15941,219,164,-542,54
7,185,838590,-1097,-16070,-156,175,-588,46
7,186,838595,-1521,-16060,-281,175,-623,44
7,187,838600,-1629,-16006,-391,179,-674,40
7,188,838605,-1394,-15886,-955,187,-719,42
7,189,838610,-1306,-15826,-1533,194,-714,36
7,190,838615,-1748,-15789,-1536,193,-663,23
7,191,838620,-2068,-15772,-1494,203,-611,12
7,192,838625,-1972,-15699,-1860,212,-559,3
7,193,838630,-1810,-15657,-2164,214,-468,-14
7,194,838635,-1755,-15484,-1941,216,-364,-32
7,195,838640,-1687,-15305,-1275,222,-290,-51
7,196,838645,-1434,-15245,-965,228,-289,-58
7,197,838650,-904,-15294,-1231,237,-312,-55
7,198,838655,-444,-15342,-1537,244,-317,-62
7,199,838660,-297,-15324,-1447,253,-313,-69
7,200,838665,-448,-15308,-1608,265,-342,-73
7,201,838670,-594,-15197,-2272,277,-384,-69
7,202,838675,-592,-15160,-3102,287,-380,-67
7,203,838680,-629,-15172,-3599,293,-305,-71
7,204,838685,-760,-15184,-3885,299,-196,-82
7,205,838690,-1261,-15427,-4108,313,-90,-96
7,206,838695,-1649,-15766,-4358,326,0,-102
7,207,838700,-1591,-16169,-4565,336,103,-104
7,208,838705,-1522,-16562,-4476,342,237,-117
7,209,838710,-1890,-16864,-3981,358,374,-140
7,210,838715,-2226,-17030,-3502,367,453,-157
7,211,838720,-2231,-17178,-2878,368,457,-164
7,212,838725,-1853,-17343,-1895,371,410,-161
7,213,838730,-1378,-17693,-1145,382,303,-155
7,214,838735,-1112,-18155,-1088,393,153,-155
7,215,838740,-1371,-18475,-1510,400,-8,-155
7,216,838745,-2017,-18498,-1962,402,-178,-156
7,217,838750,-2542,-18641,-2191,401,-346,-144
7,218,838755,-2128,-18904,-2341,403,-480,-131
7,219,838760,-852,-19383,-2375,400,-507,-140
7,220,838765,-1136,-19542,-2751,400,-514,-148
7,221,838770,-1393,-19682,-3679,403,-563,-139
7,222,838775,-1270,-19632,-4820,402,-597,-121
7,223,838780,-959,-19353,-5411,395,-528,-114
7,224,838785,-889,-19082,-5388,386,-363,-119
7,225,838790,-778,-18997,-5192,384,-151,-126
7,226,838795,-249,-19079,-5189,387,69,-121
7,227,838800,397,-19191,-5149,386,265,-119
7,228,838805,484,-19191,-4791,381,381,-115
7,229,838810,-342,-19241,-4278,371,398,-104
7,230,838815,-1246,-19426,-4054,364,362,-79
7,231,838820,-1655,-19857,-4335,361,354,-56
7,232,838825,-1787,-20287,-4375,366,394,-50
7,233,838830,-1925,-20467,-4294,372,422,-50
7,234,838835,-2517,-20361,-4380,372,369,-45
7,235,838840,-3464,-20283,-4523,367,252,-34
7,236,838845,-4001,-20226,-4430,359,130,-19
7,237,838850,-3703,-20065,-4108,354,90,-9
7,238,838855,-3070,-19904,-3675,355,134,-19
7,239,838860,-2896,-19592,-3144,353,163,-34
7,240,838865,-2829,-19197,-2612,338,89,-28
7,241,838870,-2681,-18718,-2329,325,-63,-5
7,242,838875,-2061,-18553,-2551,316,-185,24
7,243,838880,-1914,-18380,-2964,307,-184,33
7,244,838885,-1561,-18506,-3174,298,-97,33
7,245,838890,-1713,-18384,-3209,285,-10,37
7,246,838895,-2115,-18348,-3708,273,9,48
7,247,838900,-2845,-18337,-4361,265,2,63
7,248,838905,-3090,-18424,-4736,257,48,77
7,249,838910,-3147,-18399,-4557,248,175,76
7,250,838915,-3427,-18330,-4176,247,312,69
7,251,838920,-4235,-18348,-3737,242,370,65
7,252,838925,-4702,-18370,-3226,235,311,79
7,253,838930,-4690,-18348,-2264,225,198,89
7,254,838935,-4202,-18061,-886,213,80,82
7,255,838940,-3230,-17949,179,213,-53,95
7,256,838945,-2453,-17782,693,210,-188,98
7,257,838950,-1959,-17585,535,205,-328,110
7,258,838955,-1434,-17089,-956,199,-493,141
7,259,838960,-1632,-16630,-2278,183,-569,163
7,260,838965,-1937,-16441,-2739,163,-526,173
7,261,838970,-1674,-16397,-2790,146,-368,186
7,262,838975,-1390,-16212,-3039,138,-123,179
7,263,838980,-1682,-16113,-3287,138,124,164
7,264,838985,-2561,-15771,-2891,132,280,161
7,265,838990,-3253,-15405,-1668,107,322,170
7,266,838995,-3398,-15231,-559,92,294,184
7,267,839000,-3170,-15285,-277,91,268,188
7,268,839005,-3122,-15389,-298,101,266,188
7,269,839010,-3272,-15619,-263,92,230,189
7,270,839015,-3102,-15867,379,79,132,201
7,271,839020,-2942,-15983,337,75,-10,223
7,272,839025,-2323,-16344,-393,82,-75,231
7,273,839030,-1901,-16733,-881,78,8,226
7,274,839035,-1504,-16818,-91,74,184,215
7,275,839040,-1748,-16549,792,65,282,203
7,276,839045,-1902,-16251,536,65,252,213
7,277,839050,-2324,-15964,796,50,298,218
7,278,839055,-2694,-15560,2077,31,430,205
7,279,839060,-2755,-15377,3112,25,526,194
7,280,839065,-2631,-15098,3425,19,559,194
7,281,839070,-2394,-14926,3250,0,532,189
7,282,839075,-2731,-14817,3772,-25,491,181
7,283,839080,-3156,-14920,4030,-38,434,181
7,284,839085,-3239,-15165,3536,-41,416,177
7,285,839090,-2809,-15637,2443,-36,410,172
7,286,839095,-2376,-15959,2607,-40,398,162
7,287,839100,-1642,-16054,3491,-47,337,157
7,288,839105,-761,-15669,3273,-46,249,164
7,289,839110,-462,-15387,1298,-41,210,168
7,290,839115,-1113,-15210,33,-36,290,147
7,291,839120,-1723,-15069,427,-36,408,136
7,292,839125,-377,-14561,1223,-27,630,130
7,293,839130,-18,-14558,493,-7,838,109
7,294,839135,-433,-14258,1066,-5,1091,76
7,295,839140,-764,-13737,2401,-13,1224,63
7,296,839145,-678,-13506,3584,-19,1271,68
7,297,839150,-499,-13618,3527,-14,1336,66
7,298,839155,-1065,-13966,3818,-6,1470,41
7,299,839160,-1930,-14191,4770,-7,1526,14
7,300,839165,-2124,-14251,5880,-10,1436,14
7,301,839170,-1582,-14407,6439,-13,1288,25
7,302,839175,-1153,-14659,6392,-12,1198,17
7,303,839180,-1356,-14718,6530,-8,1164,-6
7,304,839185,-1457,-14559,6553,-9,1082,-12
7,305,839190,-1346,-14360,7005,-19,984,-13
7,306,839195,-954,-14283,7293,-35,892,-13
7,307,839200,-470,-14392,7501,-42,870,-23
7,308,839205,-200,-14561,7232,-42,892,-31
7,309,839210,-418,-14742,7005,-52,920,-37
7,310,839215,-440,-14940,7301,-68,937,-45
7,311,839220,-788,-15005,7774,-86,933,-55
7,312,839225,-707,-14994,8172,-95,942,-64
7,313,839230,-526,-14943,8292,-100,978,-72
7,314,839235,-138,-14939,8613,-107,1011,-81
7,315,839240,-283,-14829,9242,-121,985,-92
7,316,839245,-541,-14658,9961,-140,861,-91
7,317,839250,-675,-14604,9576,-151,679,-77
7,318,839255,-559,-14668,8644,-153,579,-73
7,319,839260,-683,-14631,8255,-158,576,-85
7,320,839265,-684,-14486,8610,-176,577,-98
7,321,839270,-328,-14352,9077,-193,542,-95
7,322,839275,14,-14362,8961,-201,496,-92
7,323,839280,182,-14458,8567,-208,505,-96
7,324,839285,79,-14293,8680,-218,565,-107
7,325,839290,-48,-14157,9224,-233,610,-111
7,326,839295,-143,-14176,9550,-248,614,-111
7,327,839300,-35,-14360,9429,-258,599,-109
7,328,839305,-5,-14542,9418,-266,608,-111
7,329,839310,-110,-14740,9955,-275,626,-118
7,330,839315,-108,-14842,10537,-288,596,-123
7,331,839320,37,-14855,10676,-294,496,-116
7,332,839325,116,-14847,10590,-296,377,-105
7,333,839330,-20,-14712,10523,-304,271,-101
7,334,839335,-211,-14576,10544,-309,181,-99
7,335,839340,-269,-14510,10581,-315,103,-95
7,336,839345,-180,-14535,10533,-322,43,-89
7,337,839350,-97,-14499,10700,-327,11,-92
7,338,839355,-154,-14265,10642,-336,-7,-95
7,339,839360,-309,-13960,10457,-345,-19,-98
7,340,839365,-651,-13811,10551,-353,-25,-96
7,341,839370,-788,-13944,10834,-360,-52,-93
7,342,839375,-342,-14121,11075,-357,-102,-87
7,343,839380,183,-14197,10836,-350,-173,-84
7,344,839385,104,-14026,10482,-348,-271,-92
7,345,839390,-278,-13814,10081,-346,-404,-80
7,346,839395,-244,-13719,9279,-339,-539,-58
7,347,839400,118,-13685,8224,-330,-573,-49
7,348,839405,127,-13570,7374,-325,-472,-54
7,349,839410,-44,-13470,7239,-324,-299,-74
7,350,839415,11,-13467,7750,-318,-140,-86
7,351,839420,-205,-13420,8271,-316,-93,-81
7,352,839425,-706,-13628,8626,-301,-138,-78
7,353,839430,-1229,-13980,9334,-287,-200,-91
7,354,839435,-878,-14267,9429,-262,-330,-91
7,355,839440,-120,-14394,9140,-230,-530,-69
7,356,839445,184,-14462,8572,-207,-816,-44
7,357,839450,-178,-14852,6865,-183,-1144,-20
7,358,839455,-761,-15342,4700,-151,-1307,-3
7,359,839460,-971,-15730,2847,-128,-1204,-9
7,360,839465,-562,-15873,2631,-103,-903,-38
7,361,839470,74,-15949,2807,-75,-655,-58
7,362,839475,581,-16043,2507,-40,-524,-61
7,363,839480,396,-16064,2412,-12,-368,-67
7,364,839485,-717,-15580,3328,-4,-167,-93
7,365,839490,-1018,-15580,5836,56,-49,-98
7,366,839495,103,-16116,6880,87,-159,-88
7,367,839500,324,-16632,6811,118,-376,-83
7,368,839505,-1311,-16912,7268,152,-633,-86
7,369,839510,-2641,-16743,5950,183,-985,-65
7,370,839515,-2184,-16644,4020,228,-1199,-27
7,371,839520,-926,-16782,2918,251,-1175,-34
7,372,839525,-499,-16871,3563,264,-1071,-65
7,373,839530,-973,-16927,3707,288,-1098,-72
7,374,839535,-1619,-16908,3014,312,-1144,-71
7,375,839540,-1565,-16959,1791,331,-1058,-70
7,376,839545,-809,-16875,1619,351,-800,-95
7,377,839550,-190,-16890,2705,363,-559,-131
7,378,839555,-47,-16970,3054,380,-524,-139
7,379,839560,-391,-17192,2803,400,-554,-128
7,380,839565,-1307,-17453,2539,412,-501,-129
7,381,839570,-1650,-17591,2651,430,-365,-151
7,382,839575,-1031,-17430,2996,465,-260,-165
7,383,839580,-520,-16973,3681,483,-292,-173
7,384,839585,-613,-16770,4083,493,-529,-157
7,385,839590,-1123,-16793,4139,501,-827,-127
7,386,839595,-1512,-17030,2836,522,-1032,-110
7,387,839600,-1925,-17315,2205,537,-995,-124
7,388,839605,-1968,-17252,2275,550,-895,-152
7,389,839610,-1345,-16893,3121,563,-864,-155
7,390,839615,-702,-16404,3698,558,-915,-154
7,391,839620,-736,-16012,3843,556,-989,-158
7,392,839625,-1236,-15781,3198,557,-1048,-156
7,393,839630,-1311,-15649,2269,558,-1011,-156
7,394,839635,-1045,-15571,1368,549,-866,-170
7,395,839640,-1151,-15617,972,530,-673,-199
7,396,839645,-1487,-15969,539,521,-535,-212
7,397,839650,-1531,-16669,-441,526,-417,-211
7,398,839655,-1214,-17366,-1672,528,-209,-223
7,399,839660,-1059,-17738,-2240,532,124,-261
7,400,839665,-2318,-18157,-584,528,473,-301
7,401,839670,-4256,-18701,1773,520,552,-325
7,402,839675,-2437,-19442,1877,556,315,-267
7,403,839680,1005,-19520,2258,570,130,-243
7,404,839685,1718,-18965,4391,556,-21,-283
7,405,839690,-469,-18096,5011,559,-393,-279
7,406,839695,-2140,-17539,2705,570,-839,-225
7,407,839700,-1399,-16787,562,549,-999,-190
7,408,839705,438,-16515,1250,527,-809,-171
7,409,839710,1310,-16186,2918,506,-608,-221
7,410,839715,497,-16002,2163,500,-595,-253
7,411,839720,-1325,-16122,562,489,-595,-242
7,412,839725,-2174,-16185,176,453,-518,-240
7,413,839730,-1811,-16168,1818,431,-380,-245
7,414,839735,-966,-16291,2690,428,-290,-250
7,415,839740,-1442,-16414,2725,429,-267,-273
7,416,839745,-2450,-16448,2305,420,-386,-281
7,417,839750,-2862,-16205,2038,396,-609,-246
7,418,839755,-2460,-16185,1687,382,-771,-222
7,419,839760,-2123,-16365,1009,381,-752,-242
7,420,839765,-2354,-16188,368,381,-593,-279
7,421,839770,-2341,-15919,615,360,-415,-307
7,422,839775,-2199,-15505,1104,335,-395,-310
7,423,839780,-1365,-15606,144,332,-540,-283
7,424,839785,-1514,-16072,-897,325,-581,-278
7,425,839790,-1987,-16575,-883,309,-443,-304
7,426,839795,-2005,-17014,-942,302,-286,-321
7,427,839800,-1333,-17436,-1441,306,-196,-326
7,428,839805,-934,-17485,-1683,305,-168,-329
7,429,839810,-1225,-17420,-1232,302,-166,-329
7,430,839815,-2040,-17366,-860,302,-172,-327
7,431,839820,-2487,-17326,-1429,314,-166,-324
7,432,839825,-2078,-17339,-1482,320,-133,-322
7,433,839830,-933,-17290,-790,320,-168,-312
7,434,839835,216,-17202,120,317,-316,-297
7,435,839840,205,-17337,-264,324,-560,-281
7,436,839845,-672,-17768,-2282,340,-763,-252
7,437,839850,-1407,-18249,-4373,345,-777,-232
7,438,839855,-1510,-18566,-4524,330,-587,-237
7,439,839860,-609,-19001,-3279,341,-206,-251
7,440,839865,-331,-19321,-3256,350,-34,-257
7,441,839870,-331,-19365,-2468,339,140,-269
7,442,839875,-168,-19334,-1032,332,220,-260
7,443,839880,451,-19559,-879,346,159,-224
7,444,839885,771,-19872,-1754,359,113,-200
7,445,839890,176,-19896,-2603,360,148,-197
7,446,839895,-704,-19658,-2497,353,223,-187
7,447,839900,-831,-19470,-2161,351,271,-161
7,448,839905,-293,-19685,-1952,352,333,-134
7,449,839910,-368,-20295,-1710,358,425,-133
7,450,839915,-989,-20626,-1268,359,469,-146
7,451,839920,-1642,-20526,-160,350,404,-138
7,452,839925,-1533,-20268,650,338,210,-100
7,453,839930,-617,-20335,495,333,-24,-54
7,454,839935,-103,-20631,-220,335,-171,-28
7,455,839940,-598,-20843,-929,327,-208,-24
7,456,839945,-1577,-21031,-1138,308,-183,-22
7,457,839950,-1899,-21214,-1331,296,-163,-7
7,458,839955,-1471,-21360,-1514,289,-123,8
7,459,839960,-1067,-21363,-1410,282,-51,7
7,460,839965,-957,-21127,-978,270,12,6
7,461,839970,-969,-20807,-690,255,14,16
7,462,839975,-953,-20422,-867,245,1,36
7,463,839980,-1124,-20033,-1301,235,37,51
7,464,839985,-1424,-19492,-1460,215,146,49
7,465,839990,-1748,-18895,-861,197,271,50
7,466,839995,-1859,-18317,-100,178,334,56
7,467,840000,-1689,-17951,773,157,317,66
7,468,840005,-1233,-17896,1425,137,226,79
7,469,840010,-961,-18040,1870,118,102,89
7,470,840015,-1236,-18108,1829,104,-53,101
7,471,840020,-1727,-18060,909,92,-227,124
7,472,840025,-1986,-17993,-199,70,-372,144
7,473,840030,-1884,-18115,-528,44,-446,162
7,474,840035,-1361,-18394,-216,23,-463,174
7,475,840040,-932,-18757,-304,13,-445,175
7,476,840045,-1031,-19002,-1150,7,-394,168
7,477,840050,-1588,-18859,-1982,-8,-328,169
7,478,840055,-1807,-18677,-2261,-34,-242,171
7,479,840060,-1815,-18540,-2201,-50,-121,170
7,480,840065,-2025,-18402,-2118,-60,50,154
7,481,840070,-2340,-17966,-1804,-77,253,135
7,482,840075,-2071,-17389,-596,-105,436,127
7,483,840080,-1163,-16838,1197,-131,521,129
7,484,840085,-493,-16437,2300,-152,463,136
7,485,840090,-663,-16300,2337,-170,312,146
7,486,840095,-1334,-16217,2137,-195,144,160
7,487,840100,-1603,-16288,2244,-227,-11,187
7,488,840105,-1384,-16535,2236,-247,-145,214
7,489,840110,-1268,-16802,1520,-258,-227,218
7,490,840115,-1817,-17005,796,-279,-249,207
7,491,840120,-2509,-17110,620,-302,-258,203
7,492,840125,-2777,-17163,1073,-330,-285,207
7,493,840130,-2505,-17142,1111,-346,-322,209
7,494,840135,-2361,-17158,616,-359,-303,201
7,495,840140,-2850,-16938,134,-375,-213,180
7,496,840145,-3222,-16320,87,-404,-108,160
7,497,840150,-3347,-15542,618,-439,-34,150
7,498,840155,-3311,-15082,1783,-471,-1,139
7,499,840160,-2511,-15005,3082,-499,-26,137
7,500,840165,-1054,-15005,4003,-519,-81,145
7,501,840170,398,-14983,3915,-530,-175,157
7,502,840175,964,-14904,3055,-550,-305,169
7,503,840180,763,-14883,2124,-577,-432,184
7,504,840185,-45,-14770,1523,-600,-499,202
7,505,840190,-303,-14756,536,-615,-453,218
7,506,840195,-515,-14570,749,-637,-194,204
7,507,840200,-356,-14411,804,-656,53,181
7,508,840205,-659,-14175,2107,-681,222,162
7,509,840210,-904,-13879,2654,-701,169,167
7,510,840215,-1413,-13705,2783,-714,57,181
7,511,840220,-1638,-13743,2274,-730,4,185
7,512,840225,-901,-13607,2906,-768,104,163
7,513,840230,-357,-13370,3079,-781,92,159
7,514,840235,-102,-13235,2884,-800,48,155
7,515,840240,-131,-13281,2674,-824,40,158
7,516,840245,241,-13459,2366,-839,79,166
7,517,840250,699,-13646,2290,-845,195,163
7,518,840255,1036,-13798,2634,-854,323,149
7,519,840260,883,-13844,3232,-871,382,142
7,520,840265,649,-13903,3152,-882,344,157
7,521,840270,366,-14185,2474,-885,291,167
7,522,840275,-259,-14314,2050,-891,302,162
7,523,840280,-1160,-14341,2475,-900,348,145
7,524,840285,-1664,-14337,3218,-909,371,134
7,525,840290,-1289,-14362,3303,-911,357,134
7,526,840295,-1029,-14488,3184,-910,355,123
7,527,840300,-1372,-14611,3413,-922,357,105
7,528,840305,-1652,-14603,3879,-931,319,86
7,529,840310,-1282,-14715,3762,-932,242,87
7,530,840315,-99,-14887,2963,-930,172,94
7,531,840320,889,-15103,2355,-930,169,87
7,532,840325,1117,-15217,2150,-927,178,80
7,533,840330,1146,-15295,1635,-921,144,84
7,534,840335,1115,-15421,690,-913,123,99
7,535,840340,1306,-15636,-87,-908,201,104
7,536,840345,1214,-15714,199,-900,377,90
7,537,840350,958,-15730,578,-890,545,81
7,538,840355,711,-15590,461,-873,656,73
7,539,840360,567,-15699,281,-857,720,71
7,540,840365,136,-15710,755,-851,756,67
7,541,840370,-64,-15681,1553,-844,776,56
7,542,840375,-776,-15601,2156,-831,803,45
7,543,840380,-1151,-15584,1968,-819,829,31
7,544,840385,-1174,-15550,1973,-803,858,20
7,545,840390,-536,-15793,2447,-791,854,11
7,546,840395,192,-16146,3188,-787,796,6
7,547,840400,638,-16595,3628,-776,692,6
7,548,840405,447,-17007,3396,-764,608,7
7,549,840410,380,-17030,2865,-755,575,5
7,550,840415,519,-16773,2492,-743,594,2
7,551,840420,554,-16651,2434,-734,599,-2
7,552,840425,462,-16624,2406,-723,558,-2
7,553,840430,780,-16645,2122,-713,509,7
7,554,840435,755,-16551,1878,-705,508,6
7,555,840440,536,-16290,1672,-686,553,-2
7,556,840445,-3,-16066,1588,-668,597,-9
7,557,840450,-191,-15993,1824,-654,611,-10
7,558,840455,-89,-16163,2580,-647,587,-7
7,559,840460,77,-16285,3010,-634,537,-9
7,560,840465,286,-16231,2778,-613,497,-12
7,561,840470,450,-16239,2359,-596,468,-24
7,562,840475,358,-15841,2270,-592,418,-27
7,563,840480,633,-15677,2275,-571,299,-12
7,564,840485,611,-16090,2030,-548,169,-3
7,565,840490,794,-17066,1797,-541,78,8
7,566,840495,1340,-18613,2916,-540,65,10
7,567,840500,2133,-17993,4179,-533,32,20
7,568,840505,2415,-17465,3895,-505,-122,40
7,569,840510,23,-16787,3003,-464,-311,-5
7,570,840515,-1236,-17146,1072,-453,-602,72
7,571,840520,-604,-16817,1192,-481,-607,86
7,572,840525,509,-16894,2641,-463,-361,60
7,573,840530,1071,-17154,2573,-433,-182,28
7,574,840535,885,-17591,1049,-419,-56,24
7,575,840540,746,-16929,1733,-442,93,9
7,576,840545,827,-16684,4018,-473,207,18
7,577,840550,191,-15452,2453,-463,184,16
7,578,840555,-357,-14976,-406,-392,214,6
7,579,840560,-1101,-15401,-1393,-384,375,-14
7,580,840565,-567,-15243,1325,-434,524,-7
7,581,840570,366,-15373,3329,-442,579,-13
7,582,840575,166,-16633,1320,-392,650,-15
7,583,840580,-420,-17905,-784,-373,963,-50
7,584,840585,-1037,-17483,871,-408,1333,-97
7,585,840590,-104,-17099,3504,-402,1282,-98
7,586,840595,169,-17430,1130,-382,1213,-99
7,587,840600,-6,-17333,618,-390,1290,-118
7,588,840605,-46,-16968,2047,-395,1264,-129
7,589,840610,695,-16868,1800,-386,1023,-108
7,590,840615,950,-17059,853,-376,848,-95
7,591,840620,655,-17236,-567,-368,769,-102
7,592,840625,80,-17135,-694,-356,792,-112
7,593,840630,345,-17028,-909,-351,777,-110
7,594,840635,983,-17036,-952,-341,760,-104
7,595,840640,1176,-17106,-1522,-331,773,-106
7,596,840645,819,-17185,-1414,-322,873,-120
7,597,840650,498,-17220,-1368,-313,952,-121
7,598,840655,775,-17308,-1508,-309,1014,-118
7,599,840660,1083,-17459,-1079,-308,1085,-122
7,600,840665,-2267,-16771,13227,-267,1283,-165
7,601,840670,-5598,-16298,10617,-103,1115,-118
7,602,840675,3686,-19405,-4849,-37,467,75
7,603,840680,-416,-19342,8427,-159,1165,-135
7,604,840685,-6049,-16774,18965,-242,302,-251
7,605,840690,-3292,-17722,12385,-93,-1685,95
7,606,840695,-2152,-19867,1702,-40,-2274,213
7,607,840700,-5103,-18443,2691,-117,-1559,-8
7,608,840705,-5287,-17814,5352,-76,-1109,-33
7,609,840710,-4541,-17687,4956,-21,-1076,-6
7,610,840715,-3009,-17914,-190,4,-1154,17
7,611,840720,-2840,-18121,-2317,34,-699,2
7,612,840725,-2317,-17321,-2394,62,-41,-49
7,613,840730,-1856,-16389,-1242,98,535,-73
7,614,840735,-1134,-15764,-1251,147,851,-73
7,615,840740,-266,-15641,-2686,186,1048,-58
7,616,840745,352,-15546,-3351,218,1325,-53
7,617,840750,599,-15471,-2479,250,1602,-50
7,618,840755,744,-15460,-1693,282,1715,-35
7,619,840760,582,-15472,-2116,310,1694,-11
7,620,840765,669,-15926,-2782,340,1654,10
7,621,840770,737,-16237,-2513,370,1646,20
7,622,840775,1248,-16683,-1705,394,1570,34
7,623,840780,1407,-16911,-1335,413,1378,50
7,624,840785,1611,-17158,-2504,433,1094,84
7,625,840790,1607,-17112,-2999,437,892,99
7,626,840795,1335,-17087,-2538,440,712,109
7,627,840800,854,-17045,-1766,444,538,126
7,628,840805,607,-17236,-1808,444,366,147
7,629,840810,256,-17460,-1929,452,290,155
7,630,840815,895,-17560,-3105,454,253,154
7,631,840820,1201,-17490,-2615,433,272,142
7,632,840825,490,-17177,-1141,404,246,124
7,633,840830,-245,-16927,-1256,389,167,120
7,634,840835,-150,-16735,-2153,381,241,120
7,635,840840,242,-16591,-2211,358,448,108
7,636,840845,299,-16346,-638,327,636,84
7,637,840850,37,-16243,749,302,654,72
7,638,840855,-415,-16237,943,279,564,73
7,639,840860,-880,-16339,600,257,536,67
7,640,840865,-1388,-16386,1117,234,581,48
7,641,840870,-1657,-16330,2353,217,583,30
7,642,840875,-1279,-16178,3071,199,462,20
7,643,840880,-398,-16018,2686,180,249,27
7,644,840885,248,-15836,2216,157,48,30
7,645,840890,-185,-15502,2439,127,-109,22
7,646,840895,-743,-15191,2555,101,-277,22
7,647,840900,-844,-15151,1746,94,-419,30
7,648,840905,-184,-15323,485,84,-485,36
7,649,840910,378,-15450,-6,69,-470,30
7,650,840915,169,-15517,238,52,-457,14
7,651,840920,-302,-15592,3,40,-469,6
7,652,840925,-624,-15680,-1019,34,-447,7
7,653,840930,-477,-15812,-1946,26,-347,5
7,654,840935,-311,-15925,-1542,20,-184,-8
7,655,840940,-140,-16069,-724,17,-77,-17
7,656,840945,103,-16114,-667,15,-48,-19
7,657,840950,216,-16179,-1384,15,-46,-18
7,658,840955,-288,-16221,-1264,13,29,-29
7,659,840960,-498,-16276,-765,11,36,-30
7,660,840965,-483,-16376,-978,14,12,-25
7,661,840970,-549,-16536,-1335,17,4,-28
7,662,840975,-752,-16794,-994,19,8,-38
7,663,840980,-776,-16845,-433,14,-8,-42
7,664,840985,-583,-16769,-545,19,-46,-40
7,665,840990,-374,-16741,-998,30,-73,-42
7,666,840995,-355,-16767,-1117,30,-84,-46
7,667,841000,-556,-16729,-506,22,-110,-46
7,668,841005,-664,-16635,-81,19,-171,-44
7,669,841010,-583,-16602,-549,29,-228,-38
7,670,841015,-479,-16652,-1359,33,-231,-41
7,671,841020,-365,-16745,-1469,37,-201,-47
7,672,841025,-281,-16749,-843,31,-206,-43
7,673,841030,-124,-16704,-511,31,-263,-37
7,674,841035,-132,-16671,-1102,34,-299,-37
7,675,841040,-460,-16617,-1745,39,-256,-44
7,676,841045,-656,-16491,-1682,42,-160,-50
7,677,841050,-263,-16443,-1375,40,-94,-50
7,678,841055,458,-16589,-1296,43,-73,-47
7,679,841060,459,-16829,-1167,43,-67,-51
7,680,841065,-285,-16913,-755,37,-65,-57
7,681,841070,-768,-16779,-609,38,-60,-61
7,682,841075,-721,-16752,-872,44,-40,-57
7,683,841080,-331,-16778,-952,50,-13,-56
7,684,841085,-123,-16819,-530,50,-23,-64
7,685,841090,-194,-16839,-241,51,-105,-62
7,686,841095,-338,-16961,-625,53,-215,-53
7,687,841100,-201,-17128,-1155,53,-264,-48
7,688,841105,-87,-17152,-1078,55,-225,-55
7,689,841110,-128,-16854,-798,54,-166,-68
7,690,841115,-228,-16748,-1163,59,-155,-60
7,691,841120,178,-16675,-2022,58,-166,-62
7,692,841125,374,-16777,-1954,53,-140,-60
7,693,841130,229,-16720,-1376,50,-101,-61
7,694,841135,-73,-16628,-1317,53,-59,-66
7,695,841140,-366,-16692,-1893,59,7,-71
7,696,841145,-318,-16645,-2090,66,90,-73
7,697,841150,165,-16558,-1373,62,147,-76
7,698,841155,522,-16493,-605,61,137,-78
7,699,841160,430,-16524,-652,66,72,-74
7,700,841165,22,-16606,-1118,70,15,-72
7,701,841170,-259,-16496,-1103,69,-6,-69
7,702,841175,-191,-16378,-586,68,-22,-69
7,703,841180,106,-16314,-342,72,-56,-70
7,704,841185,277,-16374,-654,73,-100,-68
7,705,841190,152,-16375,-1050,71,-124,-69
7,706,841195,0,-16248,-1203,71,-133,-66
7,707,841200,21,-16105,-1196,70,-131,-62
7,708,841205,167,-16067,-1374,69,-110,-63
7,709,841210,245,-16141,-1803,72,-57,-62
7,710,841215,139,-16195,-1932,69,18,-67
7,711,841220,7,-16203,-1617,67,91,-73
7,712,841225,89,-16272,-1291,68,139,-71
7,713,841230,229,-16402,-1304,66,177,-72
7,714,841235,154,-16638,-1077,66,215,-79
7,715,841240,-68,-16745,-529,67,221,-81
7,716,841245,-233,-16695,-201,68,179,-77
7,717,841250,-69,-16718,-267,72,104,-72
7,718,841255,144,-16763,-452,74,45,-67
7,719,841260,87,-16665,-368,73,-2,-69
7,720,841265,-285,-16626,-143,74,-57,-65
7,721,841270,-458,-16575,-228,75,-123,-61
7,722,841275,-356,-16516,-668,73,-160,-57
7,723,841280,-152,-16532,-759,73,-148,-57
7,724,841285,-120,-16510,-372,70,-115,-62
7,725,841290,-113,-16454,-76,67,-112,-65
7,726,841295,-61,-16353,-316,67,-136,-62
7,727,841300,16,-16319,-823,70,-138,-57
7,728,841305,63,-16294,-731,67,-104,-57
7,729,841310,47,-16218,-299,64,-88,-56
7,730,841315,48,-16127,-367,61,-91,-53
7,731,841320,41,-16321,-845,62,-52,-46
7,732,841325,7,-16414,-405,56,-1,-49
7,733,841330,-58,-16412,-128,58,39,-51
7,734,841335,-165,-16464,-351,61,62,-53
7,735,841340,-227,-16401,-564,58,87,-53
7,736,841345,-225,-16305,-329,55,106,-54
7,737,841350,-168,-16328,160,54,93,-50
7,738,841355,-60,-16377,164,55,50,-46
7,739,841360,-82,-16471,-129,54,17,-45
7,740,841365,-224,-16472,-230,56,10,-44
7,741,841370,-346,-16472,-1,54,-3,-43
7,742,841375,-323,-16466,113,54,-41,-37
7,743,841380,-107,-16459,-246,58,-84,-31
7,744,841385,-64,-16479,-581,59,-101,-30
7,745,841390,-157,-16480,-544,60,-110,-31
7,746,841395,-181,-16390,-446,57,-127,-28
7,747,841400,14,-16359,-771,62,-149,-21
7,748,841405,162,-16376,-1099,64,-145,-16
7,749,841410,-30,-16387,-1113,62,-114,-20
7,750,841415,-287,-16425,-899,61,-85,-20
7,751,841420,-356,-16450,-932,64,-60,-18
7,752,841425,-231,-16478,-1106,71,-23,-16
7,753,841430,-85,-16499,-976,71,33,-20
7,754,841435,-12,-16414,-529,75,77,-21
7,755,841440,34,-16352,-396,77,74,-17
7,756,841445,57,-16319,-526,78,59,-15
7,757,841450,-5,-16323,-503,77,52,-10
7,758,841455,-203,-16331,-233,75,58,-12
7,759,841460,-331,-16318,109,76,50,-11
7,760,841465,-301,-16318,182,80,29,-6
7,761,841470,-145,-16352,163,80,6,-2
7,762,841475,-33,-16335,246,80,-24,-3
7,763,841480,8,-16295,233,81,-75,0
7,764,841485,51,-16284,-75,81,-137,6
7,765,841490,50,-16366,-326,80,-186,12
7,766,841495,97,-16467,-382,78,-208,16
7,767,841500,37,-16439,-415,81,-205,19
7,768,841505,-101,-16347,-695,86,-184,18
7,769,841510,-193,-16255,-1015,86,-149,16
7,770,841515,-7,-16183,-1102,87,-112,16
7,771,841520,232,-16076,-991,88,-74,17
7,772,841525,433,-16084,-934,88,-48,19
7,773,841530,350,-16131,-899,90,-20,21
7,774,841535,269,-16200,-910,92,9,22
7,775,841540,227,-16228,-810,92,49,24
7,776,841545,150,-16317,-489,93,78,24
7,777,841550,49,-16343,-154,93,79,25
7,778,841555,-40,-16422,-73,98,51,23
7,779,841560,-170,-16509,-59,99,14,29
7,780,841565,-316,-16512,100,99,-23,32
7,781,841570,-398,-16515,152,99,-57,32
7,782,841575,-389,-16579,47,103,-85,34
7,783,841580,-280,-16659,-145,106,-107,38
7,784,841585,-157,-16698,-179,102,-110,37
7,785,841590,-167,-16609,-50,99,-110,34
7,786,841595,-243,-16502,-73,99,-111,33
7,787,841600,-193,-16412,-361,99,-98,35
7,788,841605,-2,-16400,-621,98,-62,34
7,789,841610,188,-16382,-569,95,-19,35
7,790,841615,336,-16374,-371,94,11,38
7,791,841620,406,-16412,-408,91,29,40
7,792,841625,384,-16469,-703,93,50,41
7,793,841630,198,-16446,-639,94,92,37
7,794,841635,-143,-16348,-315,92,119,40
7,795,841640,-223,-16317,-143,93,116,41
7,796,841645,-163,-16401,-257,96,97,43
7,797,841650,0,-16501,-247,95,79,43
7,798,841655,127,-16589,49,96,56,45
7,799,841660,-24,-16632,250,94,15,46
7,800,841665,-132,-16636,158,94,-38,47
7,801,841670,-268,-16662,-83,94,-73,53
7,802,841675,-257,-16654,-200,94,-80,56
7,803,841680,-104,-16639,-152,93,-76,55
7,804,841685,-124,-16525,-335,95,-82,52
7,805,841690,-104,-16536,-457,93,-80,52
7,806,841695,-23,-16445,-567,91,-57,53
7,807,841700,23,-16416,-427,89,-17,53
7,808,841705,94,-16459,-271,87,20,51
7,809,841710,108,-16509,-127,85,44,47
7,810,841715,96,-16486,-62,82,59,47
7,811,841720,81,-16455,52,81,61,48
7,812,841725,-21,-16432,121,82,55,49
7,813,841730,-184,-16457,169,82,45,49
7,814,841735,-343,-16470,177,80,31,51
7,815,841740,-464,-16557,297,75,5,49
7,816,841745,-371,-16643,266,75,-25,51
7,817,841750,-275,-16721,361,73,-35,49
7,818,841755,-303,-16747,542,74,-48,47
7,819,841760,-424,-16755,637,71,-69,43
7,820,841765,-479,-16649,511,72,-105,47
7,821,841770,-327,-16563,313,69,-138,48
7,822,841775,-158,-16463,325,68,-158,45
7,823,841780,-68,-16387,442,64,-173,46
7,824,841785,-4,-16273,377,63,-187,45
7,825,841790,45,-16241,-31,63,-189,48
7,826,841795,100,-16175,-322,63,-168,49
7,827,841800,85,-16150,-309,60,-126,47
7,828,841805,49,-16127,-215,59,-91,44
7,829,841810,121,-16142,-323,59,-58,45
7,830,841815,142,-16148,-459,59,-11,44
7,831,841820,131,-16175,-411,58,44,37
7,832,841825,142,-16220,-239,56,87,35
7,833,841830,130,-16254,-60,55,108,38
7,834,841835,-4,-16379,8,58,112,37
7,835,841840,-271,-16509,169,55,115,36
7,836,841845,-509,-16590,467,54,110,34
7,837,841850,-665,-16636,783,55,94,31
7,838,841855,-421,-16665,970,50,58,30
7,839,841860,-205,-16672,1059,55,10,35
7,840,841865,-54,-16668,1026,56,-56,30
7,841,841870,-88,-16580,906,52,-143,32
7,842,841875,-209,-16496,721,50,-228,39
7,843,841880,-197,-16409,420,49,-286,45
7,844,841885,-123,-16395,56,48,-293,46
7,845,841890,-98,-16411,-148,48,-254,42
7,846,841895,-174,-16342,-147,48,-201,38
7,847,841900,-234,-16318,-228,46,-156,35
7,848,841905,-199,-16350,-386,43,-109,30
7,849,841910,-73,-16399,-378,41,-54,30
7,850,841915,5,-16443,-176,41,14,26
7,851,841920,43,-16427,53,39,68,20
7,852,841925,36,-16488,83,40,92,22
7,853,841930,-84,-16497,37,41,98,19
7,854,841935,-84,-16469,67,41,90,22
7,855,841940,-113,-16486,192,40,80,26
7,856,841945,-145,-16499,150,42,63,28
7,857,841950,-267,-16566,18,48,50,24
7,858,841955,-366,-16640,-26,48,42,21
7,859,841960,-373,-16662,144,44,37,21
7,860,841965,-459,-16708,427,44,25,23
7,861,841970,-464,-16689,577,43,10,18
7,862,841975,-458,-16677,635,41,-3,17
7,863,841980,-297,-16634,662,43,-24,16
7,864,841985,-170,-16545,761,44,-62,17
7,865,841990,10,-16474,828,43,-130,24
7,866,841995,53,-16400,666,40,-202,28
7,867,842000,-32,-16335,281,40,-255,33
7,868,842005,-189,-16353,-128,42,-262,36
7,869,842010,-175,-16402,-379,42,-229,36
7,870,842015,-94,-16473,-386,39,-174,32
7,871,842020,-72,-16561,-405,40,-109,28
7,872,842025,-177,-16541,-540,41,-38,24
7,873,842030,-409,-16486,-575,41,37,20
7,874,842035,-598,-16451,-394,37,110,14
7,875,842040,-488,-16470,-34,37,166,9
7,876,842045,-287,-16525,308,37,201,9
7,877,842050,-78,-16645,678,40,181,8
7,878,842055,-169,-16608,823,40,132,6
7,879,842060,-162,-16505,865,38,63,14
7,880,842065,-200,-16430,730,38,-6,22
7,881,842070,-291,-16499,539,41,-56,23
7,882,842075,-321,-16508,447,43,-92,22
7,883,842080,-321,-16549,482,41,-111,22
7,884,842085,-293,-16537,432,37,-121,25
7,885,842090,-218,-16526,244,38,-118,26
7,886,842095,-177,-16508,65,38,-91,26
7,887,842100,-189,-16470,2,35,-52,23
7,888,842105,-218,-16435,37,33,-26,23
7,889,842110,-202,-16388,-6,31,-1,23
7,890,842115,-139,-16407,-95,35,32,24
7,891,842120,-113,-16472,-41,31,70,23
7,892,842125,-313,-16488,111,30,112,18
7,893,842130,-516,-16468,289,31,138,18
7,894,842135,-604,-16519,381,29,147,17
7,895,842140,-505,-16625,514,31,150,16
7,896,842145,-470,-16676,726,28,147,14
7,897,842150,-431,-16698,1005,29,127,12
7,898,842155,-494,-16690,1163,30,81,13
7,899,842160,-508,-16634,1063,25,23,16
7,900,842165,-512,-16609,983,25,-29,19
7,901,842170,-550,-16556,1049,22,-72,19
7,902,842175,-544,-16508,991,18,-113,18
7,903,842180,-442,-16463,755,20,-146,21
7,904,842185,-300,-16458,447,20,-164,23
7,905,842190,-262,-16430,195,17,-168,24
7,906,842195,-256,-16430,46,16,-158,22
7,907,842200,-289,-16390,-86,14,-138,22
7,908,842205,-253,-16416,-247,15,-107,20
7,909,842210,-253,-16467,-394,15,-53,22
7,910,842215,-256,-16508,-316,15,14,16
7,911,842220,-238,-16483,-199,13,70,11
7,912,842225,-267,-16511,-54,10,107,8
7,913,842230,-220,-16541,75,13,124,10
7,914,842235,-115,-16548,204,16,138,11
7,915,842240,-137,-16522,364,16,145,9
7,916,842245,-314,-16508,506,18,134,11
7,917,842250,-568,-16535,616,17,112,12
7,918,842255,-712,-16597,703,16,79,9
7,919,842260,-598,-16626,810,18,41,13
7,920,842265,-347,-16658,856,16,6,14
7,921,842270,-207,-16627,890,16,-29,14
7,922,842275,-349,-16549,955,15,-73,13
7,923,842280,-489,-16402,743,16,-123,15
7,924,842285,-486,-16376,432,14,-160,21
7,925,842290,-456,-16367,238,13,-157,21
7,926,842295,-379,-16403,220,14,-132,17
7,927,842300,-370,-16394,295,13,-98,14
7,928,842305,-391,-16388,297,11,-66,12
7,929,842310,-414,-16346,212,7,-34,11
7,930,842315,-298,-16319,272,6,6,9
7,931,842320,-175,-16246,458,8,48,6
7,932,842325,-139,-16198,615,5,72,4
7,933,842330,-83,-16174,575,3,74,5
7,934,842335,-126,-16182,398,4,65,6
7,935,842340,-131,-16204,295,4,57,11
7,936,842345,-119,-16263,324,3,55,11
7,937,842350,-137,-16286,367,4,56,15
7,938,842355,-152,-16317,201,4,63,14
7,939,842360,-371,-16352,80,7,81,11
7,940,842365,-626,-16415,-9,7,104,7
7,941,842370,-729,-16557,210,4,115,4
7,942,842375,-627,-16684,679,4,112,4
7,943,842380,-412,-16733,902,7,89,2
7,944,842385,-253,-16740,784,11,48,3
7,945,842390,-267,-16686,641,7,4,3
7,946,842395,-339,-16560,728,8,-55,5
7,947,842400,-405,-16449,840,9,-130,9
7,948,842405,-385,-16444,531,10,-197,17
7,949,842410,-375,-16462,122,14,-211,19
7,950,842415,-279,-16510,-27,14,-125,10
7,951,842420,-173,-16428,50,11,-95,10
7,952,842425,-133,-16349,-74,12,-67,10
7,953,842430,-138,-16319,-311,11,-18,6
7,954,842435,-292,-16357,-321,14,51,4
7,955,842440,-310,-16366,34,13,115,1
7,956,842445,-288,-16370,457,9,154,0
7,957,842450,-313,-16369,568,10,164,-1
7,958,842455,-389,-16486,649,11,161,-3
7,959,842460,-410,-16497,792,11,151,-4
7,960,842465,-308,-16525,1130,12,123,-3
7,961,842470,-309,-16555,1334,12,76,0
7,962,842475,-333,-16502,1281,12,5,4
7,963,842480,-409,-16471,1127,11,-60,6
7,964,842485,-484,-16432,971,8,-105,7
7,965,842490,-455,-16418,792,6,-132,11
7,966,842495,-391,-16398,592,7,-140,12
7,967,842500,-300,-16375,398,5,-133,9
7,968,842505,-308,-16338,247,3,-114,8
7,969,842510,-386,-16342,104,0,-86,6
7,970,842515,-311,-16363,-81,2,-53,6
7,971,842520,-189,-16338,-185,2,3,5
7,972,842525,-111,-16334,-160,2,69,2
7,973,842530,-205,-16317,-104,3,126,-4
7,974,842535,-367,-16368,-101,3,166,-5
7,975,842540,-455,-16447,3,2,193,-4
7,976,842545,-462,-16537,144,2,215,-2
7,977,842550,-438,-16677,428,2,236,-6
7,978,842555,-472,-16761,750,4,238,-8
7,979,842560,-529,-16746,1021,5,208,-10
7,980,842565,-499,-16714,1078,5,149,-6
7,981,842570,-394,-16695,938,5,80,-2
7,982,842575,-329,-16667,926,7,10,2
7,983,842580,-345,-16572,961,7,-62,4
7,984,842585,-458,-16554,817,11,-126,9
7,985,842590,-437,-16592,417,10,-176,16
7,986,842595,-304,-16588,77,10,-191,22
7,987,842600,-299,-16578,17,10,-163,16
7,988,842605,-349,-16503,26,8,-125,14
7,989,842610,-365,-16490,-169,9,-89,13
7,990,842615,-375,-16429,-323,11,-34,10
7,991,842620,-270,-16451,-280,8,34,8
7,992,842625,-290,-16429,-120,10,99,5
7,993,842630,-292,-16435,30,11,142,5
7,994,842635,-249,-16418,83,11,170,7
7,995,842640,-191,-16433,171,11,189,8
7,996,842645,-261,-16433,392,11,208,8
7,997,842650,-508,-16474,687,10,214,6
7,998,842655,-893,-16520,931,8,201,4
7,999,842660,-1063,-16580,1166,7,166,2
