event_id,seq,ts_ms,ax,ay,az,gx,gy,gz
3,0,114620,-3248,-15604,-3217,1,-23,8
3,1,114625,-3237,-15615,-3237,2,-25,9
3,2,114630,-3277,-15647,-3215,3,-23,8
3,3,114635,-3283,-15694,-3213,2,-21,7
3,4,114640,-3248,-15739,-3233,2,-21,8
3,5,114645,-3251,-15746,-3219,3,-24,7
3,6,114650,-3277,-15769,-3174,7,-21,10
3,7,114655,-3305,-15834,-3171,4,-26,9
3,8,114660,-3281,-15874,-3200,6,-30,7
3,9,114665,-3191,-15837,-3266,9,-29,8
3,10,114670,-3201,-15852,-3286,8,-27,8
3,11,114675,-3213,-15897,-3268,10,-25,7
3,12,114680,-3213,-15947,-3291,11,-21,8
3,13,114685,-3257,-15941,-3192,7,-24,8
3,14,114690,-3309,-15891,-3204,9,-24,11
3,15,114695,-3304,-15869,-3313,11,-25,10
3,16,114700,-3318,-15887,-3353,13,-22,9
3,17,114705,-3302,-15843,-3268,11,-21,8
3,18,114710,-3386,-15779,-3314,13,-26,8
3,19,114715,-3435,-15720,-3346,8,-35,8
3,20,114720,-3444,-15661,-3427,10,-32,9
3,21,114725,-3457,-15605,-3460,10,-23,8
3,22,114730,-3415,-15558,-3524,14,-12,5
3,23,114735,-3425,-15541,-3583,15,2,3
3,24,114740,-3447,-15548,-3482,17,16,2
3,25,114745,-3383,-15507,-3411,18,23,2
3,26,114750,-3327,-15510,-3455,17,28,0
3,27,114755,-3307,-15512,-3424,17,39,-2
3,28,114760,-3327,-15501,-3339,18,48,-3
3,29,114765,-3303,-15532,-3256,18,47,-3
3,30,114770,-3260,-15605,-3249,21,41,-2
3,31,114775,-3281,-15660,-3239,20,34,-2
3,32,114780,-3195,-15722,-3231,20,29,-1
3,33,114785,-3136,-15747,-3207,18,32,1
3,34,114790,-3149,-15776,-3150,16,32,-1
3,35,114795,-3131,-15793,-3081,17,28,0
3,36,114800,-3195,-15798,-3091,15,22,-1
3,37,114805,-3181,-15846,-3089,14,14,1
3,38,114810,-3096,-15914,-3030,15,5,5
3,39,114815,-3072,-15883,-3075,13,-4,5
3,40,114820,-3127,-15897,-3154,15,-12,5
3,41,114825,-3207,-15909,-3199,14,-16,4
3,42,114830,-3217,-15890,-3205,10,-16,6
3,43,114835,-3172,-15819,-3131,11,-16,7
3,44,114840,-3232,-15818,-3161,11,-22,6
3,45,114845,-3318,-15822,-3187,7,-31,6
3,46,114850,-3362,-15778,-3149,8,-33,8
3,47,114855,-3399,-15718,-3127,8,-34,6
3,48,114860,-3398,-15733,-3242,5,-39,8
3,49,114865,-3411,-15790,-3316,7,-40,9
3,50,114870,-3366,-15779,-3363,6,-36,8
3,51,114875,-3418,-15739,-3289,5,-30,6
3,52,114880,-3457,-15756,-3310,5,-23,6
3,53,114885,-3426,-15795,-3427,6,-18,7
3,54,114890,-3303,-15828,-3400,8,2,2
3,55,114895,-3323,-15750,-3196,8,14,4
3,56,114900,-3344,-15749,-3094,9,5,5
3,57,114905,-3361,-15721,-3202,7,-12,3
3,58,114910,-3272,-15714,-3316,5,-22,3
3,59,114915,-3236,-15709,-3223,6,-24,8
3,60,114920,-3266,-15697,-3279,5,-34,8
3,61,114925,-3323,-15692,-3410,3,-45,8
3,62,114930,-3358,-15683,-3407,3,-40,13
3,63,114935,-3368,-15759,-3291,-1,-31,15
3,64,114940,-3394,-15729,-3277,-1,-28,14
3,65,114945,-3381,-15711,-3334,3,-30,14
3,66,114950,-3493,-15741,-3256,-1,-29,12
3,67,114955,-3557,-15771,-3246,-2,-36,13
3,68,114960,-3451,-15768,-3257,-2,-37,17
3,69,114965,-3400,-15736,-3333,-1,-36,20
3,70,114970,-3464,-15704,-3344,0,-31,20
3,71,114975,-3521,-15714,-3272,-1,-27,17
3,72,114980,-3600,-15682,-3251,0,-30,19
3,73,114985,-3684,-15681,-3323,0,-31,27
3,74,114990,-3626,-15694,-3345,1,-27,29
3,75,114995,-3604,-15664,-3429,4,-22,27
3,76,115000,-3713,-15629,-3411,2,-14,27
3,77,115005,-3756,-15620,-3347,5,-9,27
3,78,115010,-3811,-15587,-3372,6,-5,33
3,79,115015,-3977,-15585,-3431,9,4,35
3,80,115020,-4028,-15647,-3422,7,17,33
3,81,115025,-4091,-15623,-3433,8,36,37
3,82,115030,-4091,-15621,-3551,16,64,34
3,83,115035,-3960,-15711,-3654,23,104,34
3,84,115040,-3893,-15727,-3582,29,147,35
3,85,115045,-3867,-15777,-3416,33,176,36
3,86,115050,-3815,-15712,-3292,37,187,46
3,87,115055,-3752,-15662,-3231,42,186,52
3,88,115060,-3884,-15696,-3222,45,183,55
3,89,115065,-3756,-15893,-3310,51,178,62
3,90,115070,-3639,-15991,-3506,57,180,71
3,91,115075,-3498,-16097,-3577,64,194,78
3,92,115080,-3522,-16072,-3467,64,210,87
3,93,115085,-3331,-16045,-3498,69,208,101
3,94,115090,-3281,-15932,-3368,75,212,109
3,95,115095,-3305,-15860,-3056,81,203,121
3,96,115100,-3322,-15808,-2934,86,171,132
3,97,115105,-3269,-15774,-2855,88,126,150
3,98,115110,-3328,-15840,-2684,87,80,169
3,99,115115,-3738,-16010,-2267,82,27,189
3,100,115120,-4195,-16058,-1962,82,-41,205
3,101,115125,-4389,-15825,-2560,81,-120,225
3,102,115130,-4184,-15811,-3277,92,-81,239
3,103,115135,-4243,-15597,-3102,107,64,226
3,104,115140,-4072,-15561,-2866,122,103,233
3,105,115145,-3632,-15486,-3086,127,116,253
3,106,115150,-3692,-15510,-2815,131,147,275
3,107,115155,-3649,-15326,-2403,135,136,288
3,108,115160,-3564,-15271,-2445,133,87,308
3,109,115165,-3613,-15234,-2623,138,33,323
3,110,115170,-3595,-15250,-2640,144,9,340
3,111,115175,-3635,-15194,-2660,145,-11,357
3,112,115180,-3561,-15218,-2733,148,-50,376
3,113,115185,-3630,-15174,-2842,148,-75,391
3,114,115190,-3677,-15170,-3004,148,-102,408
3,115,115195,-3687,-15124,-3107,151,-110,422
3,116,115200,-3679,-15156,-3002,156,-109,437
3,117,115205,-3792,-15199,-2844,158,-121,449
3,118,115210,-4078,-15296,-2686,161,-147,465
3,119,115215,-4380,-15464,-2519,160,-178,477
3,120,115220,-4610,-15615,-2350,154,-211,498
3,121,115225,-4770,-15663,-2404,156,-226,511
3,122,115230,-4822,-15559,-2824,162,-223,516
3,123,115235,-4814,-15454,-3053,167,-181,521
3,124,115240,-4722,-15360,-2969,178,-129,527
3,125,115245,-4586,-15347,-2932,184,-106,532
3,126,115250,-4385,-15318,-3080,186,-96,543
3,127,115255,-4388,-15329,-3011,185,-91,552
3,128,115260,-4548,-15288,-2828,188,-89,562
3,129,115265,-4720,-15349,-2840,189,-98,575
3,130,115270,-4716,-15469,-2917,192,-113,583
3,131,115275,-4611,-15595,-3058,191,-113,591
3,132,115280,-4617,-15617,-3093,195,-99,598
3,133,115285,-4708,-15612,-3124,200,-87,608
3,134,115290,-4769,-15575,-3084,202,-67,614
3,135,115295,-4732,-15558,-3065,203,-61,620
3,136,115300,-4638,-15517,-2874,206,-68,627
3,137,115305,-4648,-15503,-2688,204,-91,635
3,138,115310,-4804,-15467,-2544,202,-129,640
3,139,115315,-5183,-15469,-2402,201,-190,654
3,140,115320,-5464,-15583,-2402,195,-269,671
3,141,115325,-5876,-15631,-2394,193,-285,673
3,142,115330,-6084,-15594,-2514,196,-274,676
3,143,115335,-6161,-15515,-2603,207,-244,676
3,144,115340,-6328,-15429,-2745,210,-197,667
3,145,115345,-6502,-15443,-2745,211,-130,662
3,146,115350,-6355,-15339,-2676,216,-64,663
3,147,115355,-5984,-15196,-2602,225,-6,660
3,148,115360,-5806,-15089,-2585,229,42,652
3,149,115365,-5979,-14931,-2315,228,61,648
3,150,115370,-6008,-14923,-2233,228,45,653
3,151,115375,-5729,-14856,-2108,229,42,656
3,152,115380,-5327,-14919,-2231,230,25,663
3,153,115385,-5324,-14882,-2152,230,7,661
3,154,115390,-5544,-14878,-2307,226,-33,665
3,155,115395,-5485,-14883,-2444,228,-56,673
3,156,115400,-5245,-14812,-2501,228,-51,678
3,157,115405,-4998,-14805,-2542,232,-44,681
3,158,115410,-4997,-14762,-2313,233,-47,679
3,159,115415,-5413,-14823,-2062,228,-76,680
3,160,115420,-5744,-14892,-1874,225,-118,687
3,161,115425,-5735,-14913,-1938,223,-149,703
3,162,115430,-5809,-14953,-1966,220,-135,696
3,163,115435,-6169,-14849,-1908,226,-115,686
3,164,115440,-6535,-14712,-2034,230,-96,680
3,165,115445,-6461,-14778,-2050,234,-71,678
3,166,115450,-6269,-14849,-1896,237,-45,676
3,167,115455,-6240,-14821,-1887,236,-27,673
3,168,115460,-6363,-14871,-1549,242,-50,665
3,169,115465,-6494,-14609,-2450,223,-113,660
3,170,115470,-6495,-14652,-2426,229,-26,654
3,171,115475,-6645,-14540,-1632,235,75,637
3,172,115480,-6454,-14746,-1514,234,-15,645
3,173,115485,-6327,-14672,-2269,223,-102,639
3,174,115490,-6630,-14804,-2391,223,-64,631
3,175,115495,-6782,-14705,-1998,224,-18,614
3,176,115500,-6779,-14626,-1697,224,-32,612
3,177,115505,-6629,-14804,-2155,221,-90,616
3,178,115510,-6872,-14799,-2242,220,-21,584
3,179,115515,-6953,-14773,-2144,218,1,573
3,180,115520,-6810,-14672,-2225,216,11,561
3,181,115525,-6841,-14661,-2341,218,39,552
3,182,115530,-6919,-14551,-2135,219,73,536
3,183,115535,-7006,-14421,-1919,215,82,525
3,184,115540,-7002,-14333,-1986,214,71,519
3,185,115545,-6891,-14242,-2119,207,79,510
3,186,115550,-6960,-14147,-1977,204,95,492
3,187,115555,-7133,-13957,-1819,200,92,478
3,188,115560,-7148,-13818,-2016,197,77,469
3,189,115565,-7021,-13714,-2195,196,82,456
3,190,115570,-7017,-13720,-2132,190,109,440
3,191,115575,-7047,-13738,-2055,189,120,426
3,192,115580,-7133,-13837,-1994,191,118,417
3,193,115585,-7219,-13880,-1901,189,116,407
3,194,115590,-7213,-14037,-1849,181,98,397
3,195,115595,-7161,-14172,-2111,173,85,386
3,196,115600,-7236,-14300,-1952,176,139,369
3,197,115605,-7429,-14443,-1579,172,148,357
3,198,115610,-7462,-14636,-1445,161,85,349
3,199,115615,-7497,-14801,-1675,154,43,338
3,200,115620,-7653,-15029,-1766,150,57,324
3,201,115625,-7815,-15109,-1693,146,75,308
3,202,115630,-7792,-15216,-1568,143,71,293
3,203,115635,-7845,-15328,-1564,139,62,285
3,204,115640,-7870,-15393,-1686,135,55,268
3,205,115645,-7917,-15454,-1640,129,64,254
3,206,115650,-7915,-15528,-1363,125,63,243
3,207,115655,-7994,-15542,-1486,117,33,229
3,208,115660,-7999,-15569,-1672,110,33,215
3,209,115665,-7976,-15447,-1666,107,72,200
3,210,115670,-7902,-15484,-1423,104,83,188
3,211,115675,-7860,-15445,-1545,96,53,176
3,212,115680,-7800,-15363,-1578,89,53,167
3,213,115685,-7717,-15324,-1585,86,68,154
3,214,115690,-7643,-15178,-1498,80,70,141
3,215,115695,-7628,-15067,-1331,73,54,131
3,216,115700,-7586,-15043,-1415,68,25,128
3,217,115705,-7501,-14956,-1520,59,9,114
3,218,115710,-7526,-14782,-1546,52,1,104
3,219,115715,-7537,-14696,-1499,46,2,96
3,220,115720,-7666,-14593,-1512,40,-9,84
3,221,115725,-7657,-14561,-1658,36,-9,84
3,222,115730,-7553,-14474,-1627,34,11,77
3,223,115735,-7497,-14447,-1628,27,24,66
3,224,115740,-7438,-14420,-1849,22,28,54
3,225,115745,-7612,-14352,-1669,21,79,45
3,226,115750,-7683,-14311,-1316,14,92,40
3,227,115755,-7552,-14305,-1215,5,50,39
3,228,115760,-7455,-14234,-1544,-1,25,29
3,229,115765,-7585,-14252,-1591,-4,35,24
3,230,115770,-7654,-14258,-1462,-12,41,15
3,231,115775,-7568,-14133,-1329,-16,22,12
3,232,115780,-7613,-14181,-1506,-20,-1,12
3,233,115785,-7673,-14215,-1694,-26,-8,7
3,234,115790,-7658,-14221,-1605,-32,-3,5
3,235,115795,-7676,-14276,-1621,-35,-3,-1
3,236,115800,-7628,-14270,-1749,-39,-3,-4
3,237,115805,-7634,-14270,-1784,-42,5,-7
3,238,115810,-7661,-14190,-1791,-44,14,-10
3,239,115815,-7680,-14147,-1746,-46,21,-13
3,240,115820,-7659,-14192,-1823,-50,19,-16
3,241,115825,-7634,-14250,-1745,-53,18,-19
3,242,115830,-7787,-14223,-1589,-55,7,-23
3,243,115835,-7919,-14196,-1602,-62,-13,-21
3,244,115840,-7803,-14167,-1756,-62,-28,-18
3,245,115845,-7697,-14160,-1823,-62,-23,-23
3,246,115850,-7784,-14191,-1821,-64,-20,-25
3,247,115855,-7904,-14189,-1816,-67,-29,-26
3,248,115860,-7988,-14171,-1750,-72,-37,-24
3,249,115865,-7960,-14141,-1826,-75,-41,-21
3,250,115870,-7907,-14139,-1922,-73,-30,-19
3,251,115875,-8073,-14114,-1820,-69,6,-28
3,252,115880,-8102,-14109,-1663,-70,6,-28
3,253,115885,-7914,-14082,-1568,-63,-5,-20
3,254,115890,-7886,-14125,-1844,-65,-29,-18
3,255,115895,-8094,-14200,-1883,-68,-16,-27
3,256,115900,-8299,-14096,-1547,-68,16,-30
3,257,115905,-8138,-14181,-1313,-67,-1,-18
3,258,115910,-7938,-14263,-1494,-72,-38,-15
3,259,115915,-8056,-14276,-1627,-71,-50,-17
3,260,115920,-8181,-14249,-1547,-68,-43,-16
3,261,115925,-8247,-14266,-1467,-65,-31,-13
3,262,115930,-8237,-14303,-1485,-66,-26,-9
3,263,115935,-8148,-14355,-1543,-63,-18,-10
3,264,115940,-8045,-14309,-1626,-61,-4,-13
3,265,115945,-8077,-14228,-1699,-57,14,-11
3,266,115950,-8101,-14170,-1535,-55,24,-9
3,267,115955,-8119,-14166,-1475,-57,14,-6
3,268,115960,-8016,-14162,-1635,-56,5,1
3,269,115965,-7908,-14165,-1689,-52,22,2
3,270,115970,-8029,-14149,-1483,-49,37,1
3,271,115975,-8224,-14140,-1447,-48,23,2
3,272,115980,-8157,-14076,-1524,-46,3,5
3,273,115985,-7968,-14071,-1555,-41,0,17
3,274,115990,-7971,-14093,-1516,-43,4,17
3,275,115995,-8078,-14054,-1486,-43,-4,13
3,276,116000,-8198,-14022,-1458,-41,-15,18
3,277,116005,-8109,-14013,-1536,-40,-24,21
3,278,116010,-7981,-14075,-1594,-35,-19,23
3,279,116015,-7962,-14155,-1611,-32,-16,25
3,280,116020,-8022,-14133,-1672,-30,-23,27
3,281,116025,-7974,-14035,-1661,-28,-27,33
3,282,116030,-7850,-14005,-1589,-26,-33,34
3,283,116035,-7834,-13951,-1610,-20,-39,36
3,284,116040,-7897,-13923,-1613,-12,-43,38
3,285,116045,-7888,-13989,-1519,-8,-55,41
3,286,116050,-7868,-13920,-1576,-9,-83,45
3,287,116055,-7770,-13927,-1629,-6,-88,49
3,288,116060,-7789,-13799,-1500,-2,-80,46
3,289,116065,-7943,-13874,-1285,4,-104,50
3,290,116070,-8011,-13874,-1485,6,-145,54
3,291,116075,-8003,-13931,-1568,9,-151,60
3,292,116080,-7825,-14006,-1683,15,-137,58
3,293,116085,-7894,-13915,-1496,17,-118,54
3,294,116090,-8034,-13826,-1514,22,-116,52
3,295,116095,-8133,-13832,-1510,29,-121,51
3,296,116100,-8171,-13892,-1500,33,-123,51
3,297,116105,-8196,-13975,-1373,35,-114,50
3,298,116110,-8164,-14032,-1487,38,-111,45
3,299,116115,-8305,-14078,-1458,43,-93,40
3,300,116120,-8303,-14044,-1618,47,-83,38
3,301,116125,-8257,-14036,-1451,55,-63,31
3,302,116130,-8267,-14206,-1433,62,-53,28
3,303,116135,-8222,-14243,-1510,65,-43,26
3,304,116140,-8189,-14224,-1594,68,-30,22
3,305,116145,-8159,-14152,-1371,72,-16,15
3,306,116150,-8303,-14185,-1319,76,-20,10
3,307,116155,-8218,-14166,-1436,79,-39,6
3,308,116160,-8098,-14312,-1459,84,-45,9
3,309,116165,-8116,-14282,-1427,85,-47,5
3,310,116170,-8183,-14291,-1507,88,-58,1
3,311,116175,-8297,-14361,-1686,90,-63,-2
3,312,116180,-8187,-14376,-1643,96,-50,-4
3,313,116185,-8115,-14387,-1705,103,-29,-10
3,314,116190,-8141,-14367,-1663,106,-7,-17
3,315,116195,-8216,-14345,-1502,108,7,-25
3,316,116200,-8192,-14276,-1422,112,9,-30
3,317,116205,-8141,-14230,-1355,116,11,-29
3,318,116210,-8106,-14183,-1379,116,3,-31
3,319,116215,-8128,-14140,-1273,118,-10,-36
3,320,116220,-8201,-14134,-1405,118,-22,-40
3,321,116225,-8080,-14140,-1532,120,-25,-42
3,322,116230,-7991,-14150,-1513,120,-16,-43
3,323,116235,-8024,-14143,-1501,118,-11,-48
3,324,116240,-8125,-14120,-1527,118,-15,-52
3,325,116245,-7852,-14025,-1551,125,10,-54
3,326,116250,-7918,-14021,-1300,123,21,-58
3,327,116255,-7917,-14035,-1394,123,3,-62
3,328,116260,-7895,-14070,-1418,123,-12,-55
3,329,116265,-7867,-14079,-1345,120,-18,-55
3,330,116270,-7839,-14061,-1330,115,-36,-60
3,331,116275,-7824,-14078,-1498,113,-63,-57
3,332,116280,-7749,-14085,-1733,113,-64,-58
3,333,116285,-7819,-14116,-1645,114,-44,-60
3,334,116290,-7874,-14174,-1419,112,-43,-61
3,335,116295,-7867,-14191,-1312,110,-59,-57
3,336,116300,-7885,-14169,-1407,109,-70,-57
3,337,116305,-7898,-14208,-1362,105,-70,-61
3,338,116310,-7969,-14264,-1283,99,-77,-60
3,339,116315,-7995,-14247,-1348,97,-90,-58
3,340,116320,-7959,-14217,-1472,93,-94,-60
3,341,116325,-7981,-14189,-1503,91,-89,-59
3,342,116330,-8035,-14180,-1524,90,-84,-61
3,343,116335,-8026,-14171,-1565,88,-81,-59
3,344,116340,-8027,-14222,-1543,83,-65,-59
3,345,116345,-7988,-14283,-1532,84,-44,-59
3,346,116350,-7963,-14227,-1530,85,-27,-63
3,347,116355,-8011,-14200,-1512,80,-14,-61
3,348,116360,-8036,-14141,-1433,77,-7,-61
3,349,116365,-7987,-14096,-1280,72,-6,-59
3,350,116370,-7948,-14119,-1248,71,-11,-59
3,351,116375,-7941,-14161,-1321,69,-17,-58
3,352,116380,-8031,-14215,-1341,65,-28,-58
3,353,116385,-8134,-14288,-1321,60,-48,-54
3,354,116390,-8107,-14282,-1341,54,-58,-53
3,355,116395,-8143,-14293,-1459,52,-56,-53
3,356,116400,-8166,-14348,-1470,48,-39,-53
3,357,116405,-8225,-14388,-1383,43,-23,-54
3,358,116410,-8220,-14395,-1365,44,-15,-53
3,359,116415,-8179,-14382,-1360,43,-9,-53
3,360,116420,-8111,-14420,-1365,40,-2,-50
3,361,116425,-8168,-14494,-1306,34,8,-53
3,362,116430,-8170,-14542,-1371,33,13,-54
3,363,116435,-8127,-14581,-1397,29,21,-50
3,364,116440,-8123,-14628,-1426,27,29,-48
3,365,116445,-8028,-14673,-1536,24,39,-46
3,366,116450,-8020,-14683,-1453,22,63,-46
3,367,116455,-8112,-14648,-1262,19,83,-45
3,368,116460,-8131,-14613,-1147,17,86,-45
3,369,116465,-8029,-14558,-1095,13,82,-42
3,370,116470,-7937,-14548,-1071,9,71,-38
3,371,116475,-7924,-14535,-1077,6,49,-35
3,372,116480,-7976,-14470,-1071,-2,24,-32
3,373,116485,-8110,-14354,-1142,-8,-3,-24
3,374,116490,-8044,-14282,-1277,-13,-22,-19
3,375,116495,-7901,-14257,-1385,-14,-28,-18
3,376,116500,-7924,-14211,-1510,-15,-22,-16
3,377,116505,-8057,-14162,-1519,-17,-13,-19
3,378,116510,-8072,-14199,-1485,-17,-6,-12
3,379,116515,-7939,-14193,-1541,-23,8,-8
3,380,116520,-7849,-14142,-1415,-24,28,-9
3,381,116525,-7878,-14143,-1378,-26,40,-9
3,382,116530,-7938,-14115,-1311,-26,40,-8
3,383,116535,-7911,-14072,-1238,-27,33,-6
3,384,116540,-7837,-14114,-1245,-31,22,-1
3,385,116545,-7758,-14180,-1272,-33,8,5
3,386,116550,-7818,-14231,-1290,-39,0,7
3,387,116555,-7959,-14283,-1311,-42,-6,8
3,388,116560,-7996,-14261,-1262,-41,-4,13
3,389,116565,-7936,-14279,-1246,-40,0,15
3,390,116570,-7858,-14306,-1302,-42,4,19
3,391,116575,-7875,-14349,-1328,-44,10,16
3,392,116580,-7932,-14397,-1275,-44,14,17
3,393,116585,-8040,-14365,-1237,-45,16,21
3,394,116590,-8069,-14340,-1249,-48,14,22
3,395,116595,-8012,-14388,-1370,-46,16,27
3,396,116600,-7961,-14400,-1359,-48,28,26
3,397,116605,-7965,-14368,-1233,-48,35,21
3,398,116610,-8090,-14296,-1217,-49,23,26
3,399,116615,-8081,-14299,-1162,-52,10,27
3,400,116620,-8028,-14283,-1228,-52,-1,29
3,401,116625,-7980,-14255,-1351,-51,-8,26
3,402,116630,-8076,-14260,-1324,-53,-10,23
3,403,116635,-8129,-14214,-1312,-53,-5,24
3,404,116640,-8106,-14199,-1358,-53,-3,27
3,405,116645,-8019,-14202,-1456,-53,10,28
3,406,116650,-7963,-14181,-1462,-51,29,23
3,407,116655,-8019,-14181,-1396,-49,41,19
3,408,116660,-8107,-14106,-1350,-49,42,19
3,409,116665,-7970,-14102,-1344,-47,46,20
3,410,116670,-7930,-14134,-1267,-44,49,19
3,411,116675,-8012,-14114,-1241,-45,41,16
3,412,116680,-8011,-14148,-1245,-45,30,18
3,413,116685,-7942,-14158,-1279,-48,17,21
3,414,116690,-7875,-14167,-1318,-46,8,19
3,415,116695,-7967,-14204,-1341,-43,8,17
3,416,116700,-7960,-14214,-1342,-44,9,16
3,417,116705,-7913,-14279,-1356,-41,12,19
3,418,116710,-7916,-14272,-1352,-37,21,17
3,419,116715,-7964,-14286,-1281,-40,25,13
3,420,116720,-7984,-14284,-1237,-38,20,11
3,421,116725,-7866,-14255,-1225,-37,18,12
3,422,116730,-7882,-14315,-1236,-35,12,12
3,423,116735,-7885,-14311,-1244,-34,2,11
3,424,116740,-7937,-14324,-1234,-34,-11,9
3,425,116745,-7937,-14316,-1269,-36,-26,11
3,426,116750,-8005,-14380,-1409,-35,-34,10
3,427,116755,-8015,-14383,-1447,-34,-30,10
3,428,116760,-8009,-14348,-1368,-33,-26,12
3,429,116765,-8074,-14342,-1343,-29,-20,6
3,430,116770,-8067,-14337,-1486,-26,-12,2
3,431,116775,-7970,-14336,-1593,-24,5,3
3,432,116780,-7954,-14306,-1460,-24,27,0
3,433,116785,-8002,-14259,-1316,-23,36,-5
3,434,116790,-8044,-14197,-1275,-19,29,-4
3,435,116795,-8017,-14193,-1347,-21,24,-3
3,436,116800,-7914,-14225,-1345,-17,29,-6
3,437,116805,-7896,-14268,-1284,-13,29,-6
3,438,116810,-7943,-14250,-1352,-15,23,-10
3,439,116815,-8028,-14155,-1357,-14,9,-7
3,440,116820,-7925,-14147,-1391,-14,0,-6
3,441,116825,-7772,-14134,-1496,-10,3,-4
3,442,116830,-7849,-14147,-1587,-11,7,-10
3,443,116835,-7945,-14081,-1523,-11,5,-12
3,444,116840,-7889,-14060,-1478,-10,4,-12
3,445,116845,-7812,-14026,-1528,-5,5,-11
3,446,116850,-7836,-14051,-1612,-5,9,-13
3,447,116855,-7833,-14069,-1627,-4,11,-14
3,448,116860,-7867,-14042,-1564,-5,11,-11
3,449,116865,-7906,-14063,-1614,-3,10,-11
3,450,116870,-7830,-14082,-1652,1,11,-10
3,451,116875,-7814,-14132,-1620,1,14,-12
3,452,116880,-7867,-14130,-1606,5,24,-15
3,453,116885,-7970,-14095,-1477,8,30,-17
3,454,116890,-7994,-14129,-1388,6,29,-16
3,455,116895,-7978,-14122,-1323,5,17,-14
3,456,116900,-7972,-14127,-1360,7,3,-15
3,457,116905,-8015,-14136,-1392,6,-4,-18
3,458,116910,-8048,-14117,-1346,8,-7,-18
3,459,116915,-8053,-14133,-1452,8,-10,-20
3,460,116920,-8071,-14208,-1421,8,-6,-18
3,461,116925,-8008,-14217,-1308,10,-3,-19
3,462,116930,-7987,-14239,-1316,10,-1,-24
3,463,116935,-8045,-14291,-1360,9,-2,-24
3,464,116940,-8006,-14358,-1372,10,0,-22
3,465,116945,-7985,-14356,-1336,12,3,-23
3,466,116950,-7979,-14353,-1375,12,9,-28
3,467,116955,-8025,-14372,-1343,11,20,-27
3,468,116960,-8014,-14394,-1332,10,20,-30
3,469,116965,-7996,-14423,-1412,11,23,-33
3,470,116970,-7892,-14382,-1401,9,32,-32
3,471,116975,-7855,-14424,-1340,13,32,-30
3,472,116980,-7904,-14358,-1220,11,22,-30
3,473,116985,-7850,-14416,-1287,6,11,-29
3,474,116990,-7751,-14386,-1372,9,2,-30
3,475,116995,-7804,-14324,-1365,9,-1,-29
3,476,117000,-7905,-14310,-1344,7,-2,-29
3,477,117005,-7902,-14257,-1341,6,-9,-31
3,478,117010,-7864,-14252,-1447,4,-13,-29
3,479,117015,-7936,-14268,-1395,6,-15,-27
3,480,117020,-7953,-14235,-1356,6,-12,-29
3,481,117025,-7953,-14150,-1317,6,-7,-31
3,482,117030,-7925,-14106,-1382,5,-6,-28
3,483,117035,-7921,-14107,-1326,7,-2,-30
3,484,117040,-7935,-14131,-1287,4,1,-29
3,485,117045,-7927,-14131,-1297,3,-1,-29
3,486,117050,-7866,-14125,-1405,5,2,-29
3,487,117055,-7846,-14168,-1368,5,9,-30
3,488,117060,-7961,-14215,-1267,2,7,-33
3,489,117065,-8013,-14193,-1283,-1,-5,-32
3,490,117070,-7951,-14243,-1450,-2,-14,-26
3,491,117075,-7891,-14213,-1494,-1,-9,-28
3,492,117080,-7993,-14247,-1490,-3,1,-31
3,493,117085,-7994,-14270,-1567,-4,0,-30
3,494,117090,-7907,-14267,-1602,-4,8,-31
3,495,117095,-7900,-14276,-1568,1,18,-35
3,496,117100,-7852,-14235,-1535,-2,22,-37
3,497,117105,-7864,-14223,-1588,0,19,-34
3,498,117110,-7792,-14276,-1670,-2,16,-34
3,499,117115,-7777,-14321,-1630,-4,12,-36
3,500,117120,-7792,-14358,-1634,-6,2,-37
3,501,117125,-7842,-14425,-1694,-6,-8,-34
3,502,117130,-7743,-14438,-1831,-7,-13,-32
3,503,117135,-7722,-14417,-1932,-4,-3,-34
3,504,117140,-7790,-14376,-1954,-5,16,-38
3,505,117145,-7904,-14344,-1936,-3,31,-39
3,506,117150,-7903,-14375,-1973,-3,44,-40
3,507,117155,-7689,-14347,-1933,-2,66,-37
3,508,117160,-7609,-14305,-1893,2,85,-42
3,509,117165,-7692,-14216,-1882,3,100,-49
3,510,117170,-7647,-14083,-1802,1,102,-49
3,511,117175,-7500,-14037,-1823,3,101,-47
3,512,117180,-7414,-14033,-1813,3,98,-46
3,513,117185,-7360,-14120,-1801,2,89,-47
3,514,117190,-7346,-14149,-1769,-1,76,-48
3,515,117195,-7411,-14169,-1815,-5,63,-48
3,516,117200,-7472,-14235,-1796,-10,59,-48
3,517,117205,-7438,-14254,-1804,-14,64,-50
3,518,117210,-7370,-14241,-1755,-18,78,-58
3,519,117215,-7308,-14137,-1848,-14,94,-64
3,520,117220,-7305,-14077,-1881,-10,115,-70
3,521,117225,-7171,-14014,-1921,-12,132,-79
3,522,117230,-7006,-14001,-1829,-17,142,-85
3,523,117235,-6884,-14014,-1718,-22,136,-91
3,524,117240,-6751,-14050,-1685,-26,122,-101
3,525,117245,-6768,-14060,-1640,-31,111,-107
3,526,117250,-6953,-14066,-1479,-37,93,-116
3,527,117255,-7160,-14188,-1382,-43,68,-119
3,528,117260,-7009,-14446,-1583,-53,63,-121
3,529,117265,-6719,-14719,-1747,-59,93,-127
3,530,117270,-6924,-14901,-1606,-64,135,-148
3,531,117275,-7469,-14974,-1386,-70,162,-169
3,532,117280,-7648,-15017,-1444,-80,175,-178
3,533,117285,-7308,-15177,-1703,-87,208,-192
3,534,117290,-6992,-15272,-1667,-93,255,-217
3,535,117295,-7097,-15265,-1645,-102,280,-244
3,536,117300,-7402,-15206,-1775,-109,271,-262
3,537,117305,-7345,-15182,-1754,-120,249,-276
3,538,117310,-6939,-15240,-1672,-133,226,-290
3,539,117315,-6715,-15428,-1713,-143,188,-308
3,540,117320,-6709,-15571,-1879,-161,144,-333
3,541,117325,-6765,-15600,-2028,-175,95,-353
3,542,117330,-6786,-15569,-2117,-191,51,-370
3,543,117335,-6603,-15445,-2288,-209,19,-387
3,544,117340,-6311,-15158,-2824,-226,32,-434
3,545,117345,-6257,-15035,-2702,-237,65,-464
3,546,117350,-6269,-14946,-2304,-246,71,-491
3,547,117355,-6010,-14877,-2161,-260,41,-510
3,548,117360,-5754,-14786,-2175,-279,-1,-530
3,549,117365,-5631,-14713,-2197,-291,-43,-554
3,550,117370,-5731,-14661,-2071,-306,-78,-577
3,551,117375,-5803,-14765,-2110,-319,-111,-596
3,552,117380,-5638,-14914,-2289,-330,-133,-613
3,553,117385,-5358,-14935,-2320,-342,-132,-637
3,554,117390,-5340,-14968,-2102,-349,-119,-666
3,555,117395,-5433,-15060,-2453,-359,-121,-696
3,556,117400,-5373,-15260,-2478,-365,-87,-727
3,557,117405,-5142,-15436,-2354,-373,-50,-753
3,558,117410,-4861,-15657,-2171,-384,-42,-778
3,559,117415,-4727,-15682,-2097,-396,-52,-812
3,560,117420,-4736,-15685,-1908,-404,-68,-838
3,561,117425,-4562,-15678,-1913,-416,-112,-861
3,562,117430,-4166,-15768,-1944,-425,-168,-889
3,563,117435,-3979,-15906,-1780,-438,-237,-911
3,564,117440,-3921,-15919,-1934,-455,-327,-936
3,565,117445,-3743,-15989,-2069,-462,-405,-965
3,566,117450,-3835,-16291,-2000,-474,-464,-989
3,567,117455,-4052,-16242,-2305,-494,-522,-1018
3,568,117460,-4167,-16317,-2435,-502,-520,-1041
3,569,117465,-4184,-16274,-2265,-506,-490,-1071
3,570,117470,-4300,-16386,-2292,-511,-497,-1100
3,571,117475,-4413,-16365,-2335,-516,-503,-1144
3,572,117480,-4748,-16448,-2195,-521,-507,-1174
3,573,117485,-4855,-16511,-2440,-526,-544,-1202
3,574,117490,-4792,-16340,-2689,-531,-560,-1245
3,575,117495,-4994,-16221,-2555,-538,-546,-1286
3,576,117500,-5141,-15956,-2708,-552,-556,-1332
3,577,117505,-5149,-15900,-2819,-555,-554,-1374
3,578,117510,-4884,-15951,-3143,-551,-533,-1411
3,579,117515,-4699,-16078,-3093,-553,-497,-1455
3,580,117520,-4819,-15999,-2962,-559,-480,-1503
3,581,117525,-5024,-16013,-3093,-564,-479,-1544
3,582,117530,-4938,-16110,-3557,-563,-454,-1582
3,583,117535,-4556,-16171,-3587,-561,-383,-1624
3,584,117540,-4352,-16132,-3273,-563,-312,-1668
3,585,117545,-4502,-16063,-2993,-558,-282,-1711
3,586,117550,-4727,-15959,-3220,-554,-290,-1748
3,587,117555,-4555,-16051,-3415,-553,-285,-1778
3,588,117560,-4310,-16192,-3436,-552,-244,-1810
3,589,117565,-4116,-16265,-3685,-550,-199,-1844
3,590,117570,-3998,-16273,-3940,-547,-148,-1875
3,591,117575,-3886,-16298,-3884,-542,-87,-1907
3,592,117580,-3681,-16437,-3992,-539,-40,-1938
3,593,117585,-3259,-16558,-4250,-530,6,-1966
3,594,117590,-2936,-16678,-4088,-523,58,-1989
3,595,117595,-2733,-16674,-3673,-521,64,-2012
3,596,117600,-2113,-16644,-3368,-512,28,-2028
3,597,117605,-3021,-16824,-2669,-509,-17,-2041
3,598,117610,1253,-9128,-5216,-516,-122,-2030
3,599,117615,3301,-6454,4603,-548,-295,-1915
3,600,117620,-26518,2647,18468,-748,-239,-2193
3,601,117625,12244,-15841,-31011,56,-4488,-120
3,602,117630,27995,-29059,-28421,-316,-1430,-417
3,603,117635,-13268,-14652,11399,-787,4440,-2698
3,604,117640,-25423,-13977,15542,-286,1802,-2234
3,605,117645,-7884,-11270,-13882,-14,-1433,-1279
3,606,117650,15389,-19010,-15901,-315,212,-1362
3,607,117655,9109,-20658,6120,-408,1916,-1718
3,608,117660,-5792,-17577,8741,-284,1114,-1836
3,609,117665,-11702,-14183,-5608,-262,-667,-1640
3,610,117670,-3586,-15663,-10042,-368,-1101,-1365
3,611,117675,5036,-17826,-1516,-442,-268,-1392
3,612,117680,3793,-18327,-1509,-310,48,-1507
3,613,117685,-3945,-17716,-7679,-254,-79,-1581
3,614,117690,-7600,-16001,-8161,-323,-94,-1550
3,615,117695,-2666,-16040,-3043,-341,66,-1410
3,616,117700,3572,-17058,-2614,-273,187,-1377
3,617,117705,2533,-17753,-6016,-228,365,-1452
3,618,117710,-4586,-15681,-1792,-287,520,-1437
3,619,117715,-301,-15596,-886,-270,197,-1320
3,620,117720,2977,-16492,-3453,-244,7,-1282
3,621,117725,1027,-16743,-4666,-257,77,-1319
3,622,117730,-2279,-15927,-3087,-273,120,-1324
3,623,117735,-2369,-15221,-2156,-273,-74,-1243
3,624,117740,208,-15320,-3474,-271,-334,-1168
3,625,117745,1373,-15799,-4860,-271,-373,-1147
3,626,117750,81,-15584,-5315,-269,-243,-1157
3,627,117755,-1165,-15362,-4303,-258,-147,-1144
3,628,117760,-723,-15076,-3999,-249,-165,-1097
3,629,117765,482,-15217,-4754,-239,-183,-1050
3,630,117770,1032,-15410,-4999,-238,-86,-1037
3,631,117775,210,-15295,-4380,-219,52,-1034
3,632,117780,-709,-15134,-3875,-205,102,-1015
3,633,117785,-454,-14932,-3874,-201,68,-964
3,634,117790,725,-15176,-3833,-205,68,-913
3,635,117795,1662,-15513,-3899,-194,145,-888
3,636,117800,1267,-15650,-4262,-171,245,-880
3,637,117805,630,-15507,-4405,-157,320,-860
3,638,117810,248,-15304,-3646,-162,325,-824
3,639,117815,934,-15386,-2865,-158,268,-775
3,640,117820,1731,-15521,-3509,-150,217,-739
3,641,117825,1347,-15695,-3995,-139,235,-719
3,642,117830,783,-15572,-3828,-140,235,-688
3,643,117835,704,-15232,-3148,-143,178,-647
3,644,117840,1352,-15294,-3386,-136,78,-597
3,645,117845,1778,-15425,-4097,-124,27,-565
3,646,117850,1348,-15361,-3991,-123,34,-540
3,647,117855,798,-15130,-3543,-122,14,-508
3,648,117860,982,-15054,-3694,-121,-50,-457
3,649,117865,1577,-15177,-4200,-113,-81,-412
3,650,117870,1686,-15352,-4395,-102,-65,-386
3,651,117875,1242,-15256,-4107,-98,-47,-367
3,652,117880,819,-15076,-4070,-94,-80,-337
3,653,117885,874,-14947,-4382,-87,-136,-294
3,654,117890,1025,-15142,-4482,-83,-161,-256
3,655,117895,1182,-15178,-4480,-75,-152,-232
3,656,117900,1027,-15056,-4606,-63,-129,-207
3,657,117905,818,-14918,-4614,-53,-104,-181
3,658,117910,784,-14953,-4382,-44,-80,-156
3,659,117915,1117,-14939,-4417,-38,-75,-126
3,660,117920,1520,-14874,-4448,-28,-58,-99
3,661,117925,1638,-14830,-4391,-19,-32,-77
3,662,117930,1443,-14754,-4142,-11,-19,-55
3,663,117935,1476,-14729,-4254,-8,-40,-25
3,664,117940,1859,-14760,-4517,0,-34,8
3,665,117945,2202,-14717,-4426,4,8,30
3,666,117950,1913,-14784,-4051,14,36,50
3,667,117955,1936,-14735,-4463,20,18,78
3,668,117960,2144,-14850,-4306,24,17,108
3,669,117965,1800,-15062,-3621,25,28,131
3,670,117970,2300,-15155,-4467,35,6,163
3,671,117975,2378,-15080,-4569,37,36,181
3,672,117980,2052,-15026,-3690,33,38,201
3,673,117985,1758,-14976,-3432,34,-41,231
3,674,117990,1991,-14980,-4424,36,-129,260
3,675,117995,2183,-15278,-4890,43,-117,279
3,676,118000,1968,-15315,-4510,42,-48,289
3,677,118005,1687,-15231,-4205,47,-22,303
3,678,118010,1655,-15112,-4591,52,-31,322
3,679,118015,1935,-15254,-4549,60,-12,339
3,680,118020,1315,-15496,-3994,60,28,350
3,681,118025,1671,-15453,-4774,66,25,364
3,682,118030,1722,-15348,-4518,61,57,372
3,683,118035,1579,-15029,-3926,58,50,381
3,684,118040,1569,-15036,-4063,64,-7,399
3,685,118045,1924,-15073,-4780,66,-38,409
3,686,118050,1966,-15248,-4872,67,-3,417
3,687,118055,1969,-15256,-4656,67,29,420
3,688,118060,1459,-15198,-4193,68,49,425
3,689,118065,1939,-15176,-5092,75,37,438
3,690,118070,2063,-15198,-4942,72,92,441
3,691,118075,1497,-15293,-3647,71,102,437
3,692,118080,1888,-15238,-4855,70,23,445
3,693,118085,1917,-15354,-4709,65,48,449
3,694,118090,1816,-15314,-4303,62,77,448
3,695,118095,1773,-15404,-4337,65,86,452
3,696,118100,1785,-15484,-4706,65,90,448
3,697,118105,1803,-15608,-4554,60,111,442
3,698,118110,1774,-15604,-4304,58,111,443
3,699,118115,1762,-15644,-4655,62,99,437
3,700,118120,1708,-15799,-4733,57,105,433
3,701,118125,1608,-15880,-4505,54,124,426
3,702,118130,1541,-15743,-4570,59,131,420
3,703,118135,1783,-15738,-4845,60,132,418
3,704,118140,1795,-15791,-4580,55,140,408
3,705,118145,1816,-15782,-4318,56,118,406
3,706,118150,1757,-15789,-4228,51,73,401
3,707,118155,1658,-15891,-4433,46,29,395
3,708,118160,1590,-15948,-4563,42,8,392
3,709,118165,1665,-16020,-4564,43,1,386
3,710,118170,1857,-16149,-4735,44,-2,378
3,711,118175,1700,-16219,-4644,41,0,365
3,712,118180,1343,-16253,-4624,39,-2,355
3,713,118185,1559,-16304,-4949,43,18,345
3,714,118190,1786,-16431,-4978,43,85,334
3,715,118195,1756,-16466,-4456,44,152,314
3,716,118200,1491,-16474,-4222,45,163,298
3,717,118205,1442,-16363,-4186,44,145,293
3,718,118210,1577,-16313,-4165,39,139,290
3,719,118215,1719,-16336,-4095,36,128,282
3,720,118220,1720,-16302,-3986,33,103,270
3,721,118225,1579,-16279,-4034,28,67,263
3,722,118230,1447,-16204,-4161,26,36,255
3,723,118235,1559,-16164,-4433,23,16,244
3,724,118240,1731,-16184,-4656,21,25,237
3,725,118245,1686,-16128,-4579,21,50,224
3,726,118250,1435,-16017,-4357,20,57,213
3,727,118255,1313,-16023,-4220,17,37,204
3,728,118260,1351,-15974,-4364,17,10,195
3,729,118265,1447,-16008,-4473,16,6,187
3,730,118270,1503,-15990,-4437,13,10,177
3,731,118275,1379,-15865,-4534,10,-6,163
3,732,118280,1278,-15872,-4570,11,-19,153
3,733,118285,1398,-15933,-4796,9,-27,145
3,734,118290,1502,-15944,-4838,11,7,131
3,735,118295,1397,-15905,-4719,14,55,115
3,736,118300,1279,-15909,-4575,11,85,102
3,737,118305,1351,-15912,-4419,11,95,92
3,738,118310,1436,-15968,-4348,13,99,86
3,739,118315,1443,-16035,-4361,11,98,76
3,740,118320,1344,-16041,-4232,7,94,61
3,741,118325,1199,-16015,-4089,3,80,51
3,742,118330,1164,-16042,-4086,0,42,47
3,743,118335,1210,-16116,-4336,-3,10,41
3,744,118340,1332,-16155,-4561,-2,5,34
3,745,118345,1298,-16142,-4644,0,33,19
3,746,118350,1143,-16121,-4678,2,63,8
3,747,118355,1197,-16094,-4722,2,86,2
3,748,118360,1361,-16095,-4634,2,110,-5
3,749,118365,1408,-16103,-4508,3,130,-15
3,750,118370,1329,-16018,-4411,3,142,-20
3,751,118375,1223,-15978,-4300,4,141,-27
3,752,118380,1289,-15990,-4186,3,122,-31
3,753,118385,1379,-15970,-4226,1,93,-35
3,754,118390,1449,-15974,-4356,0,67,-36
3,755,118395,1429,-15910,-4324,-1,41,-42
3,756,118400,1428,-15840,-4345,-1,19,-45
3,757,118405,1302,-15810,-4328,-4,13,-48
3,758,118410,1336,-15781,-4492,-5,12,-54
3,759,118415,1467,-15773,-4532,-5,27,-58
3,760,118420,1396,-15725,-4281,-6,52,-64
3,761,118425,1210,-15720,-4138,-4,49,-67
3,762,118430,1290,-15747,-4223,-4,35,-64
3,763,118435,1390,-15758,-4286,-3,32,-68
3,764,118440,1235,-15822,-4198,-6,33,-71
3,765,118445,1262,-15831,-4261,-6,34,-71
3,766,118450,1293,-15840,-4282,-3,38,-71
3,767,118455,1227,-15845,-4267,-4,36,-75
3,768,118460,1181,-15877,-4321,-3,36,-76
3,769,118465,1103,-15789,-4395,-2,41,-79
3,770,118470,1144,-15803,-4359,-5,45,-79
3,771,118475,1169,-15812,-4312,-3,51,-79
3,772,118480,1242,-15819,-4437,-2,49,-79
3,773,118485,1302,-15806,-4425,-5,47,-80
3,774,118490,1278,-15755,-4268,-3,41,-81
3,775,118495,1306,-15666,-4284,-6,25,-77
3,776,118500,1277,-15662,-4305,-5,10,-75
3,777,118505,1278,-15695,-4273,-7,1,-77
3,778,118510,1235,-15617,-4244,-9,-14,-73
3,779,118515,1262,-15659,-4300,-10,-37,-70
3,780,118520,1304,-15722,-4339,-12,-58,-68
3,781,118525,1182,-15717,-4327,-16,-66,-71
3,782,118530,984,-15674,-4403,-16,-65,-73
3,783,118535,1010,-15646,-4575,-10,-45,-71
3,784,118540,1122,-15721,-4553,-7,-6,-67
3,785,118545,1198,-15747,-4407,-5,23,-73
3,786,118550,1148,-15749,-4314,-3,28,-77
3,787,118555,1014,-15673,-4333,-7,24,-78
3,788,118560,1050,-15645,-4277,-6,20,-77
3,789,118565,1157,-15758,-4283,-3,20,-74
3,790,118570,1277,-15794,-4293,-6,21,-76
3,791,118575,1342,-15831,-4311,-9,17,-78
3,792,118580,1270,-15744,-4376,-5,15,-77
3,793,118585,1338,-15785,-4431,-1,13,-73
3,794,118590,1499,-15874,-4490,-4,26,-71
3,795,118595,1445,-15996,-4390,-6,41,-70
3,796,118600,1467,-15945,-4238,-6,37,-71
3,797,118605,1410,-15861,-4223,-6,18,-70
3,798,118610,1383,-15856,-4374,-8,1,-67
3,799,118615,1378,-15881,-4401,-7,-2,-63
3,800,118620,1462,-15903,-4438,-5,2,-60
3,801,118625,1448,-15924,-4396,-5,7,-58
3,802,118630,1413,-15916,-4379,-6,-2,-57
3,803,118635,1324,-15909,-4348,-5,-18,-53
3,804,118640,1321,-16007,-4347,-6,-24,-55
3,805,118645,1372,-15989,-4413,-8,-23,-57
3,806,118650,1384,-15876,-4314,-3,-17,-52
3,807,118655,1252,-15846,-4321,-3,-21,-51
3,808,118660,1204,-15878,-4358,-5,-32,-52
3,809,118665,1317,-15879,-4454,-3,-37,-47
3,810,118670,1354,-15849,-4513,-4,-30,-45
3,811,118675,1166,-15832,-4488,-4,-21,-49
3,812,118680,937,-15811,-4489,-3,-13,-54
3,813,118685,1055,-15785,-4604,0,9,-52
3,814,118690,1217,-15775,-4611,2,48,-53
3,815,118695,1266,-15730,-4434,7,77,-54
3,816,118700,1218,-15695,-4238,6,85,-56
3,817,118705,1303,-15638,-4198,2,70,-58
3,818,118710,1423,-15570,-4210,2,48,-54
3,819,118715,1429,-15590,-4188,0,27,-50
3,820,118720,1382,-15587,-4202,-3,9,-48
3,821,118725,1437,-15564,-4204,-5,-7,-44
3,822,118730,1500,-15534,-4307,-4,-27,-42
3,823,118735,1453,-15649,-4287,-4,-52,-39
3,824,118740,1412,-15615,-4402,-8,-72,-37
3,825,118745,1437,-15614,-4533,-7,-74,-37
3,826,118750,1424,-15613,-4492,-6,-58,-35
3,827,118755,1551,-15626,-4483,-3,-42,-36
3,828,118760,1633,-15661,-4466,-3,-30,-35
3,829,118765,1584,-15673,-4391,0,-24,-38
3,830,118770,1447,-15680,-4408,1,-23,-36
3,831,118775,1456,-15732,-4521,-1,-11,-36
3,832,118780,1566,-15745,-4476,2,13,-35
3,833,118785,1584,-15706,-4287,6,24,-36
3,834,118790,1565,-15674,-4225,7,14,-32
3,835,118795,1428,-15672,-4179,7,-7,-29
3,836,118800,1402,-15697,-4188,3,-27,-26
3,837,118805,1375,-15779,-4250,5,-32,-22
3,838,118810,1403,-15775,-4308,7,-28,-22
3,839,118815,1365,-15728,-4396,8,-25,-21
3,840,118820,1422,-15748,-4453,13,-19,-21
3,841,118825,1493,-15767,-4433,12,-11,-20
3,842,118830,1471,-15787,-4266,14,-4,-19
3,843,118835,1384,-15777,-4124,14,-14,-20
3,844,118840,1305,-15779,-4093,15,-37,-14
3,845,118845,1278,-15805,-4207,11,-52,-14
3,846,118850,1415,-15811,-4362,13,-51,-15
3,847,118855,1500,-15816,-4402,18,-40,-15
3,848,118860,1446,-15784,-4436,17,-28,-17
3,849,118865,1387,-15713,-4483,19,-22,-14
3,850,118870,1360,-15728,-4418,23,-16,-12
3,851,118875,1380,-15740,-4351,22,-7,-10
3,852,118880,1322,-15715,-4325,24,1,-11
3,853,118885,1303,-15710,-4308,26,3,-9
3,854,118890,1273,-15718,-4258,28,-1,-11
3,855,118895,1340,-15725,-4351,28,-11,-11
3,856,118900,1398,-15675,-4437,30,-21,-10
3,857,118905,1333,-15634,-4488,34,-15,-11
3,858,118910,1304,-15560,-4449,34,0,-9
3,859,118915,1332,-15541,-4438,36,6,-6
3,860,118920,1419,-15547,-4439,39,12,-7
3,861,118925,1426,-15570,-4311,41,9,-7
3,862,118930,1357,-15579,-4275,42,-1,-5
3,863,118935,1294,-15642,-4360,42,-12,-7
3,864,118940,1322,-15687,-4354,44,-15,-4
3,865,118945,1422,-15795,-4321,43,-16,-1
3,866,118950,1451,-15847,-4310,44,-15,0
3,867,118955,1435,-15853,-4314,46,-16,-3
3,868,118960,1346,-15802,-4249,48,-17,1
3,869,118965,1452,-15847,-4291,49,-12,2
3,870,118970,1499,-15893,-4221,49,0,2
3,871,118975,1527,-15939,-4125,48,9,1
3,872,118980,1517,-15920,-4093,50,3,2
3,873,118985,1551,-15888,-4111,50,-4,7
3,874,118990,1597,-15910,-4088,51,-10,10
3,875,118995,1589,-15973,-4093,51,-22,12
3,876,119000,1434,-16020,-4073,48,-30,11
3,877,119005,1335,-16049,-4112,46,-37,16
3,878,119010,1342,-16009,-4194,46,-35,16
3,879,119015,1426,-15971,-4256,49,-20,11
3,880,119020,1464,-15972,-4274,53,0,14
3,881,119025,1399,-15981,-4133,49,14,14
3,882,119030,1320,-15987,-4066,47,10,13
3,883,119035,1350,-15933,-4115,44,-6,12
3,884,119040,1378,-15876,-4267,44,-15,15
3,885,119045,1384,-15840,-4320,41,-6,16
3,886,119050,1379,-15805,-4331,42,7,15
3,887,119055,1370,-15769,-4272,46,17,17
3,888,119060,1371,-15748,-4235,47,15,16
3,889,119065,1382,-15709,-4272,44,9,16
3,890,119070,1483,-15735,-4270,42,9,15
3,891,119075,1496,-15713,-4229,39,8,16
3,892,119080,1460,-15682,-4247,38,2,13
3,893,119085,1453,-15638,-4285,37,-4,14
3,894,119090,1540,-15683,-4391,36,-8,15
3,895,119095,1588,-15681,-4444,37,-3,16
3,896,119100,1595,-15644,-4380,36,3,15
3,897,119105,1582,-15664,-4330,32,5,15
3,898,119110,1581,-15716,-4237,32,-1,16
3,899,119115,1527,-15807,-4305,34,-8,17
3,900,119120,1596,-15898,-4381,30,-6,16
3,901,119125,1625,-15942,-4271,26,4,13
3,902,119130,1506,-15960,-4214,26,9,12
3,903,119135,1418,-15905,-4287,27,5,14
3,904,119140,1506,-15969,-4258,23,3,16
3,905,119145,1545,-15962,-4217,23,4,14
3,906,119150,1433,-15930,-4169,19,-1,14
3,907,119155,1339,-15933,-4238,18,-10,11
3,908,119160,1347,-15916,-4315,14,-15,14
3,909,119165,1428,-15879,-4350,12,-13,13
3,910,119170,1501,-15880,-4282,13,-9,9
3,911,119175,1351,-15805,-4270,8,-22,11
3,912,119180,1404,-15739,-4259,8,-30,9
3,913,119185,1535,-15787,-4335,4,-30,9
3,914,119190,1493,-15802,-4316,3,-28,7
3,915,119195,1448,-15802,-4298,3,-26,4
3,916,119200,1507,-15794,-4282,0,-20,6
3,917,119205,1464,-15743,-4305,0,-16,6
3,918,119210,1493,-15783,-4326,3,-16,7
3,919,119215,1530,-15773,-4289,-1,-13,5
3,920,119220,1520,-15798,-4253,-2,-12,5
3,921,119225,1437,-15859,-4242,-3,-15,4
3,922,119230,1450,-15871,-4358,-4,-18,4
3,923,119235,1495,-15831,-4360,-5,-10,4
3,924,119240,1454,-15787,-4301,-5,4,0
3,925,119245,1419,-15788,-4373,-5,13,0
3,926,119250,1412,-15818,-4342,-3,25,1
3,927,119255,1433,-15808,-4199,-7,30,2
3,928,119260,1393,-15817,-4141,-6,25,-1
3,929,119265,1359,-15831,-4126,-6,14,0
3,930,119270,1328,-15821,-4171,-10,3,-1
3,931,119275,1303,-15837,-4134,-13,-4,-3
3,932,119280,1355,-15860,-4184,-10,-11,0
3,933,119285,1338,-15861,-4303,-9,-15,-1
3,934,119290,1310,-15826,-4363,-11,-13,-2
3,935,119295,1363,-15773,-4313,-11,-3,-4
3,936,119300,1427,-15763,-4298,-9,9,-6
3,937,119305,1449,-15745,-4280,-11,17,-4
3,938,119310,1484,-15753,-4160,-7,16,-3
3,939,119315,1468,-15736,-4081,-10,6,-2
3,940,119320,1419,-15754,-4058,-12,-16,-2
3,941,119325,1448,-15765,-4145,-13,-35,0
3,942,119330,1554,-15772,-4229,-11,-41,-1
3,943,119335,1548,-15809,-4335,-9,-35,2
3,944,119340,1513,-15849,-4389,-9,-21,3
3,945,119345,1524,-15826,-4275,-5,-4,2
3,946,119350,1472,-15862,-4094,-4,6,3
3,947,119355,1402,-15920,-3984,-5,-4,4
3,948,119360,1381,-15896,-3940,-8,-18,3
3,949,119365,1380,-15893,-3981,-3,-26,5
3,950,119370,1406,-15885,-4055,-2,-31,6
3,951,119375,1461,-15897,-4066,-4,-38,6
3,952,119380,1489,-15894,-4070,-3,-42,5
3,953,119385,1407,-15866,-4204,-3,-46,4
3,954,119390,1297,-15811,-4278,-1,-39,8
3,955,119395,1253,-15805,-4258,3,-27,10
3,956,119400,1343,-15771,-4214,6,-9,8
3,957,119405,1358,-15790,-4181,9,5,10
3,958,119410,1349,-15746,-4141,9,5,11
3,959,119415,1319,-15744,-4018,9,-3,8
3,960,119420,1315,-15729,-4062,10,-22,10
3,961,119425,1389,-15694,-4121,10,-34,15
3,962,119430,1336,-15669,-4129,9,-42,16
3,963,119435,1328,-15608,-4171,13,-47,12
3,964,119440,1333,-15542,-4262,15,-43,13
3,965,119445,1320,-15638,-4261,17,-39,14
3,966,119450,1255,-15713,-4157,17,-31,15
3,967,119455,1171,-15744,-4087,20,-26,15
3,968,119460,1129,-15764,-4109,22,-22,15
3,969,119465,1277,-15759,-4130,25,-13,14
3,970,119470,1414,-15858,-4107,29,-6,11
3,971,119475,1493,-15933,-4098,28,0,10
3,972,119480,1427,-15947,-4069,28,-7,13
3,973,119485,1381,-15848,-4091,28,-15,13
3,974,119490,1361,-15859,-4212,34,-5,15
3,975,119495,1396,-15903,-4148,37,12,16
3,976,119500,1377,-15917,-3999,39,20,17
3,977,119505,1356,-15943,-3981,41,15,16
3,978,119510,1352,-15914,-4004,39,0,17
3,979,119515,1461,-15925,-4049,36,-13,18
3,980,119520,1457,-15919,-4069,39,-19,22
3,981,119525,1366,-15917,-4071,39,-23,19
3,982,119530,1265,-15886,-4089,40,-31,21
3,983,119535,1274,-15832,-4080,41,-38,27
3,984,119540,1308,-15797,-4158,43,-37,24
3,985,119545,1297,-15781,-4197,45,-30,25
3,986,119550,1238,-15788,-4206,45,-27,23
3,987,119555,1242,-15785,-4189,47,-24,25
3,988,119560,1229,-15820,-4144,49,-17,25
3,989,119565,1205,-15835,-4045,47,-13,26
3,990,119570,1191,-15797,-4053,47,-11,21
3,991,119575,1293,-15781,-4094,51,-12,19
3,992,119580,1321,-15801,-4145,52,-11,21
3,993,119585,1343,-15813,-4094,52,-10,23
3,994,119590,1317,-15812,-4109,55,-15,23
3,995,119595,1302,-15778,-4177,54,-19,23
3,996,119600,1281,-15750,-4200,56,-14,27
3,997,119605,1247,-15726,-4125,55,-9,23
3,998,119610,1267,-15740,-4042,55,-8,21
3,999,119615,1209,-15820,-4046,53,-14,23
