event_id,seq,ts_ms,ax,ay,az,gx,gy,gz
1,0,23608,-2131,-16237,-1427,4,-9,-4
1,1,23613,-2178,-16222,-1413,2,-8,-4
1,2,23618,-2156,-16264,-1402,0,-9,-3
1,3,23623,-2120,-16244,-1397,0,-9,-7
1,4,23628,-2123,-16236,-1374,-1,-8,-5
1,5,23633,-2169,-16247,-1396,1,-8,-3
1,6,23638,-2139,-16248,-1395,4,-6,-3
1,7,23643,-2141,-16193,-1363,2,-7,-6
1,8,23648,-2127,-16217,-1409,2,-6,-6
1,9,23653,-2130,-16269,-1412,0,-7,-3
1,10,23658,-2131,-16266,-1353,0,-7,-2
1,11,23663,-2132,-16252,-1406,1,-7,-6
1,12,23668,-2135,-16241,-1382,0,-7,-4
1,13,23673,-2141,-16236,-1399,3,-6,-5
1,14,23678,-2185,-16217,-1413,1,-5,-5
1,15,23683,-2163,-16228,-1404,0,-9,-2
1,16,23688,-2142,-16244,-1402,1,-8,-2
1,17,23693,-2121,-16259,-1393,3,-5,-4
1,18,23698,-2162,-16264,-1400,4,-8,-6
1,19,23703,-2169,-16230,-1422,3,-10,-3
1,20,23708,-2156,-16216,-1398,2,-8,-4
1,21,23713,-2120,-16251,-1414,3,-6,-3
1,22,23718,-2134,-16244,-1406,0,-8,-4
1,23,23723,-2146,-16238,-1418,1,-8,-3
1,24,23728,-2126,-16251,-1351,2,-9,-2
1,25,23733,-2117,-16231,-1386,3,-8,-1
1,26,23738,-2134,-16211,-1427,3,-5,-4
1,27,23743,-2153,-16240,-1386,3,-5,-4
1,28,23748,-2126,-16258,-1402,0,-6,-3
1,29,23753,-2124,-16253,-1417,0,-6,-3
1,30,23758,-2143,-16225,-1407,0,-8,-3
1,31,23763,-2164,-16223,-1404,1,-10,-2
1,32,23768,-2152,-16211,-1391,4,-8,-2
1,33,23773,-2118,-16221,-1391,4,-7,-3
1,34,23778,-2156,-16220,-1396,3,-8,-5
1,35,23783,-2193,-16254,-1403,2,-9,-3
1,36,23788,-2165,-16224,-1401,1,-6,-2
1,37,23793,-2160,-16230,-1374,2,-4,-4
1,38,23798,-2158,-16213,-1412,4,-5,-4
1,39,23803,-2176,-16247,-1420,0,-7,-5
1,40,23808,-2159,-16278,-1414,2,-7,-4
1,41,23813,-2098,-16259,-1398,2,-8,-5
1,42,23818,-2154,-16260,-1388,2,-7,-4
1,43,23823,-2146,-16216,-1431,1,-6,-4
1,44,23828,-2145,-16212,-1431,2,-6,-3
1,45,23833,-2165,-16221,-1370,1,-7,-2
1,46,23838,-2136,-16204,-1451,2,-8,-3
1,47,23843,-2128,-16219,-1414,3,-8,-3
1,48,23848,-2132,-16247,-1391,2,-6,-4
1,49,23853,-2144,-16243,-1455,1,-7,-2
1,50,23858,-2150,-16226,-1444,4,-8,-5
1,51,23863,-2150,-16220,-1414,3,-8,-3
1,52,23868,-2118,-16256,-1397,0,-9,-3
1,53,23873,-2143,-16240,-1373,0,-7,-3
1,54,23878,-2168,-16242,-1366,2,-8,-4
1,55,23883,-2156,-16256,-1397,3,-10,-2
1,56,23888,-2136,-16257,-1355,2,-6,-3
1,57,23893,-2178,-16216,-1371,2,-6,-4
1,58,23898,-2136,-16226,-1413,1,-8,-3
1,59,23903,-2134,-16252,-1399,-1,-8,-3
1,60,23908,-2154,-16242,-1412,3,-8,-3
1,61,23913,-2136,-16254,-1393,2,-6,-6
1,62,23918,-2148,-16258,-1402,1,-6,-4
1,63,23923,-2129,-16210,-1434,3,-8,-3
1,64,23928,-2111,-16221,-1383,1,-8,-2
1,65,23933,-2125,-16284,-1381,3,-10,-3
1,66,23938,-2145,-16240,-1411,6,-6,-5
1,67,23943,-2125,-16215,-1419,3,-6,-5
1,68,23948,-2178,-16207,-1393,3,-10,-2
1,69,23953,-2145,-16245,-1395,2,-7,-4
1,70,23958,-2178,-16231,-1376,3,-5,-4
1,71,23963,-2164,-16243,-1398,2,-7,-3
1,72,23968,-2138,-16205,-1425,2,-8,-3
1,73,23973,-2142,-16236,-1426,1,-9,-3
1,74,23978,-2135,-16230,-1375,4,-5,-2
1,75,23983,-2136,-16247,-1387,5,-6,-3
1,76,23988,-2182,-16204,-1431,3,-7,-2
1,77,23993,-2139,-16212,-1415,3,-8,-5
1,78,23998,-2115,-16208,-1392,1,-8,-3
1,79,24003,-2116,-16228,-1376,3,-8,-4
1,80,24008,-2131,-16241,-1359,0,-8,-4
1,81,24013,-2163,-16243,-1419,3,-9,-4
1,82,24018,-2184,-16239,-1385,3,-8,-6
1,83,24023,-2138,-16223,-1364,0,-8,-4
1,84,24028,-2116,-16196,-1411,3,-7,-5
1,85,24033,-2121,-16228,-1366,5,-7,-6
1,86,24038,-2174,-16230,-1407,1,-6,-5
1,87,24043,-2157,-16246,-1378,1,-8,-3
1,88,24048,-2129,-16240,-1434,4,-9,-3
1,89,24053,-2106,-16228,-1435,4,-10,-1
1,90,24058,-2101,-16247,-1426,3,-10,-4
1,91,24063,-2151,-16267,-1421,2,-9,-5
1,92,24068,-2157,-16240,-1411,4,-8,-4
1,93,24073,-2126,-16229,-1430,3,-8,-3
1,94,24078,-2148,-16234,-1421,3,-5,-3
1,95,24083,-2136,-16266,-1375,3,-8,-5
1,96,24088,-2122,-16253,-1388,1,-9,-3
1,97,24093,-2137,-16235,-1408,2,-10,-3
1,98,24098,-2160,-16235,-1420,4,-7,0
1,99,24103,-2131,-16241,-1395,3,-6,-4
1,100,24108,-2109,-16214,-1406,2,-9,-5
1,101,24113,-2164,-16235,-1364,3,-9,-4
1,102,24118,-2169,-16245,-1404,0,-7,-3
1,103,24123,-2143,-16228,-1394,-1,-6,-1
1,104,24128,-2128,-16265,-1379,3,-6,-3
1,105,24133,-2136,-16255,-1384,4,-10,-1
1,106,24138,-2142,-16239,-1393,4,-10,-2
1,107,24143,-2143,-16264,-1419,4,-7,-3
1,108,24148,-2141,-16248,-1385,3,-8,-4
1,109,24153,-2142,-16222,-1362,1,-5,-3
1,110,24158,-2139,-16236,-1445,3,-7,-3
1,111,24163,-2109,-16260,-1445,4,-8,-4
1,112,24168,-2150,-16255,-1430,2,-6,-3
1,113,24173,-2153,-16265,-1390,1,-9,-5
1,114,24178,-2127,-16216,-1397,1,-8,-5
1,115,24183,-2129,-16215,-1386,1,-10,-7
1,116,24188,-2147,-16215,-1376,1,-9,-3
1,117,24193,-2155,-16251,-1404,4,-8,-1
1,118,24198,-2116,-16273,-1406,3,-5,-4
1,119,24203,-2138,-16207,-1378,3,-10,-3
1,120,24208,-2127,-16219,-1379,3,-10,-3
1,121,24213,-2139,-16224,-1419,5,-6,-6
1,122,24218,-2116,-16230,-1436,5,-8,-4
1,123,24223,-2141,-16254,-1390,2,-6,-5
1,124,24228,-2158,-16247,-1369,3,-6,-3
1,125,24233,-2121,-16264,-1398,1,-7,-3
1,126,24238,-2147,-16261,-1400,3,-8,-2
1,127,24243,-2177,-16235,-1360,4,-10,-3
1,128,24248,-2121,-16248,-1408,2,-11,-4
1,129,24253,-2137,-16247,-1395,2,-8,-4
1,130,24258,-2154,-16254,-1331,3,-6,-2
1,131,24263,-2167,-16266,-1371,2,-8,-4
1,132,24268,-2149,-16240,-1384,3,-8,-2
1,133,24273,-2146,-16227,-1429,3,-5,-2
1,134,24278,-2122,-16224,-1384,4,-7,-2
1,135,24283,-2151,-16237,-1399,1,-7,-3
1,136,24288,-2150,-16228,-1427,1,-8,-3
1,137,24293,-2126,-16213,-1404,1,-9,-3
1,138,24298,-2131,-16239,-1417,3,-8,-4
1,139,24303,-2135,-16257,-1414,5,-7,-4
1,140,24308,-2166,-16245,-1396,5,-7,-4
1,141,24313,-2167,-16259,-1429,-2,-6,-3
1,142,24318,-2155,-16258,-1429,2,-10,-1
1,143,24323,-2140,-16238,-1433,1,-10,-5
1,144,24328,-2152,-16222,-1376,1,-11,-4
1,145,24333,-2171,-16226,-1401,3,-10,-2
1,146,24338,-2151,-16241,-1394,3,-6,-4
1,147,24343,-2171,-16230,-1399,2,-7,-4
1,148,24348,-2170,-16237,-1377,3,-7,-3
1,149,24353,-2133,-16221,-1397,4,-7,-4
1,150,24358,-2125,-16230,-1380,3,-8,-2
1,151,24363,-2139,-16261,-1366,3,-9,-4
1,152,24368,-2142,-16234,-1423,3,-8,-3
1,153,24373,-2148,-16239,-1446,1,-8,1
1,154,24378,-2147,-16241,-1398,3,-8,-2
1,155,24383,-2158,-16244,-1402,2,-7,-2
1,156,24388,-2134,-16218,-1409,1,-8,-3
1,157,24393,-2137,-16229,-1361,3,-7,-5
1,158,24398,-2147,-16219,-1375,0,-6,-6
1,159,24403,-2138,-16203,-1384,1,-9,-4
1,160,24408,-2168,-16245,-1406,2,-9,-1
1,161,24413,-2117,-16239,-1391,3,-8,-3
1,162,24418,-2133,-16241,-1402,4,-11,-3
1,163,24423,-2164,-16226,-1401,2,-11,-2
1,164,24428,-2150,-16236,-1380,3,-8,-3
1,165,24433,-2134,-16248,-1391,3,-9,-4
1,166,24438,-2162,-16241,-1352,3,-7,-4
1,167,24443,-2136,-16206,-1422,-1,-5,-2
1,168,24448,-2147,-16220,-1408,2,-6,-5
1,169,24453,-2135,-16222,-1362,3,-6,-4
1,170,24458,-2161,-16216,-1365,0,-8,-6
1,171,24463,-2168,-16236,-1377,1,-10,-6
1,172,24468,-2127,-16250,-1426,2,-10,-5
1,173,24473,-2146,-16235,-1410,-1,-7,-2
1,174,24478,-2152,-16254,-1403,1,-8,-4
1,175,24483,-2124,-16230,-1391,0,-7,-5
1,176,24488,-2096,-16230,-1369,1,-8,-5
1,177,24493,-2140,-16230,-1388,1,-9,-3
1,178,24498,-2140,-16203,-1422,5,-7,-3
1,179,24503,-2108,-16244,-1382,5,-7,-4
1,180,24508,-2129,-16246,-1405,4,-9,-4
1,181,24513,-2155,-16231,-1375,3,-7,-3
1,182,24518,-2131,-16214,-1405,3,-7,-3
1,183,24523,-2108,-16242,-1422,4,-9,-1
1,184,24528,-2158,-16251,-1383,3,-9,-2
1,185,24533,-2176,-16236,-1396,1,-6,-4
1,186,24538,-2127,-16225,-1402,5,-9,-3
1,187,24543,-2130,-16224,-1391,4,-7,-1
1,188,24548,-2161,-16272,-1406,2,-8,-1
1,189,24553,-2132,-16227,-1368,4,-9,0
1,190,24558,-2124,-16217,-1384,2,-8,-4
1,191,24563,-2132,-16245,-1430,2,-8,-5
1,192,24568,-2176,-16260,-1411,2,-10,-4
1,193,24573,-2147,-16258,-1397,4,-7,-3
1,194,24578,-2132,-16246,-1376,3,-7,-4
1,195,24583,-2152,-16221,-1450,3,-10,-2
1,196,24588,-2181,-16250,-1421,2,-8,-2
1,197,24593,-2188,-16264,-1382,3,-8,-3
1,198,24598,-2124,-16191,-1421,0,-8,-1
1,199,24603,-2092,-16198,-1409,2,-9,-2
1,200,24608,-2127,-16239,-1430,2,-9,-4
1,201,24613,-2156,-16234,-1398,3,-10,-3
1,202,24618,-2171,-16246,-1391,4,-9,-5
1,203,24623,-2125,-16223,-1390,4,-7,-3
1,204,24628,-2126,-16242,-1393,2,-9,-1
1,205,24633,-2169,-16272,-1393,5,-7,-4
1,206,24638,-2130,-16231,-1405,3,-7,-3
1,207,24643,-2138,-16245,-1404,3,-7,-2
1,208,24648,-2135,-16230,-1367,0,-11,-1
1,209,24653,-2130,-16253,-1375,0,-7,-2
1,210,24658,-2147,-16239,-1429,0,-8,-3
1,211,24663,-2145,-16220,-1382,2,-10,-8
1,212,24668,-2149,-16248,-1418,3,-6,-5
1,213,24673,-2164,-16231,-1408,5,-6,-1
1,214,24678,-2141,-16223,-1415,2,-9,-2
1,215,24683,-2115,-16232,-1407,2,-8,-2
1,216,24688,-2178,-16223,-1403,2,-9,-2
1,217,24693,-2159,-16201,-1421,2,-9,-3
1,218,24698,-2139,-16212,-1367,2,-8,-1
1,219,24703,-2123,-16224,-1396,2,-9,-2
1,220,24708,-2135,-16224,-1429,2,-8,-3
1,221,24713,-2126,-16231,-1401,4,-8,-4
1,222,24718,-2151,-16240,-1374,3,-6,-4
1,223,24723,-2146,-16217,-1379,0,-8,-2
1,224,24728,-2151,-16203,-1410,-1,-8,-4
1,225,24733,-2133,-16234,-1407,0,-9,-3
1,226,24738,-2164,-16225,-1372,3,-8,-3
1,227,24743,-2133,-16264,-1381,3,-8,-5
1,228,24748,-2124,-16257,-1431,-1,-9,-4
1,229,24753,-2122,-16247,-1396,2,-4,-4
1,230,24758,-2120,-16204,-1408,0,-7,-4
1,231,24763,-2116,-16231,-1389,1,-6,-5
1,232,24768,-2122,-16228,-1406,3,-4,-5
1,233,24773,-2162,-16236,-1409,2,-9,-5
1,234,24778,-2129,-16233,-1424,1,-11,-1
1,235,24783,-2130,-16243,-1394,2,-9,0
1,236,24788,-2174,-16261,-1388,1,-8,-3
1,237,24793,-2147,-16241,-1416,1,-6,-3
1,238,24798,-2167,-16244,-1445,2,-7,-2
1,239,24803,-2159,-16260,-1402,2,-8,-6
1,240,24808,-2151,-16247,-1380,2,-9,-5
1,241,24813,-2171,-16219,-1383,2,-7,-3
1,242,24818,-2133,-16233,-1419,5,-10,-1
1,243,24823,-2174,-16223,-1405,3,-8,-1
1,244,24828,-2131,-16243,-1403,3,-7,-6
1,245,24833,-2123,-16241,-1383,2,-9,-3
1,246,24838,-2147,-16242,-1391,3,-7,-2
1,247,24843,-2132,-16219,-1394,0,-8,-5
1,248,24848,-2143,-16261,-1384,0,-9,-6
1,249,24853,-2145,-16284,-1372,2,-7,-3
1,250,24858,-2181,-16237,-1387,0,-7,-3
1,251,24863,-2167,-16233,-1386,3,-7,0
1,252,24868,-2131,-16259,-1385,3,-7,-3
1,253,24873,-2144,-16275,-1420,5,-8,-5
1,254,24878,-2137,-16242,-1428,6,-7,-2
1,255,24883,-2118,-16224,-1370,4,-7,-2
1,256,24888,-2115,-16212,-1392,3,-8,-2
1,257,24893,-2126,-16226,-1400,4,-10,-2
1,258,24898,-2147,-16204,-1379,2,-8,-2
1,259,24903,-2148,-16216,-1407,3,-7,-1
1,260,24908,-2152,-16219,-1385,4,-5,-5
1,261,24913,-2133,-16225,-1410,4,-7,-3
1,262,24918,-2157,-16223,-1440,0,-9,-4
1,263,24923,-1873,-16232,-1930,6,-10,-3
1,264,24928,-1790,-16320,-1480,11,12,-4
1,265,24933,-2213,-16240,-1024,1,4,-1
1,266,24938,-2862,-16107,-592,-4,-29,0
1,267,24943,-2667,-16220,-1184,4,-65,-3
1,268,24948,-2089,-16327,-1952,5,-38,-3
1,269,24953,-1741,-16339,-2237,1,30,-7
1,270,24958,-1725,-16199,-1648,0,77,-13
1,271,24963,-1880,-16219,-1052,4,43,-7
1,272,24968,-2276,-16254,-1135,10,-41,3
1,273,24973,-2617,-16255,-1510,13,-91,-4
1,274,24978,-2549,-16265,-1648,10,-75,-7
1,275,24983,-2498,-16221,-1364,1,-5,-7
1,276,24988,-2542,-16186,-1030,-1,47,-14
1,277,24993,-2403,-16246,-1181,7,40,-18
1,278,24998,-2277,-16312,-1545,9,2,-16
1,279,25003,-3131,-16170,-2380,6,-42,-10
1,280,25008,-2840,-16534,-3639,25,-38,-21
1,281,25013,-1835,-16574,-4402,31,18,-26
1,282,25018,-1814,-16507,-3133,20,86,-20
1,283,25023,-2814,-16177,-1276,20,47,-23
1,284,25028,-2639,-16118,-1409,42,-82,-18
1,285,25033,-2280,-16342,-2080,57,-122,-12
1,286,25038,-2450,-16492,-2047,46,-69,-18
1,287,25043,-2475,-16127,-987,34,23,-28
1,288,25048,-1838,-15958,-954,35,71,-21
1,289,25053,-481,-16210,-2315,52,75,-18
1,290,25058,758,-16415,-4218,68,78,-28
1,291,25063,2328,-16554,-6279,84,72,-5
1,292,25068,2664,-16679,-5165,84,104,35
1,293,25073,761,-16292,-1896,61,80,39
1,294,25078,-1200,-15861,-634,64,-81,16
1,295,25083,-2518,-15854,-1285,94,-114,18
1,296,25088,-2247,-16463,-3020,115,60,60
1,297,25093,-1410,-16737,-3032,98,381,52
1,298,25098,-1867,-15946,-1642,63,562,3
1,299,25103,-2373,-16049,-959,93,444,13
1,300,25108,-2761,-16756,-3040,135,234,45
1,301,25113,-2241,-16683,-5851,122,239,38
1,302,25118,-2011,-16461,-4844,95,495,26
1,303,25123,-3254,-16217,-2628,90,683,-2
1,304,25128,-3462,-16465,-1880,124,615,-28
1,305,25133,-3158,-16276,-3767,160,528,-7
1,306,25138,-2163,-16731,-4181,156,653,20
1,307,25143,-2358,-16437,-2737,124,811,-26
1,308,25148,-3031,-15936,-749,119,837,-63
1,309,25153,-3364,-16148,-858,153,702,-27
1,310,25158,-3352,-16510,-1836,167,688,-11
1,311,25163,-4137,-16186,-1259,138,856,-49
1,312,25168,-3877,-16053,-1283,134,962,-78
1,313,25173,-3947,-15544,-334,137,989,-92
1,314,25178,-5112,-16632,-461,136,856,-93
1,315,25183,-3821,-16488,-2472,145,620,-41
1,316,25188,-1554,-16433,-3331,144,637,-24
1,317,25193,-913,-15996,-2085,135,763,-75
1,318,25198,-439,-16154,-774,153,721,-91
1,319,25203,41,-16280,-1228,177,534,-45
1,320,25208,839,-16248,-1484,169,439,2
1,321,25213,511,-15766,-364,149,476,-9
1,322,25218,-848,-15920,1583,162,469,-9
1,323,25223,-1895,-16228,419,176,303,7
1,324,25228,-3157,-16514,151,172,240,29
1,325,25233,-3586,-16423,-275,157,258,26
1,326,25238,-3661,-16018,324,156,352,10
1,327,25243,-2574,-16483,-392,165,390,-16
1,328,25248,-2200,-16461,-617,143,454,-29
1,329,25253,-2120,-16146,-881,131,464,-17
1,330,25258,-2169,-16224,-1646,139,473,-25
1,331,25263,-1916,-16683,-2851,146,515,-52
1,332,25268,-2978,-16602,-2152,129,615,-71
1,333,25273,-3440,-16365,-1926,126,571,-48
1,334,25278,-2340,-16359,-1820,134,552,-28
1,335,25283,-1660,-16146,-740,122,597,-62
1,336,25288,-2119,-15933,1142,120,566,-56
1,337,25293,-1710,-16016,1141,129,418,-22
1,338,25298,-1893,-16144,983,119,369,-26
1,339,25303,-1670,-16009,699,118,354,-32
1,340,25308,-1660,-16203,148,121,339,-17
1,341,25313,-1922,-16207,92,112,347,-18
1,342,25318,-1429,-16391,-1205,123,259,-12
1,343,25323,-1584,-16358,-1059,113,257,-10
1,344,25328,-1425,-16362,-1086,104,216,-5
1,345,25333,-1202,-16267,-711,104,182,0
1,346,25338,-1134,-16190,-602,98,147,6
1,347,25343,-1543,-16111,503,99,97,10
1,348,25348,-1887,-16114,430,99,-20,25
1,349,25353,-2722,-15928,826,96,-93,30
1,350,25358,-3306,-16096,582,98,-163,45
1,351,25363,-3588,-16173,869,95,-186,37
1,352,25368,-3497,-16633,-280,97,-305,47
1,353,25373,-3359,-16307,-321,73,-311,34
1,354,25378,-3068,-16114,-810,83,-347,34
1,355,25383,-3199,-16362,-1156,94,-330,26
1,356,25388,-3168,-16499,-1156,95,-340,13
1,357,25393,-3126,-16747,-1473,92,-346,9
1,358,25398,-3679,-16427,-1675,82,-325,2
1,359,25403,-2751,-16611,-1857,82,-299,17
1,360,25408,-2235,-16440,82,75,-225,5
1,361,25413,-1121,-16137,108,66,-281,18
1,362,25418,-449,-15657,1698,59,-304,16
1,363,25423,326,-15735,1333,67,-363,22
1,364,25428,368,-15803,-225,85,-408,33
1,365,25433,571,-16661,-962,85,-399,42
1,366,25438,-98,-16658,-1202,63,-404,42
1,367,25443,-442,-16386,-1312,52,-446,62
1,368,25448,-1004,-16072,-506,40,-406,69
1,369,25453,-1202,-15974,-940,45,-373,63
1,370,25458,-1871,-16074,-1859,59,-269,54
1,371,25463,-2211,-16546,-3643,70,-122,54
1,372,25468,-2588,-16746,-3526,56,93,24
1,373,25473,-2767,-16822,-1936,40,234,1
1,374,25478,-2688,-16537,-461,45,231,-1
1,375,25483,-2520,-16085,-1402,59,152,12
1,376,25488,-2371,-16125,-1730,68,169,2
1,377,25493,-2162,-16383,-1555,70,262,-14
1,378,25498,-2281,-16337,-191,64,357,-17
1,379,25503,-1898,-16400,668,68,293,-4
1,380,25508,-1319,-16431,1235,70,148,11
1,381,25513,-937,-16590,726,71,-20,30
1,382,25518,-1358,-16868,365,63,-132,44
1,383,25523,-2087,-17204,-103,64,-225,53
1,384,25528,-2715,-17584,-841,71,-297,69
1,385,25533,-2927,-17824,-1386,73,-286,80
1,386,25538,-2829,-18035,-1355,69,-198,77
1,387,25543,-2771,-18084,-984,61,-119,70
1,388,25548,-2953,-18260,-635,59,-91,75
1,389,25553,-3444,-18163,-513,56,-116,76
1,390,25558,-3737,-18205,-187,61,-166,91
1,391,25563,-3533,-18054,553,57,-243,100
1,392,25568,-2739,-17944,715,57,-374,123
1,393,25573,-2266,-17722,1728,62,-489,146
1,394,25578,-2524,-18015,872,47,-702,157
1,395,25583,-2819,-17474,-142,55,-892,150
1,396,25588,-2783,-17706,-1263,70,-958,201
1,397,25593,-2458,-17884,-1747,56,-915,219
1,398,25598,-1686,-17943,-2444,56,-814,210
1,399,25603,-1939,-17710,-2866,49,-584,208
1,400,25608,-2633,-17759,-2873,51,-311,222
1,401,25613,-3254,-17566,-2338,52,-94,216
1,402,25618,-2806,-17175,-1493,52,25,220
1,403,25623,-2109,-17007,6,44,93,245
1,404,25628,-1598,-16849,1087,42,86,257
1,405,25633,-2043,-16636,1559,43,-14,266
1,406,25638,-2938,-16455,1316,44,-207,299
1,407,25643,-3432,-16496,1281,45,-415,332
1,408,25648,-3078,-16464,1068,43,-581,359
1,409,25653,-2506,-16572,923,46,-693,385
1,410,25658,-2354,-16597,321,44,-780,395
1,411,25663,-2840,-16466,-159,49,-823,403
1,412,25668,-3404,-16284,-610,47,-848,412
1,413,25673,-3527,-16123,-807,43,-829,430
1,414,25678,-2919,-16121,-1111,48,-782,456
1,415,25683,-2451,-16064,-1241,43,-661,451
1,416,25688,-2850,-16000,-1510,45,-521,457
1,417,25693,-3728,-15942,-555,41,-359,454
1,418,25698,-4194,-15491,-352,40,-321,451
1,419,25703,-3693,-15622,150,41,-318,480
1,420,25708,-3005,-15565,107,33,-327,493
1,421,25713,-3022,-15569,1170,28,-288,487
1,422,25718,-3421,-15661,1203,34,-345,491
1,423,25723,-4105,-15753,852,41,-419,510
1,424,25728,-4355,-15875,163,40,-483,522
1,425,25733,-3714,-15949,777,25,-492,533
1,426,25738,-3296,-15906,934,30,-551,539
1,427,25743,-3370,-15849,787,39,-613,541
1,428,25748,-3850,-15732,-71,42,-694,551
1,429,25753,-4023,-15782,-308,40,-706,562
1,430,25758,-3889,-15651,-481,31,-676,562
1,431,25763,-3285,-15611,-127,36,-637,566
1,432,25768,-3015,-15673,-665,40,-611,570
1,433,25773,-3186,-15864,-1234,50,-553,574
1,434,25778,-3426,-15785,-1678,51,-454,569
1,435,25783,-3630,-15689,-1430,45,-317,572
1,436,25788,-3588,-15588,-1250,43,-199,571
1,437,25793,-3579,-15608,-802,42,-96,563
1,438,25798,-3660,-15523,-654,44,-32,562
1,439,25803,-3977,-15551,92,44,18,567
1,440,25808,-4025,-15470,858,40,0,566
1,441,25813,-3698,-15439,1225,42,-89,577
1,442,25818,-3713,-15551,1118,43,-184,589
1,443,25823,-4045,-15814,913,41,-270,588
1,444,25828,-4526,-15670,575,39,-357,585
1,445,25833,-4829,-15622,376,41,-429,596
1,446,25838,-4666,-15522,153,38,-476,597
1,447,25843,-4319,-15501,322,37,-472,595
1,448,25848,-4094,-15577,206,37,-458,592
1,449,25853,-4173,-15549,-103,37,-445,586
1,450,25858,-4306,-15554,-792,35,-435,583
1,451,25863,-4476,-15496,-961,31,-371,582
1,452,25868,-4327,-15460,-741,28,-285,577
1,453,25873,-4171,-15349,-517,26,-195,571
1,454,25878,-3897,-15484,-687,30,-129,571
1,455,25883,-3995,-15432,-543,28,-64,563
1,456,25888,-4242,-15408,-210,22,-36,555
1,457,25893,-4507,-15353,446,20,-40,557
1,458,25898,-4536,-15285,716,22,-86,562
1,459,25903,-4353,-15361,652,20,-128,560
1,460,25908,-4371,-15282,840,16,-175,557
1,461,25913,-4557,-15364,816,15,-273,560
1,462,25918,-4825,-15327,828,18,-371,559
1,463,25923,-4979,-15155,540,16,-460,557
1,464,25928,-5054,-15170,445,13,-494,557
1,465,25933,-4993,-15050,-39,15,-510,552
1,466,25938,-5012,-14961,-87,13,-504,545
1,467,25943,-5056,-14932,-435,12,-514,544
1,468,25948,-5180,-15056,-573,15,-481,538
1,469,25953,-4953,-15196,-745,11,-412,531
1,470,25958,-4503,-15180,-508,5,-304,517
1,471,25963,-4228,-15277,-144,7,-222,510
1,472,25968,-4299,-15305,-179,6,-192,501
1,473,25973,-4466,-15401,-449,10,-180,497
1,474,25978,-4605,-15440,-413,7,-140,492
1,475,25983,-4472,-15397,-334,5,-102,485
1,476,25988,-4406,-15389,-137,6,-60,483
1,477,25993,-4407,-15369,-54,3,-41,474
1,478,25998,-4694,-15298,54,2,-49,467
1,479,26003,-4968,-15276,177,2,-83,462
1,480,26008,-5113,-15183,18,2,-127,463
1,481,26013,-5137,-15202,92,0,-142,463
1,482,26018,-5168,-15079,99,-3,-156,449
1,483,26023,-5186,-15196,55,0,-190,446
1,484,26028,-5231,-15222,-61,1,-216,437
1,485,26033,-5212,-15302,-222,-4,-222,429
1,486,26038,-5256,-15440,-193,-5,-183,420
1,487,26043,-5231,-15478,-388,-5,-132,402
1,488,26048,-5247,-15408,-345,-8,-81,384
1,489,26053,-5341,-15275,-212,-15,-50,371
1,490,26058,-5459,-15274,138,-18,-26,363
1,491,26063,-5621,-15292,407,-22,-19,343
1,492,26068,-5593,-15291,417,-22,-45,332
1,493,26073,-5499,-15382,352,-26,-72,324
1,494,26078,-5523,-15272,549,-34,-104,305
1,495,26083,-5545,-15125,522,-35,-166,291
1,496,26088,-5765,-15096,515,-36,-213,283
1,497,26093,-5890,-15135,178,-40,-239,266
1,498,26098,-5072,-15096,5,-52,-244,236
1,499,26103,-5138,-15023,501,-59,-233,209
1,500,26108,-5606,-15097,452,-63,-261,184
1,501,26113,-5993,-15093,276,-68,-294,168
1,502,26118,-5753,-15360,-101,-69,-316,163
1,503,26123,-5411,-15445,328,-80,-292,132
1,504,26128,-5152,-15559,401,-82,-322,107
1,505,26133,-5446,-15478,385,-82,-369,85
1,506,26138,-6002,-15466,4,-83,-420,66
1,507,26143,-6299,-15439,-183,-87,-452,44
1,508,26148,-5829,-15523,-376,-93,-465,25
1,509,26153,-5291,-15503,-502,-99,-436,0
1,510,26158,-5397,-15488,-329,-97,-395,-34
1,511,26163,-5861,-15468,-178,-101,-387,-64
1,512,26168,-5933,-15423,-225,-109,-391,-87
1,513,26173,-5584,-15464,-367,-115,-370,-107
1,514,26178,-5288,-15630,-255,-121,-307,-140
1,515,26183,-5347,-15752,-116,-128,-257,-174
1,516,26188,-5648,-15817,47,-132,-244,-196
1,517,26193,-5847,-15875,-4,-135,-265,-221
1,518,26198,-5680,-15898,67,-141,-275,-247
1,519,26203,-5583,-15925,323,-154,-273,-279
1,520,26208,-5751,-15941,695,-159,-291,-306
1,521,26213,-5785,-15988,870,-156,-346,-329
1,522,26218,-5431,-15997,575,-159,-424,-352
1,523,26223,-5009,-15986,389,-167,-478,-375
1,524,26228,-5057,-16038,367,-177,-510,-402
1,525,26233,-5335,-16078,498,-184,-538,-429
1,526,26238,-5566,-15985,-37,-190,-570,-454
1,527,26243,-5601,-15955,-507,-195,-548,-478
1,528,26248,-5567,-15973,-626,-202,-473,-507
1,529,26253,-5285,-16090,-482,-209,-407,-532
1,530,26258,-4716,-16129,-389,-216,-368,-553
1,531,26263,-4352,-16169,-451,-221,-330,-578
1,532,26268,-4435,-16312,-527,-225,-286,-604
1,533,26273,-4734,-16406,-755,-231,-243,-629
1,534,26278,-4879,-16420,-803,-233,-189,-654
1,535,26283,-4712,-16433,-770,-235,-128,-670
1,536,26288,-4354,-16438,-658,-238,-62,-694
1,537,26293,-4296,-16352,-436,-240,-13,-718
1,538,26298,-4347,-16277,-319,-243,-7,-735
1,539,26303,-4511,-16272,-280,-248,-15,-753
1,540,26308,-4497,-16280,-91,-247,-18,-769
1,541,26313,-4232,-16268,23,-249,-18,-783
1,542,26318,-4063,-16202,8,-249,-15,-798
1,543,26323,-4427,-16096,77,-248,-36,-814
1,544,26328,-4761,-16205,34,-247,-94,-824
1,545,26333,-4528,-16179,-46,-246,-170,-827
1,546,26338,-3726,-16184,-175,-247,-230,-831
1,547,26343,-3240,-16249,-182,-248,-252,-844
1,548,26348,-3361,-16301,-285,-248,-255,-860
1,549,26353,-3779,-16341,-757,-245,-262,-869
1,550,26358,-3775,-16376,-1539,-242,-252,-871
1,551,26363,-3328,-16432,-1870,-246,-163,-884
1,552,26368,-2726,-16511,-1992,-245,-43,-896
1,553,26373,-2539,-16419,-2086,-243,86,-911
1,554,26378,-3018,-16451,-2318,-239,212,-924
1,555,26383,-3711,-16439,-2528,-229,333,-937
1,556,26388,-3963,-16429,-2637,-225,439,-943
1,557,26393,-3583,-16497,-2126,-223,544,-946
1,558,26398,-3378,-16516,-954,-219,621,-958
1,559,26403,-3654,-16663,235,-211,596,-969
1,560,26408,-3998,-16739,738,-198,452,-970
1,561,26413,-3839,-16786,902,-187,256,-963
1,562,26418,-3443,-16750,1059,-186,63,-957
1,563,26423,-3056,-16784,1390,-184,-126,-951
1,564,26428,-3015,-16736,1128,-180,-306,-945
1,565,26433,-3276,-16645,300,-178,-454,-947
1,566,26438,-3672,-16464,-599,-182,-516,-944
1,567,26443,-3783,-16337,-1166,-191,-482,-951
1,568,26448,-3359,-16172,-1241,-197,-396,-960
1,569,26453,-2875,-16055,-1185,-203,-285,-968
1,570,26458,-2785,-15954,-1057,-203,-165,-981
1,571,26463,-3017,-15756,-1035,-207,20,-995
1,572,26468,-3134,-15681,-906,-212,93,-999
1,573,26473,-3244,-15536,-478,-214,145,-1013
1,574,26478,-3403,-15662,-190,-211,158,-1007
1,575,26483,-2792,-15723,-166,-205,131,-1008
1,576,26488,-2109,-15687,176,-211,108,-1010
1,577,26493,-1699,-15994,530,-209,38,-1005
1,578,26498,-1983,-15989,1,-206,-53,-1013
1,579,26503,-2225,-16139,-906,-199,-128,-999
1,580,26508,-2536,-16024,-1007,-205,-112,-1005
1,581,26513,-2443,-16034,-1005,-204,-107,-1001
1,582,26518,-2143,-15929,-885,-200,-91,-1001
1,583,26523,-1827,-15886,-1005,-203,-67,-1003
1,584,26528,-1913,-15794,-671,-199,-31,-1008
1,585,26533,-2026,-15602,-475,-199,-33,-1008
1,586,26538,-1871,-15596,-353,-199,-54,-996
1,587,26543,-1586,-15556,-268,-199,-59,-995
1,588,26548,-1359,-15574,-297,-200,-48,-993
1,589,26553,-1187,-15585,-313,-198,-31,-990
1,590,26558,-1059,-15484,-293,-200,-32,-990
1,591,26563,-991,-15513,-614,-206,-30,-979
1,592,26568,-1189,-15489,-565,-204,18,-976
1,593,26573,-1366,-15396,-395,-204,63,-976
1,594,26578,-1267,-15449,-414,-206,97,-966
1,595,26583,-770,-15521,-576,-209,120,-958
1,596,26588,-413,-15618,-412,-207,142,-960
1,597,26593,-266,-15644,-329,-208,149,-950
1,598,26598,-1338,-10061,-1844,-211,155,-934
1,599,26603,7320,-20729,-27582,-160,252,-903
1,600,26608,-27251,-23110,-3687,-154,3062,-1221
1,601,26613,-32768,-10503,30568,150,6218,-428
1,602,26618,556,-11896,-8795,590,5185,1105
1,603,26623,32767,-23082,-1748,369,6702,510
1,604,26628,24876,-14243,30698,-110,6788,-1084
1,605,26633,-23040,-10687,32767,61,-280,-454
1,606,26638,-32768,-7347,26864,576,-9777,925
1,607,26643,-19169,-14078,-19749,574,-12202,1754
1,608,26648,20790,-24703,-32768,220,-6317,1457
1,609,26653,31837,-23867,-16403,44,1363,-47
1,610,26658,-1996,-12447,19131,-153,2351,-987
1,611,26663,-32768,-8408,22169,369,-2234,-21
1,612,26668,-15827,-19122,-31294,734,-6271,1367
1,613,26673,4455,-19720,-32768,301,-738,671
1,614,26678,17196,-19786,-12816,77,4465,-58
1,615,26683,8838,-17186,22958,-59,5777,-561
1,616,26688,-12000,-11184,27114,141,2298,-386
1,617,26693,-11588,-14722,-6176,534,-2296,700
1,618,26698,-652,-19335,-18537,352,-1522,815
1,619,26703,5438,-16789,-765,137,1831,104
1,620,26708,6648,-15803,15039,76,2532,-116
1,621,26713,-2706,-14644,16088,199,638,55
1,622,26718,-6933,-16275,-6165,394,-2147,507
1,623,26723,-5069,-17663,-13797,290,-2125,578
1,624,26728,-1646,-16233,-2808,134,-309,306
1,625,26733,2362,-16771,4444,161,584,216
1,626,26738,1417,-16836,2011,221,491,189
1,627,26743,-2205,-17408,-4622,277,-47,255
1,628,26748,-4527,-16548,-4569,220,-241,270
1,629,26753,-3471,-16012,1275,171,-84,281
1,630,26758,-212,-16285,4109,173,85,276
1,631,26763,1425,-16997,759,208,153,264
1,632,26768,-183,-16851,-2399,218,144,235
1,633,26773,-3124,-16323,-1551,193,-22,253
1,634,26778,-3782,-15839,1647,178,-257,281
1,635,26783,-1503,-15660,1437,194,-379,307
1,636,26788,572,-16777,-1638,210,-195,332
1,637,26793,389,-16958,-3213,189,143,272
1,638,26798,-1454,-16411,-1542,163,278,236
1,639,26803,-2522,-15930,751,167,138,257
1,640,26808,-1440,-15980,126,191,-30,304
1,641,26813,-77,-16510,-1737,190,127,313
1,642,26818,-93,-16479,-1760,167,453,270
1,643,26823,-1315,-16050,51,149,535,254
1,644,26828,-2001,-15782,495,179,14,320
1,645,26833,-1097,-16027,-179,175,18,324
1,646,26838,-883,-16072,151,156,159,307
1,647,26843,-1457,-16019,825,145,148,302
1,648,26848,-2201,-15948,670,150,-39,313
1,649,26853,-2256,-16023,219,159,-206,327
1,650,26858,-1841,-16022,-341,155,-221,328
1,651,26863,-1587,-16129,-142,144,-111,323
1,652,26868,-1560,-16126,-213,134,-60,312
1,653,26873,-1868,-16197,-29,135,-74,310
1,654,26878,-1976,-15981,-517,137,-130,310
1,655,26883,-1947,-16123,-392,133,-93,318
1,656,26888,-1691,-15971,-239,123,-12,307
1,657,26893,-1680,-16031,-88,118,62,305
1,658,26898,-1705,-15983,-184,117,75,297
1,659,26903,-1627,-16051,-69,115,60,298
1,660,26908,-1635,-15918,-35,109,52,294
1,661,26913,-1793,-16005,-59,105,61,300
1,662,26918,-1966,-15966,297,98,85,289
1,663,26923,-2013,-15935,9,100,67,288
1,664,26928,-2037,-15964,132,95,41,291
1,665,26933,-1988,-16074,214,87,2,290
1,666,26938,-2004,-16075,313,88,-34,288
1,667,26943,-2119,-16063,223,85,-66,282
1,668,26948,-2259,-16127,154,82,-90,280
1,669,26953,-2178,-16098,225,76,-119,276
1,670,26958,-2102,-16165,187,72,-145,278
1,671,26963,-2173,-16080,174,70,-156,271
1,672,26968,-2342,-16114,-5,72,-168,267
1,673,26973,-2332,-16125,-292,67,-174,262
1,674,26978,-2198,-16187,-267,62,-162,260
1,675,26983,-2005,-16178,-337,51,-135,253
1,676,26988,-1962,-16179,-109,49,-96,247
1,677,26993,-1954,-16202,-349,49,-73,240
1,678,26998,-2062,-16244,-420,51,-31,234
1,679,27003,-2136,-16203,-502,43,3,230
1,680,27008,-2276,-16164,-242,37,32,223
1,681,27013,-2259,-16187,-318,40,36,224
1,682,27018,-2320,-16270,-151,35,59,220
1,683,27023,-2434,-16253,-54,33,75,211
1,684,27028,-2603,-16282,231,28,78,203
1,685,27033,-2635,-16199,325,23,46,199
1,686,27038,-2596,-16254,453,24,4,198
1,687,27043,-2424,-16346,458,21,-36,198
1,688,27048,-2462,-16355,516,16,-59,192
1,689,27053,-2571,-16397,317,17,-94,187
1,690,27058,-2787,-16466,101,14,-131,182
1,691,27063,-2929,-16496,-48,13,-159,179
1,692,27068,-2815,-16515,-74,9,-164,175
1,693,27073,-2664,-16561,-129,3,-152,168
1,694,27078,-2610,-16623,-235,1,-134,161
1,695,27083,-2662,-16665,-324,-1,-117,154
1,696,27088,-2664,-16660,-257,-4,-106,148
1,697,27093,-2595,-16676,-204,-5,-95,140
1,698,27098,-2487,-16657,-239,-6,-73,131
1,699,27103,-2413,-16648,-214,-6,-41,130
1,700,27108,-2425,-16575,-107,-11,-15,124
1,701,27113,-2439,-16521,-34,-12,-4,118
1,702,27118,-2443,-16500,66,-16,1,118
1,703,27123,-2401,-16459,-34,-19,6,116
1,704,27128,-2502,-16507,-95,-19,12,113
1,705,27133,-2678,-16537,-79,-22,26,104
1,706,27138,-2853,-16492,32,-24,30,98
1,707,27143,-2805,-16457,109,-26,21,93
1,708,27148,-2728,-16366,162,-27,7,91
1,709,27153,-2641,-16342,256,-28,-13,85
1,710,27158,-2638,-16353,348,-30,-42,83
1,711,27163,-2673,-16363,280,-31,-67,80
1,712,27168,-2764,-16289,165,-33,-72,76
1,713,27173,-2816,-16276,98,-37,-59,70
1,714,27178,-2753,-16206,69,-40,-47,65
1,715,27183,-2587,-16191,9,-43,-32,60
1,716,27188,-2549,-16184,3,-44,-19,58
1,717,27193,-2670,-16239,-34,-49,26,45
1,718,27198,-2667,-16220,-104,-49,48,41
1,719,27203,-2547,-16259,-197,-50,70,40
1,720,27208,-2516,-16246,-173,-54,95,30
1,721,27213,-2607,-16222,-202,-53,120,27
1,722,27218,-2736,-16211,-253,-54,142,25
1,723,27223,-2789,-16255,-354,-56,172,20
1,724,27228,-2943,-16321,-318,-57,212,11
1,725,27233,-3091,-16292,-260,-55,241,2
1,726,27238,-3023,-16184,-69,-53,250,-3
1,727,27243,-2898,-16147,344,-56,236,-5
1,728,27248,-2654,-16153,764,-63,183,-6
1,729,27253,-2536,-16265,837,-56,98,-4
1,730,27258,-2707,-16324,598,-55,16,-5
1,731,27263,-2867,-16337,347,-57,-49,-10
1,732,27268,-2882,-16308,238,-54,-99,-7
1,733,27273,-2705,-16278,323,-55,-152,-5
1,734,27278,-2528,-16266,69,-57,-205,-8
1,735,27283,-2536,-16341,-343,-53,-213,-10
1,736,27288,-2655,-16328,-460,-55,-178,-20
1,737,27293,-2721,-16262,-526,-57,-151,-24
1,738,27298,-2518,-16267,-467,-56,-131,-22
1,739,27303,-2390,-16259,-581,-55,-92,-26
1,740,27308,-2374,-16209,-551,-53,-39,-31
1,741,27313,-2410,-16120,-469,-53,8,-35
1,742,27318,-2399,-16093,-339,-57,42,-37
1,743,27323,-2250,-16130,-331,-55,58,-42
1,744,27328,-2226,-16188,-239,-53,76,-39
1,745,27333,-2260,-16173,-209,-51,85,-41
1,746,27338,-2387,-16224,-247,-48,93,-40
1,747,27343,-2416,-16206,-273,-48,108,-41
1,748,27348,-2441,-16222,-187,-51,118,-44
1,749,27353,-2327,-16265,-114,-49,108,-45
1,750,27358,-2394,-16194,-91,-50,91,-46
1,751,27363,-2444,-16233,-133,-46,68,-44
1,752,27368,-2559,-16293,-206,-43,66,-44
1,753,27373,-2622,-16282,1,-43,79,-47
1,754,27378,-2556,-16160,119,-41,54,-47
1,755,27383,-2450,-16120,163,-45,28,-44
1,756,27388,-2480,-16117,226,-41,2,-43
1,757,27393,-2509,-16109,130,-40,-28,-43
1,758,27398,-2585,-16090,122,-41,-48,-38
1,759,27403,-2671,-16078,8,-42,-56,-39
1,760,27408,-2666,-16093,-65,-42,-50,-44
1,761,27413,-2578,-16071,-139,-42,-36,-40
1,762,27418,-2610,-16060,-68,-43,-20,-40
1,763,27423,-2588,-16045,-115,-42,-13,-44
1,764,27428,-2566,-16050,-224,-46,-10,-45
1,765,27433,-2613,-16105,-439,-44,7,-45
1,766,27438,-2690,-16183,-466,-42,44,-46
1,767,27443,-2680,-16174,-386,-41,76,-48
1,768,27448,-2562,-16231,-358,-42,96,-46
1,769,27453,-2439,-16265,-261,-43,111,-49
1,770,27458,-2458,-16272,-231,-40,115,-49
1,771,27463,-2452,-16262,-191,-36,113,-48
1,772,27468,-2497,-16210,-177,-38,116,-48
1,773,27473,-2555,-16218,-171,-38,124,-46
1,774,27478,-2531,-16270,-75,-35,118,-44
1,775,27483,-2543,-16166,-59,-34,97,-45
1,776,27488,-2528,-16235,-237,-34,73,-37
1,777,27493,-2681,-16206,-183,-33,80,-43
1,778,27498,-2773,-16181,-130,-31,87,-37
1,779,27503,-2715,-16227,82,-34,93,-36
1,780,27508,-2632,-16220,85,-31,73,-39
1,781,27513,-2580,-16202,-89,-27,35,-35
1,782,27518,-2609,-16296,-156,-32,14,-28
1,783,27523,-2676,-16242,-157,-32,9,-31
1,784,27528,-2574,-16215,-259,-29,9,-29
1,785,27533,-2596,-16233,-283,-29,26,-26
1,786,27538,-2603,-16231,-407,-26,35,-26
1,787,27543,-2614,-16232,-465,-28,44,-25
1,788,27548,-2568,-16277,-320,-29,59,-23
1,789,27553,-2537,-16278,-285,-28,73,-27
1,790,27558,-2538,-16324,-380,-28,116,-20
1,791,27563,-2703,-16295,-227,-30,135,-22
1,792,27568,-2762,-16255,-127,-26,123,-21
1,793,27573,-2713,-16283,-202,-27,97,-19
1,794,27578,-2695,-16310,-234,-28,91,-15
1,795,27583,-2644,-16280,-42,-26,97,-14
1,796,27588,-2552,-16281,-24,-26,79,-12
1,797,27593,-2605,-16316,25,-25,52,-7
1,798,27598,-2701,-16321,-200,-25,10,-7
1,799,27603,-2781,-16283,-381,-25,-10,0
1,800,27608,-2826,-16374,-284,-31,13,1
1,801,27613,-2823,-16296,-224,-25,27,-2
1,802,27618,-2713,-16346,-273,-23,30,4
1,803,27623,-2617,-16432,-275,-25,39,6
1,804,27628,-2619,-16359,-257,-25,42,-1
1,805,27633,-2630,-16313,-228,-26,39,4
1,806,27638,-2676,-16376,-318,-26,45,10
1,807,27643,-2638,-16366,-448,-25,67,7
1,808,27648,-2552,-16243,-433,-26,89,5
1,809,27653,-2572,-16249,-445,-26,100,12
1,810,27658,-2612,-16231,-299,-25,114,11
1,811,27663,-2670,-16160,-433,-27,116,8
1,812,27668,-2820,-16302,-283,-26,132,17
1,813,27673,-2951,-16260,-179,-22,144,12
1,814,27678,-2908,-16249,-100,-26,141,12
1,815,27683,-2855,-16333,193,-26,124,18
1,816,27688,-2814,-16257,426,-27,79,16
1,817,27693,-2698,-16205,227,-24,11,18
1,818,27698,-2674,-16266,-20,-24,-25,30
1,819,27703,-2829,-16226,-195,-24,-35,27
1,820,27708,-2859,-16231,-254,-24,-43,27
1,821,27713,-2843,-16222,-359,-27,-53,32
1,822,27718,-2733,-16224,-451,-26,-51,31
1,823,27723,-2683,-16213,-528,-23,-24,28
1,824,27728,-2751,-16218,-514,-25,15,27
1,825,27733,-2761,-16253,-500,-25,33,25
1,826,27738,-2705,-16263,-436,-22,45,27
1,827,27743,-2645,-16247,-394,-24,64,28
1,828,27748,-2629,-16238,-453,-24,76,25
1,829,27753,-2645,-16349,-245,-24,96,28
1,830,27758,-2682,-16296,-370,-22,100,27
1,831,27763,-2676,-16338,-344,-24,112,31
1,832,27768,-2718,-16313,-334,-22,125,29
1,833,27773,-2748,-16305,-168,-21,122,27
1,834,27778,-2743,-16353,-165,-19,97,29
1,835,27783,-2814,-16391,-146,-20,70,31
1,836,27788,-2860,-16354,-188,-19,46,30
1,837,27793,-2958,-16379,-133,-19,35,34
1,838,27798,-2993,-16395,-88,-21,36,33
1,839,27803,-2969,-16335,-131,-19,22,28
1,840,27808,-2977,-16299,-187,-16,-8,32
1,841,27813,-2943,-16292,-198,-16,-38,31
1,842,27818,-2891,-16193,-159,-17,-68,31
1,843,27823,-2794,-16130,-181,-16,-90,32
1,844,27828,-2680,-16200,-305,-17,-90,32
1,845,27833,-2676,-16220,-447,-19,-74,31
1,846,27838,-2787,-16179,-576,-19,-52,29
1,847,27843,-2826,-16162,-683,-16,-32,25
1,848,27848,-2824,-16133,-699,-15,-10,25
1,849,27853,-2719,-16160,-568,-15,17,24
1,850,27858,-2579,-16206,-517,-18,47,24
1,851,27863,-2577,-16229,-469,-18,71,21
1,852,27868,-2650,-16212,-428,-15,82,21
1,853,27873,-2728,-16256,-380,-14,84,21
1,854,27878,-2706,-16301,-316,-13,78,23
1,855,27883,-2675,-16287,-258,-10,62,22
1,856,27888,-2654,-16280,-236,-9,44,23
1,857,27893,-2702,-16233,-279,-10,33,25
1,858,27898,-2750,-16171,-276,-10,17,22
1,859,27903,-2757,-16161,-310,-9,-7,22
1,860,27908,-2674,-16170,-408,-11,-24,23
1,861,27913,-2666,-16116,-475,-6,-31,28
1,862,27918,-2730,-16076,-465,-6,-37,27
1,863,27923,-2618,-16022,-451,-6,-40,26
1,864,27928,-2493,-16032,-484,-6,-34,22
1,865,27933,-2496,-16005,-541,-5,-22,27
1,866,27938,-2574,-16039,-550,-4,-14,24
1,867,27943,-2600,-16074,-576,-3,-10,23
1,868,27948,-2586,-16048,-561,-2,3,25
1,869,27953,-2521,-16150,-525,-4,20,25
1,870,27958,-2514,-16160,-510,-2,38,26
1,871,27963,-2606,-16151,-513,-2,45,26
1,872,27968,-2711,-16153,-483,-3,48,24
1,873,27973,-2808,-16160,-444,-1,49,22
1,874,27978,-2835,-16195,-392,0,49,23
1,875,27983,-2853,-16193,-433,3,47,24
1,876,27988,-2850,-16185,-439,2,50,20
1,877,27993,-2934,-16197,-391,0,48,20
1,878,27998,-2949,-16188,-344,0,36,20
1,879,28003,-2904,-16142,-368,2,31,20
1,880,28008,-2906,-16109,-401,3,30,20
1,881,28013,-2934,-16200,-425,2,31,15
1,882,28018,-2945,-16181,-319,-2,36,11
1,883,28023,-2921,-16123,-249,-1,31,14
1,884,28028,-2923,-16140,-283,0,24,12
1,885,28033,-2976,-16154,-282,-2,14,10
1,886,28038,-2984,-16175,-365,1,0,13
1,887,28043,-2927,-16169,-341,-1,-9,10
1,888,28048,-2931,-16176,-276,-3,-9,8
1,889,28053,-2926,-16236,-353,-4,-9,5
1,890,28058,-2900,-16211,-419,-3,-5,4
1,891,28063,-2849,-16213,-430,-1,-3,6
1,892,28068,-2813,-16153,-395,-6,-3,3
1,893,28073,-2816,-16136,-373,-5,-6,1
1,894,28078,-2769,-16101,-504,-4,-13,-1
1,895,28083,-2794,-16144,-644,-4,-13,1
1,896,28088,-2764,-16222,-646,-3,2,1
1,897,28093,-2776,-16231,-597,-4,16,-1
1,898,28098,-2749,-16234,-552,-6,32,-4
1,899,28103,-2767,-16191,-441,-2,43,-3
1,900,28108,-2730,-16231,-393,-3,45,-4
1,901,28113,-2726,-16257,-435,-4,40,-2
1,902,28118,-2811,-16273,-403,-5,35,-3
1,903,28123,-2888,-16262,-347,-6,24,-7
1,904,28128,-2937,-16285,-339,-4,10,-5
1,905,28133,-2880,-16275,-344,-4,1,-4
1,906,28138,-2801,-16260,-350,-6,-10,-5
1,907,28143,-2795,-16289,-346,-5,-20,-4
1,908,28148,-2859,-16282,-418,-4,-36,-3
1,909,28153,-2942,-16260,-511,-4,-45,-8
1,910,28158,-2959,-16186,-499,-3,-42,-6
1,911,28163,-2884,-16224,-486,-4,-39,-7
1,912,28168,-2785,-16205,-477,-6,-36,-9
1,913,28173,-2769,-16193,-469,-4,-30,-10
1,914,28178,-2822,-16206,-557,-5,-30,-10
1,915,28183,-2850,-16184,-548,-9,-24,-12
1,916,28188,-2842,-16170,-471,-9,-14,-13
1,917,28193,-2794,-16160,-509,-7,-4,-13
1,918,28198,-2786,-16162,-464,-7,7,-13
1,919,28203,-2729,-16183,-448,-5,12,-13
1,920,28208,-2703,-16204,-417,-7,16,-14
1,921,28213,-2658,-16270,-412,-11,13,-15
1,922,28218,-2652,-16218,-462,-8,10,-12
1,923,28223,-2688,-16168,-522,-9,11,-12
1,924,28228,-2710,-16183,-565,-11,18,-15
1,925,28233,-2764,-16230,-569,-8,20,-12
1,926,28238,-2832,-16309,-639,-6,25,-12
1,927,28243,-2870,-16290,-707,-7,36,-17
1,928,28248,-2912,-16231,-578,-8,46,-19
1,929,28253,-2902,-16212,-354,-9,39,-17
1,930,28258,-2825,-16243,-198,-7,18,-17
1,931,28263,-2758,-16187,-179,-5,-14,-16
1,932,28268,-2700,-16132,-189,-6,-42,-12
1,933,28273,-2713,-16115,-213,-7,-62,-14
1,934,28278,-2787,-16078,-211,-7,-79,-11
1,935,28283,-2813,-16022,-330,-7,-95,-9
1,936,28288,-2718,-16040,-483,-9,-93,-8
1,937,28293,-2782,-15984,-620,-8,-45,-14
1,938,28298,-2820,-16007,-469,-7,-32,-14
1,939,28303,-2869,-15952,-449,-9,-24,-15
1,940,28308,-2770,-15945,-721,-9,-15,-14
1,941,28313,-2776,-15976,-363,-13,34,-16
1,942,28318,-2808,-15941,-261,-14,48,-23
1,943,28323,-2764,-15929,-260,-10,29,-17
1,944,28328,-2712,-16004,-350,-10,17,-15
1,945,28333,-2775,-15991,-381,-13,20,-19
1,946,28338,-2830,-15921,-364,-12,17,-18
1,947,28343,-2903,-16042,-284,-12,18,-12
1,948,28348,-2853,-16046,-312,-10,15,-16
1,949,28353,-2875,-16054,-377,-13,4,-17
1,950,28358,-2941,-16100,-311,-14,-6,-16
1,951,28363,-2988,-16159,-308,-13,-24,-19
1,952,28368,-2997,-16183,-384,-14,-47,-19
1,953,28373,-2983,-16264,-431,-13,-64,-17
1,954,28378,-2887,-16359,-373,-13,-73,-18
1,955,28383,-2867,-16386,-370,-10,-84,-21
1,956,28388,-2867,-16392,-488,-9,-99,-17
1,957,28393,-2818,-16403,-645,-7,-108,-17
1,958,28398,-2808,-16396,-733,-5,-108,-15
1,959,28403,-2730,-16360,-689,-4,-106,-19
1,960,28408,-2607,-16384,-740,-5,-101,-20
1,961,28413,-2625,-16371,-837,-3,-87,-19
1,962,28418,-2623,-16331,-902,-2,-64,-18
1,963,28423,-2655,-16344,-937,0,-39,-19
1,964,28428,-2640,-16371,-908,-1,-16,-20
1,965,28433,-2550,-16391,-873,0,4,-20
1,966,28438,-2483,-16424,-770,3,21,-20
1,967,28443,-2531,-16462,-679,3,33,-19
1,968,28448,-2574,-16407,-601,6,40,-19
1,969,28453,-2634,-16443,-593,7,40,-17
1,970,28458,-2665,-16405,-583,5,39,-16
1,971,28463,-2624,-16362,-544,5,37,-13
1,972,28468,-2608,-16349,-425,6,29,-15
1,973,28473,-2682,-16354,-430,7,15,-16
1,974,28478,-2749,-16312,-479,9,3,-14
1,975,28483,-2743,-16333,-476,8,-7,-10
1,976,28488,-2735,-16298,-540,8,-13,-9
1,977,28493,-2681,-16239,-432,11,-13,-10
1,978,28498,-2673,-16186,-403,13,-20,-8
1,979,28503,-2684,-16201,-395,10,-21,-8
1,980,28508,-2718,-16149,-411,10,-13,-11
1,981,28513,-2743,-16137,-412,13,-14,-8
1,982,28518,-2679,-16136,-471,7,-11,-8
1,983,28523,-2744,-16143,-452,8,-2,-9
1,984,28528,-2702,-16159,-461,9,3,-9
1,985,28533,-2694,-16115,-410,7,20,-8
1,986,28538,-2667,-16130,-435,5,26,-7
1,987,28543,-2671,-16149,-434,7,34,-8
1,988,28548,-2729,-16163,-431,8,33,-8
1,989,28553,-2786,-16204,-399,6,34,-9
1,990,28558,-2884,-16248,-448,4,42,-9
1,991,28563,-2871,-16270,-514,4,43,-9
1,992,28568,-2878,-16309,-493,5,43,-7
1,993,28573,-2806,-16325,-420,5,36,-9
1,994,28578,-2708,-16344,-360,1,22,-10
1,995,28583,-2681,-16312,-340,5,1,-10
1,996,28588,-2721,-16260,-432,4,-18,-8
1,997,28593,-2812,-16292,-582,6,-35,-4
1,998,28598,-2807,-16340,-618,4,-38,-7
1,999,28603,-2774,-16312,-673,5,-27,-5
2,0,30528,-2761,-16209,-731,9,-13,4
2,1,30533,-2716,-16227,-714,9,-1,2
2,2,30538,-2720,-16229,-682,6,6,2
2,3,30543,-2739,-16207,-600,9,13,3
2,4,30548,-2615,-16205,-548,8,25,-1
2,5,30553,-2615,-16121,-497,8,30,0
2,6,30558,-2570,-16073,-424,7,26,0
2,7,30563,-2569,-16120,-448,8,20,0
2,8,30568,-2600,-16116,-478,7,13,-1
2,9,30573,-2687,-16099,-617,5,7,1
2,10,30578,-2750,-16154,-688,6,15,3
2,11,30583,-2831,-16133,-438,2,20,1
2,12,30588,-2763,-16063,-517,6,-3,1
2,13,30593,-2644,-16058,-550,8,-19,2
2,14,30598,-2735,-16095,-429,4,-13,0
2,15,30603,-2790,-16086,-437,7,-19,0
2,16,30608,-2735,-16116,-516,5,-27,2
2,17,30613,-2736,-16098,-572,7,-29,0
2,18,30618,-2694,-16076,-630,6,-29,0
2,19,30623,-2645,-16137,-670,3,-15,-1
2,20,30628,-2727,-16162,-579,1,2,-2
2,21,30633,-2760,-16130,-594,4,13,-5
2,22,30638,-2751,-16174,-694,4,23,-5
2,23,30643,-2727,-16200,-644,1,33,-4
2,24,30648,-2715,-16192,-488,-1,39,-6
2,25,30653,-2766,-16187,-399,0,35,-8
2,26,30658,-2795,-16217,-514,1,30,-7
2,27,30663,-2756,-16191,-509,0,23,-8
2,28,30668,-2708,-16188,-474,-1,18,-5
2,29,30673,-2679,-16205,-483,-3,13,-6
2,30,30678,-2689,-16185,-431,-2,6,-10
2,31,30683,-2693,-16182,-465,-1,-4,-9
2,32,30688,-2737,-16213,-534,-3,-9,-4
2,33,30693,-2736,-16213,-630,-2,-9,-7
2,34,30698,-2711,-16186,-567,-2,-9,-7
2,35,30703,-2673,-16175,-559,-5,-14,-6
2,36,30708,-2635,-16177,-541,-3,-14,-9
2,37,30713,-2654,-16196,-634,-4,-6,-8
2,38,30718,-2699,-16229,-698,-5,7,-10
2,39,30723,-2732,-16174,-705,-6,19,-9
2,40,30728,-2752,-16175,-612,-6,30,-10
2,41,30733,-2723,-16245,-536,-7,33,-9
2,42,30738,-2654,-16272,-484,-7,29,-10
2,43,30743,-2642,-16242,-436,-5,27,-11
2,44,30748,-2677,-16304,-448,-6,20,-10
2,45,30753,-2763,-16311,-453,-5,13,-12
2,46,30758,-2776,-16278,-480,-5,6,-12
2,47,30763,-2707,-16278,-484,-6,-2,-8
2,48,30768,-2761,-16349,-529,-8,-6,-10
2,49,30773,-2750,-16327,-608,-11,-5,-9
2,50,30778,-2776,-16285,-569,-8,-1,-14
2,51,30783,-2820,-16270,-553,-8,-4,-14
2,52,30788,-2774,-16312,-700,-8,-11,-11
2,53,30793,-2761,-16331,-618,-11,9,-10
2,54,30798,-2753,-16289,-527,-9,19,-14
2,55,30803,-2744,-16284,-473,-10,10,-13
2,56,30808,-2789,-16305,-623,-7,-5,-9
2,57,30813,-2799,-16310,-621,-9,-2,-13
2,58,30818,-2778,-16307,-511,-11,5,-13
2,59,30823,-2744,-16336,-495,-12,6,-13
2,60,30828,-2735,-16276,-495,-10,7,-13
2,61,30833,-2750,-16267,-547,-8,6,-13
2,62,30838,-2818,-16286,-497,-11,2,-13
2,63,30843,-2771,-16275,-526,-13,2,-13
2,64,30848,-2795,-16292,-572,-12,7,-14
2,65,30853,-2802,-16259,-589,-11,13,-14
2,66,30858,-2846,-16281,-544,-9,14,-15
2,67,30863,-2854,-16254,-559,-13,10,-16
2,68,30868,-2840,-16217,-525,-13,5,-16
2,69,30873,-2802,-16229,-493,-13,3,-15
2,70,30878,-2758,-16236,-491,-12,-2,-15
2,71,30883,-2755,-16279,-483,-9,-3,-16
2,72,30888,-2762,-16240,-446,-12,-4,-19
2,73,30893,-2804,-16243,-508,-11,-9,-17
2,74,30898,-2796,-16260,-510,-13,-9,-12
2,75,30903,-2799,-16221,-534,-12,-6,-15
2,76,30908,-2783,-16203,-553,-12,-6,-17
2,77,30913,-2846,-16177,-538,-12,-8,-17
2,78,30918,-2813,-16196,-545,-13,-14,-17
2,79,30923,-2784,-16203,-595,-14,-16,-18
2,80,30928,-2806,-16195,-656,-10,-11,-18
2,81,30933,-2811,-16182,-613,-10,-8,-19
2,82,30938,-2770,-16177,-572,-13,-6,-18
2,83,30943,-2722,-16203,-506,-13,-4,-17
2,84,30948,-2674,-16180,-534,-11,-6,-18
2,85,30953,-2642,-16230,-597,-12,-6,-16
2,86,30958,-2646,-16208,-540,-12,-8,-17
2,87,30963,-2657,-16211,-544,-9,-11,-14
2,88,30968,-2700,-16199,-621,-10,-9,-17
2,89,30973,-2718,-16254,-702,-9,-8,-17
2,90,30978,-2791,-16249,-673,-7,-4,-16
2,91,30983,-2736,-16249,-674,-7,-3,-16
2,92,30988,-2690,-16193,-564,-5,-3,-15
2,93,30993,-2662,-16237,-541,-6,-2,-13
2,94,30998,-2674,-16207,-535,-6,-8,-10
2,95,31003,-2690,-16165,-580,-3,-8,-13
2,96,31008,-2710,-16176,-636,-2,-4,-9
2,97,31013,-2671,-16159,-577,-5,-4,-12
2,98,31018,-2643,-16132,-540,-4,-3,-13
2,99,31023,-2561,-16129,-540,0,-3,-11
2,100,31028,-2514,-16062,-553,-1,-2,-11
2,101,31033,-2558,-16090,-557,-2,-1,-8
2,102,31038,-2584,-16099,-560,-5,-3,-8
2,103,31043,-2664,-16090,-611,-5,-5,-7
2,104,31048,-2723,-16146,-649,-3,-3,-8
2,105,31053,-2698,-16104,-614,-1,0,-7
2,106,31058,-2654,-16153,-559,-1,2,-6
2,107,31063,-2673,-16137,-516,-2,-1,-3
2,108,31068,-2698,-16161,-526,-2,-5,-5
2,109,31073,-2682,-16128,-514,1,-10,-5
2,110,31078,-2631,-16142,-522,2,-13,-1
2,111,31083,-2641,-16157,-583,2,-17,-1
2,112,31088,-2645,-16172,-619,2,-17,-2
2,113,31093,-2642,-16162,-702,2,-12,-2
2,114,31098,-2670,-16177,-713,1,-5,0
2,115,31103,-2655,-16181,-688,2,3,0
2,116,31108,-2672,-16212,-671,3,10,0
2,117,31113,-2687,-16234,-743,8,18,-1
2,118,31118,-2678,-16235,-704,6,25,-2
2,119,31123,-2631,-16205,-578,6,25,-1
2,120,31128,-2589,-16146,-493,7,18,1
2,121,31133,-2574,-16107,-509,7,9,1
2,122,31138,-2566,-16137,-468,7,1,1
2,123,31143,-2587,-16137,-517,7,-10,5
2,124,31148,-2623,-16144,-548,9,-17,8
2,125,31153,-2666,-16113,-563,7,-21,9
2,126,31158,-2726,-16178,-604,8,-18,6
2,127,31163,-2757,-16229,-647,11,-15,8
2,128,31168,-2788,-16268,-702,8,-8,7
2,129,31173,-2832,-16265,-663,7,-2,8
2,130,31178,-2862,-16263,-618,7,2,10
2,131,31183,-2815,-16262,-596,9,2,9
2,132,31188,-2765,-16258,-562,8,3,6
2,133,31193,-2753,-16197,-518,9,2,5
2,134,31198,-2776,-16245,-507,8,1,6
2,135,31203,-2831,-16202,-513,9,-2,6
2,136,31208,-2849,-16240,-549,10,-3,6
2,137,31213,-2818,-16243,-507,5,0,4
2,138,31218,-2828,-16227,-459,8,-2,8
2,139,31223,-2809,-16230,-459,7,-5,4
2,140,31228,-2804,-16247,-496,11,-8,4
2,141,31233,-2842,-16217,-545,8,-14,5
2,142,31238,-2796,-16191,-581,8,-16,4
2,143,31243,-2796,-16232,-579,6,-16,3
2,144,31248,-2723,-16218,-592,5,-11,3
2,145,31253,-2733,-16217,-559,6,-6,3
2,146,31258,-2744,-16239,-554,6,-9,6
2,147,31263,-2671,-16256,-577,8,-10,5
2,148,31268,-2676,-16244,-633,8,-11,6
2,149,31273,-2678,-16255,-696,6,-9,5
2,150,31278,-2755,-16248,-734,6,-3,2
2,151,31283,-2834,-16279,-756,7,7,4
2,152,31288,-2753,-16304,-701,9,17,3
2,153,31293,-2720,-16267,-584,6,22,2
2,154,31298,-2668,-16243,-526,6,17,5
2,155,31303,-2667,-16254,-468,5,9,4
2,156,31308,-2675,-16256,-538,7,-2,5
2,157,31313,-2726,-16290,-513,8,-9,4
2,158,31318,-2811,-16312,-508,8,-15,4
2,159,31323,-2805,-16299,-549,9,-16,4
2,160,31328,-2720,-16279,-556,9,-18,7
2,161,31333,-2667,-16282,-506,10,-23,5
2,162,31338,-2646,-16271,-454,5,-33,6
2,163,31343,-2621,-16229,-505,7,-49,8
2,164,31348,-2639,-16233,-583,7,-56,9
2,165,31353,-2697,-16249,-728,4,-50,7
2,166,31358,-2741,-16206,-784,7,-35,6
2,167,31363,-2726,-16213,-751,8,-19,6
2,168,31368,-2674,-16221,-695,6,-5,5
2,169,31373,-2615,-16193,-647,7,3,5
2,170,31378,-2529,-16213,-625,6,9,3
2,171,31383,-2510,-16191,-612,5,13,4
2,172,31388,-2566,-16192,-613,8,12,6
2,173,31393,-2616,-16186,-614,5,11,5
2,174,31398,-2691,-16226,-633,6,15,8
2,175,31403,-2736,-16256,-638,9,22,6
2,176,31408,-2762,-16289,-596,9,26,8
2,177,31413,-2727,-16280,-501,8,23,8
2,178,31418,-2723,-16218,-509,6,15,4
2,179,31423,-2724,-16234,-454,6,5,4
2,180,31428,-2781,-16238,-495,7,-2,6
2,181,31433,-2799,-16260,-637,8,1,10
2,182,31438,-2851,-16225,-501,7,7,2
2,183,31443,-2796,-16205,-673,10,-19,5
2,184,31448,-2821,-16223,-602,6,-17,7
2,185,31453,-2912,-16266,-535,9,-10,5
2,186,31458,-2877,-16198,-448,7,-8,0
2,187,31463,-2786,-16234,-473,7,-13,4
2,188,31468,-2727,-16170,-491,9,-16,2
2,189,31473,-2658,-16114,-498,7,-22,-1
2,190,31478,-2714,-16121,-459,7,-24,2
2,191,31483,-2733,-16153,-491,8,-24,3
2,192,31488,-2710,-16083,-602,7,-25,-3
2,193,31493,-2671,-16082,-693,7,-17,3
2,194,31498,-2673,-16134,-672,6,0,5
2,195,31503,-2752,-16124,-524,5,8,-2
2,196,31508,-2743,-16151,-756,6,-2,-2
2,197,31513,-2704,-16104,-743,8,3,-1
2,198,31518,-2710,-16117,-719,9,8,-1
2,199,31523,-2640,-16104,-579,4,15,-3
2,200,31528,-2727,-16140,-542,6,11,-1
2,201,31533,-2702,-16190,-559,5,4,0
2,202,31538,-2672,-16124,-613,5,1,-4
2,203,31543,-2723,-16103,-522,6,1,-1
2,204,31548,-2686,-16136,-484,5,5,0
2,205,31553,-2725,-16131,-548,8,0,-3
2,206,31558,-2727,-16150,-597,7,-5,-2
2,207,31563,-2772,-16136,-635,7,-2,0
2,208,31568,-2752,-16151,-625,7,3,2
2,209,31573,-2692,-16142,-586,5,-1,0
2,210,31578,-2680,-16134,-600,5,-4,-2
2,211,31583,-2705,-16104,-597,7,-7,1
2,212,31588,-2648,-16100,-578,7,-9,1
2,213,31593,-2615,-16099,-503,2,-12,-1
2,214,31598,-2616,-16107,-550,2,-14,-4
2,215,31603,-2600,-16115,-638,5,-15,-1
2,216,31608,-2678,-16106,-677,5,-14,0
2,217,31613,-2694,-16169,-674,4,-12,-2
2,218,31618,-2692,-16187,-671,2,-7,0
2,219,31623,-2696,-16188,-644,4,-1,-1
2,220,31628,-2707,-16197,-662,4,4,-1
2,221,31633,-2685,-16229,-609,2,17,-1
2,222,31638,-2744,-16181,-557,2,19,-2
2,223,31643,-2715,-16171,-547,3,16,-1
2,224,31648,-2691,-16191,-527,6,10,2
2,225,31653,-2682,-16196,-543,8,7,1
2,226,31658,-2709,-16187,-554,5,4,-1
2,227,31663,-2718,-16171,-609,4,1,-1
2,228,31668,-2723,-16163,-581,3,-2,1
2,229,31673,-2696,-16141,-621,4,-1,1
2,230,31678,-2604,-16189,-657,4,1,0
2,231,31683,-2654,-16206,-659,4,3,1
2,232,31688,-2664,-16203,-671,2,10,-1
2,233,31693,-2736,-16173,-682,2,17,-3
2,234,31698,-2799,-16195,-619,0,24,-1
2,235,31703,-2743,-16190,-537,1,33,0
2,236,31708,-2719,-16155,-487,2,35,-3
2,237,31713,-2722,-16122,-438,1,30,-2
2,238,31718,-2748,-16147,-393,-1,20,-4
2,239,31723,-2727,-16141,-440,-3,10,-3
2,240,31728,-2789,-16138,-440,-3,2,-3
2,241,31733,-2718,-16123,-557,-4,-3,0
2,242,31738,-2749,-16135,-536,0,-2,0
2,243,31743,-2773,-16173,-519,0,-3,-5
2,244,31748,-2742,-16224,-574,-1,-5,-3
2,245,31753,-2789,-16240,-618,-5,-5,-2
2,246,31758,-2838,-16256,-598,-5,-2,-6
2,247,31763,-2836,-16265,-619,-4,0,-4
2,248,31768,-2776,-16224,-558,-3,-2,-3
2,249,31773,-2725,-16274,-537,-3,-3,-4
2,250,31778,-2784,-16252,-622,-3,-7,-4
2,251,31783,-2814,-16280,-681,-7,-5,-5
2,252,31788,-2846,-16274,-686,-5,-4,-6
2,253,31793,-2831,-16244,-649,-5,5,-8
2,254,31798,-2815,-16259,-660,-6,15,-8
2,255,31803,-2806,-16300,-619,-8,23,-9
2,256,31808,-2807,-16253,-608,-10,32,-11
2,257,31813,-2812,-16251,-592,-8,37,-10
2,258,31818,-2764,-16245,-476,-9,32,-10
2,259,31823,-2773,-16243,-394,-7,20,-10
2,260,31828,-2722,-16247,-457,-10,8,-10
2,261,31833,-2709,-16249,-476,-9,-4,-9
2,262,31838,-2732,-16223,-485,-8,-14,-7
2,263,31843,-2768,-16211,-488,-11,-25,-5
2,264,31848,-2793,-16223,-566,-9,-35,-7
2,265,31853,-2770,-16251,-693,-10,-36,-9
2,266,31858,-2781,-16235,-716,-10,-25,-8
2,267,31863,-2766,-16274,-693,-10,-19,-9
2,268,31868,-2704,-16231,-689,-12,-13,-10
2,269,31873,-2715,-16269,-685,-12,-9,-9
2,270,31878,-2692,-16275,-708,-12,-3,-8
2,271,31883,-2750,-16292,-673,-13,5,-12
2,272,31888,-2819,-16236,-708,-13,3,-10
2,273,31893,-2742,-16263,-814,-13,5,-7
2,274,31898,-2747,-16279,-599,-17,35,-11
2,275,31903,-2728,-16277,-479,-11,41,-12
2,276,31908,-2635,-16247,-524,-11,22,-12
2,277,31913,-2671,-16265,-617,-13,8,-8
2,278,31918,-2763,-16294,-615,-13,4,-11
2,279,31923,-2787,-16231,-601,-13,1,-8
2,280,31928,-2744,-16262,-534,-15,0,-4
2,281,31933,-2706,-16232,-531,-13,-1,-7
2,282,31938,-2647,-16212,-606,-12,-6,-7
2,283,31943,-2728,-16224,-541,-11,-20,-9
2,284,31948,-2742,-16209,-621,-12,-29,-7
2,285,31953,-2711,-16260,-661,-10,-24,-1
2,286,31958,-2728,-16300,-744,-12,-7,-3
2,287,31963,-2705,-16245,-766,-12,6,-7
2,288,31968,-2759,-16258,-698,-14,12,-6
2,289,31973,-2700,-16229,-612,-12,10,-7
2,290,31978,-2720,-16205,-623,-11,8,-5
2,291,31983,-2695,-16193,-689,-8,10,-3
2,292,31988,-2684,-16215,-755,-10,11,-6
2,293,31993,-2710,-16212,-687,-12,17,-5
2,294,31998,-2753,-16187,-621,-10,21,-5
2,295,32003,-2728,-16186,-639,-8,19,-2
2,296,32008,-2677,-16230,-660,-10,20,-6
2,297,32013,-2671,-16207,-607,-11,24,-5
2,298,32018,-2675,-16153,-580,-10,21,-3
2,299,32023,-2699,-16153,-517,-7,12,-3
2,300,32028,-2756,-16172,-578,-8,8,-1
2,301,32033,-2747,-16174,-627,-9,5,2
2,302,32038,-2764,-16170,-590,-7,5,-1
2,303,32043,-2739,-16219,-585,-11,8,-4
2,304,32048,-2772,-16157,-609,-9,6,-3
2,305,32053,-2752,-16147,-630,-7,5,-1
2,306,32058,-2735,-16153,-578,-8,-1,2
2,307,32063,-2743,-16117,-598,-9,-5,1
2,308,32068,-2762,-16133,-677,-7,-4,-1
2,309,32073,-2763,-16147,-734,-5,0,0
2,310,32078,-2765,-16144,-663,-7,8,-3
2,311,32083,-2725,-16135,-631,-10,15,1
2,312,32088,-2705,-16180,-611,-6,14,0
2,313,32093,-2682,-16171,-646,-6,13,-1
2,314,32098,-2707,-16196,-655,-4,11,-2
2,315,32103,-2727,-16243,-661,-3,9,-4
2,316,32108,-2776,-16193,-626,-4,5,-2
2,317,32113,-2783,-16226,-626,-3,3,0
2,318,32118,-2783,-16208,-582,0,1,-1
2,319,32123,-2796,-16161,-609,-2,-1,-2
2,320,32128,-2782,-16160,-523,-4,-4,1
2,321,32133,-2724,-16154,-515,1,-13,3
2,322,32138,-2728,-16119,-576,-1,-24,2
2,323,32143,-2717,-16178,-593,-4,-26,0
2,324,32148,-2752,-16174,-634,0,-28,-1
2,325,32153,-2773,-16168,-708,2,-23,-1
2,326,32158,-2747,-16159,-718,1,-13,0
2,327,32163,-2753,-16155,-665,-1,-2,-1
2,328,32168,-2701,-16176,-664,1,4,1
2,329,32173,-2689,-16199,-711,2,9,-3
2,330,32178,-2740,-16216,-748,2,16,0
2,331,32183,-2759,-16174,-713,2,19,1
2,332,32188,-2726,-16190,-706,2,18,-1
2,333,32193,-2724,-16166,-692,4,16,-1
2,334,32198,-2751,-16199,-682,3,27,-2
2,335,32203,-2856,-16205,-604,2,38,0
2,336,32208,-2937,-16223,-562,3,38,-3
2,337,32213,-2922,-16205,-555,7,24,-3
2,338,32218,-2896,-16191,-478,7,-2,-1
2,339,32223,-2807,-16210,-403,7,-36,5
2,340,32228,-2633,-16147,-409,10,-71,7
2,341,32233,-2484,-16145,-483,14,-105,12
2,342,32238,-2603,-16177,-494,14,-134,15
2,343,32243,-2835,-16258,-467,14,-175,16
2,344,32248,-2809,-16155,-1130,19,-228,22
2,345,32253,-2563,-16342,-1038,21,-195,32
2,346,32258,-2497,-16289,-904,18,-148,24
2,347,32263,-2499,-16299,-640,21,-135,25
2,348,32268,-2608,-16281,-959,26,-156,30
2,349,32273,-2652,-16327,-1147,27,-132,37
2,350,32278,-2749,-16213,-698,31,-79,28
2,351,32283,-2744,-16139,-979,28,-77,36
2,352,32288,-2840,-16284,-708,31,-39,48
2,353,32293,-2967,-16132,-1071,31,-10,40
2,354,32298,-3178,-16130,-395,30,40,44
2,355,32303,-3167,-16155,-503,38,15,50
2,356,32308,-3230,-16226,-395,43,-47,58
2,357,32313,-3524,-16131,-17,45,-83,56
2,358,32318,-3567,-16046,148,46,-157,65
2,359,32323,-3430,-16038,211,50,-233,79
2,360,32328,-3131,-16089,236,55,-287,87
2,361,32333,-3075,-16047,112,54,-341,90
2,362,32338,-3283,-16008,16,56,-395,97
2,363,32343,-3501,-15963,-280,61,-454,104
2,364,32348,-3391,-15877,-552,62,-478,114
2,365,32353,-3065,-15782,-919,63,-449,122
2,366,32358,-2886,-15917,-1087,62,-363,124
2,367,32363,-3118,-15883,-1134,64,-262,118
2,368,32368,-3445,-15898,-1465,66,-181,125
2,369,32373,-3718,-15956,-1476,68,-80,122
2,370,32378,-3639,-15978,-1119,71,20,126
2,371,32383,-3236,-16023,-513,69,96,132
2,372,32388,-2882,-16050,-100,71,127,135
2,373,32393,-2870,-16052,76,78,124,142
2,374,32398,-3178,-16050,68,82,95,153
2,375,32403,-3555,-16104,166,80,56,164
2,376,32408,-3614,-16098,98,82,2,178
2,377,32413,-3376,-16108,150,85,-36,192
2,378,32418,-3353,-16118,265,87,-66,199
2,379,32423,-3511,-16233,324,90,-110,214
2,380,32428,-3599,-16192,88,95,-158,220
2,381,32433,-3600,-16100,-102,102,-201,229
2,382,32438,-3563,-15987,-81,98,-215,240
2,383,32443,-3650,-15958,85,96,-226,249
2,384,32448,-3598,-15901,-128,104,-263,258
2,385,32453,-3514,-15827,-367,109,-282,272
2,386,32458,-3339,-15787,-519,108,-269,283
2,387,32463,-3320,-15672,-115,108,-221,287
2,388,32468,-3446,-15699,-227,111,-185,294
2,389,32473,-3539,-15716,-437,116,-154,301
2,390,32478,-3394,-15756,-616,119,-115,311
2,391,32483,-3412,-15701,-281,117,-67,316
2,392,32488,-3405,-15649,28,120,-43,324
2,393,32493,-3554,-15700,108,123,-33,335
2,394,32498,-3742,-15701,-15,127,-29,341
2,395,32503,-3796,-15730,-183,130,-24,348
2,396,32508,-3867,-15704,91,126,-20,358
2,397,32513,-4001,-15814,408,128,-34,365
2,398,32518,-4062,-15867,534,131,-64,372
2,399,32523,-3903,-15883,358,138,-100,385
2,400,32528,-3990,-15886,331,139,-135,395
2,401,32533,-4254,-15948,453,142,-185,403
2,402,32538,-4385,-15933,413,149,-233,411
2,403,32543,-4268,-15902,159,152,-269,420
2,404,32548,-4160,-15930,-39,156,-279,423
2,405,32553,-4183,-15905,-75,156,-273,426
2,406,32558,-4328,-15902,-49,160,-269,430
2,407,32563,-4404,-15864,-67,163,-260,435
2,408,32568,-4382,-15846,-76,164,-227,437
2,409,32573,-4334,-15880,-102,168,-181,440
2,410,32578,-4292,-15881,-34,170,-140,443
2,411,32583,-4251,-15855,219,173,-115,445
2,412,32588,-4179,-15752,450,173,-110,449
2,413,32593,-4192,-15729,557,174,-116,456
2,414,32598,-4243,-15769,420,178,-126,458
2,415,32603,-4397,-15706,316,180,-121,461
2,416,32608,-4441,-15728,265,182,-110,470
2,417,32613,-4571,-15730,452,182,-89,470
2,418,32618,-4657,-15696,537,183,-80,468
2,419,32623,-4865,-15723,537,184,-74,475
2,420,32628,-4843,-15958,423,190,-78,483
2,421,32633,-4801,-15914,781,190,-85,474
2,422,32638,-4762,-15873,655,190,-138,474
2,423,32643,-4921,-16036,734,194,-172,486
2,424,32648,-5171,-16147,721,198,-184,480
2,425,32653,-5230,-16060,815,204,-205,476
2,426,32658,-5000,-16004,582,209,-257,485
2,427,32663,-4902,-16033,631,209,-285,487
2,428,32668,-4882,-15884,809,207,-312,480
2,429,32673,-5061,-15799,804,210,-340,483
2,430,32678,-5018,-15821,66,217,-350,481
2,431,32683,-4900,-15785,35,219,-299,484
2,432,32688,-4900,-15895,451,219,-241,481
2,433,32693,-4919,-15835,287,223,-227,474
2,434,32698,-4938,-15911,98,228,-192,474
2,435,32703,-5032,-15895,7,226,-121,468
2,436,32708,-5113,-15925,415,226,-44,463
2,437,32713,-5213,-15953,804,231,-17,461
2,438,32718,-5130,-15938,823,233,-34,460
2,439,32723,-4795,-15940,810,236,-60,465
2,440,32728,-4937,-15885,1111,232,-76,461
2,441,32733,-5310,-15970,1130,235,-122,461
2,442,32738,-5500,-16007,963,240,-172,468
2,443,32743,-5476,-15928,728,243,-199,464
2,444,32748,-5328,-15920,764,244,-209,464
2,445,32753,-5316,-15871,1007,242,-204,456
2,446,32758,-5422,-15815,1149,242,-212,452
2,447,32763,-5512,-15837,705,244,-232,454
2,448,32768,-5651,-15744,904,246,-195,446
2,449,32773,-5550,-15650,1041,246,-196,440
2,450,32778,-5506,-15554,1478,243,-211,444
2,451,32783,-5233,-15491,1095,245,-243,445
2,452,32788,-5172,-15429,1047,244,-230,437
2,453,32793,-5363,-15384,1201,241,-206,427
2,454,32798,-5616,-15367,939,241,-213,429
2,455,32803,-5656,-15405,557,245,-203,433
2,456,32808,-5476,-15390,539,238,-138,422
2,457,32813,-5289,-15211,654,232,-71,409
2,458,32818,-5365,-15395,1049,237,-14,412
2,459,32823,-5348,-15222,517,233,9,393
2,460,32828,-5768,-15328,618,231,75,397
2,461,32833,-6085,-15287,640,227,122,388
2,462,32838,-6303,-15346,1263,225,151,385
2,463,32843,-5849,-15329,1477,225,121,385
2,464,32848,-5427,-15377,1897,223,67,383
2,465,32853,-5283,-15384,2146,225,-24,377
2,466,32858,-5636,-15375,2144,225,-146,376
2,467,32863,-5975,-15418,1618,227,-272,384
2,468,32868,-6051,-15396,1005,226,-331,383
2,469,32873,-5839,-15425,730,222,-321,376
2,470,32878,-5727,-15397,728,218,-286,362
2,471,32883,-5771,-15341,709,218,-260,352
2,472,32888,-5883,-15372,570,217,-221,345
2,473,32893,-5865,-15314,485,212,-157,337
2,474,32898,-5736,-15308,696,206,-83,328
2,475,32903,-5553,-15232,944,200,-30,317
2,476,32908,-5463,-15201,993,200,-2,313
2,477,32913,-5616,-15162,1050,198,31,302
2,478,32918,-5831,-15093,971,194,65,296
2,479,32923,-6051,-15002,1021,187,108,291
2,480,32928,-6075,-15012,1081,178,147,280
2,481,32933,-5967,-15038,1249,174,169,272
2,482,32938,-5877,-15077,1352,171,165,263
2,483,32943,-6035,-15133,1524,165,153,252
2,484,32948,-6260,-15226,1720,160,123,247
2,485,32953,-6483,-15255,1808,153,86,233
2,486,32958,-6339,-15258,1649,148,31,231
2,487,32963,-6124,-15379,1730,146,-12,223
2,488,32968,-6007,-15234,1777,140,-66,207
2,489,32973,-6172,-15329,1847,136,-133,205
2,490,32978,-6254,-15225,1481,132,-201,191
2,491,32983,-6292,-15241,1244,122,-207,181
2,492,32988,-6237,-15255,859,114,-181,167
2,493,32993,-6119,-15228,1020,107,-123,149
2,494,32998,-6041,-15170,964,101,-83,130
2,495,33003,-6103,-15141,1098,88,-39,116
2,496,33008,-6036,-15170,936,83,4,100
2,497,33013,-6030,-15037,1094,73,80,80
2,498,33018,-5995,-14992,1219,63,150,62
2,499,33023,-6042,-14934,1337,50,220,41
2,500,33028,-6139,-14836,1270,45,288,23
2,501,33033,-6349,-14766,1266,37,362,0
2,502,33038,-6531,-14811,1645,22,418,-18
2,503,33043,-5719,-14749,2393,6,365,-47
2,504,33048,-5456,-14742,2698,-9,295,-62
2,505,33053,-5684,-14690,2878,-12,202,-82
2,506,33058,-6054,-14713,2338,-19,70,-92
2,507,33063,-6346,-14804,1892,-25,-38,-104
2,508,33068,-6198,-14863,1334,-37,-118,-119
2,509,33073,-6112,-14787,1473,-47,-146,-144
2,510,33078,-6071,-14832,1432,-56,-181,-166
2,511,33083,-6146,-14940,1419,-66,-198,-187
2,512,33088,-6045,-14991,1255,-72,-197,-207
2,513,33093,-5978,-14990,1144,-84,-169,-232
2,514,33098,-5854,-15005,1224,-91,-136,-259
2,515,33103,-5908,-15059,1108,-99,-137,-281
2,516,33108,-5808,-15137,1024,-109,-146,-300
2,517,33113,-5752,-15180,1029,-120,-147,-322
2,518,33118,-5742,-15345,1023,-130,-126,-348
2,519,33123,-5663,-15465,995,-134,-101,-374
2,520,33128,-5558,-15556,785,-140,-95,-393
2,521,33133,-5560,-15613,936,-153,-88,-419
2,522,33138,-5453,-15639,811,-161,-103,-441
2,523,33143,-5403,-15722,910,-167,-110,-462
2,524,33148,-5290,-15825,840,-174,-117,-481
2,525,33153,-5284,-15911,782,-180,-127,-503
2,526,33158,-5250,-16038,691,-185,-139,-524
2,527,33163,-5229,-16159,685,-191,-147,-545
2,528,33168,-5211,-16074,668,-198,-159,-568
2,529,33173,-5197,-16035,687,-207,-175,-589
2,530,33178,-5002,-16083,742,-216,-183,-605
2,531,33183,-4796,-16017,788,-223,-192,-626
2,532,33188,-4683,-15995,746,-229,-192,-647
2,533,33193,-4772,-15945,442,-237,-182,-666
2,534,33198,-4903,-16007,297,-244,-161,-685
2,535,33203,-4836,-15930,216,-253,-136,-709
2,536,33208,-4492,-15963,200,-258,-115,-720
2,537,33213,-4200,-16078,303,-267,-76,-737
2,538,33218,-4201,-16073,214,-272,-23,-762
2,539,33223,-4369,-16083,294,-279,38,-787
2,540,33228,-4382,-16077,197,-287,79,-802
2,541,33233,-4205,-16120,320,-294,113,-816
2,542,33238,-3988,-16110,552,-300,136,-834
2,543,33243,-3942,-16162,744,-306,140,-852
2,544,33248,-4081,-16240,779,-311,127,-865
2,545,33253,-4061,-16190,637,-317,109,-880
2,546,33258,-3940,-16151,693,-325,97,-889
2,547,33263,-3894,-16259,945,-329,81,-900
2,548,33268,-3936,-16165,796,-335,33,-920
2,549,33273,-3961,-16194,409,-335,-14,-924
2,550,33278,-4022,-16127,559,-344,-29,-942
2,551,33283,-3863,-16065,347,-352,-69,-951
2,552,33288,-3711,-16156,423,-362,-86,-960
2,553,33293,-3441,-16268,197,-366,-78,-974
2,554,33298,-3227,-16077,44,-375,-38,-994
2,555,33303,-3225,-16341,-203,-373,-6,-989
2,556,33308,-3421,-16188,-101,-384,46,-1017
2,557,33313,-3415,-16289,-5,-390,71,-1025
2,558,33318,-3091,-16286,-144,-393,85,-1032
2,559,33323,-2791,-16432,-319,-396,131,-1044
2,560,33328,-2871,-16460,26,-403,186,-1062
2,561,33333,-2978,-16536,177,-403,189,-1071
2,562,33338,-2864,-16460,44,-405,154,-1075
2,563,33343,-2649,-16479,-62,-408,136,-1073
2,564,33348,-2616,-16577,155,-414,152,-1084
2,565,33353,-2674,-16409,363,-415,144,-1102
2,566,33358,-2595,-16202,54,-414,95,-1101
2,567,33363,-2132,-16241,118,-418,80,-1104
2,568,33368,-2901,-16310,498,-421,76,-1116
2,569,33373,-2437,-16631,-711,-417,15,-1111
2,570,33378,-2309,-16296,-614,-422,1,-1116
2,571,33383,-2135,-16103,-49,-436,-38,-1118
2,572,33388,-2169,-16088,537,-436,-64,-1116
2,573,33393,-1846,-16210,-615,-425,-59,-1118
2,574,33398,-1575,-16241,-1387,-430,42,-1130
2,575,33403,-1592,-16177,-919,-443,143,-1144
2,576,33408,-1596,-16206,-133,-436,87,-1135
2,577,33413,-1201,-16337,-792,-434,106,-1135
2,578,33418,-1158,-16398,-910,-437,204,-1145
2,579,33423,-1274,-16424,-608,-443,265,-1148
2,580,33428,-1409,-16419,-71,-440,256,-1147
2,581,33433,-1216,-16349,-371,-435,191,-1140
2,582,33438,-1185,-16422,-184,-435,193,-1137
2,583,33443,-1181,-16369,-297,-442,202,-1143
2,584,33448,-1263,-16387,-224,-443,193,-1138
2,585,33453,-1143,-16461,-239,-436,166,-1134
2,586,33458,-1061,-16470,-402,-434,133,-1130
2,587,33463,-1004,-16577,-411,-433,125,-1124
2,588,33468,-982,-16459,-676,-435,129,-1128
2,589,33473,-934,-16518,-597,-438,150,-1123
2,590,33478,-796,-16472,-760,-433,147,-1116
2,591,33483,-814,-16572,-604,-434,165,-1115
2,592,33488,-714,-16516,-962,-436,165,-1112
2,593,33493,-627,-16624,-546,-434,203,-1110
2,594,33498,-506,-16548,-754,-431,198,-1108
2,595,33503,-504,-16531,-794,-428,190,-1098
2,596,33508,-364,-16745,-937,-428,200,-1089
2,597,33513,-709,-13313,-1360,-433,239,-1094
2,598,33518,14189,-28289,-19347,-363,230,-1085
2,599,33523,-18402,-26833,-10013,-225,2224,-1509
2,600,33528,-32768,-6219,32642,98,5201,-414
2,601,33533,-4988,-10856,-13921,728,3214,2035
2,602,33538,32767,-22095,-22655,620,5548,1467
2,603,33543,30839,-20472,19740,-42,8473,-872
2,604,33548,-19163,-13612,32767,-27,4804,-997
2,605,33553,-32768,-6608,29968,532,-7946,601
2,606,33558,-27214,-6992,-4794,690,-13825,2091
2,607,33563,23006,-24394,-32768,299,-8961,2298
2,608,33568,32767,-27936,-25335,149,1606,259
2,609,33573,5421,-15064,20940,-254,4908,-1271
2,610,33578,-32768,-7157,32767,185,-931,-157
2,611,33583,-25519,-14424,-19618,1024,-9345,1906
2,612,33588,4762,-19094,-32768,554,-5507,1620
2,613,33593,23469,-21134,-25160,132,2502,353
2,614,33598,15246,-18932,15731,-65,6211,-543
2,615,33603,-13738,-11023,32767,44,3410,-466
2,616,33608,-16722,-12425,-4788,647,-2899,888
2,617,33613,-1409,-20080,-32768,536,-2864,1327
2,618,33618,5950,-17715,-11747,186,2071,374
2,619,33623,9919,-16464,14239,98,4199,-61
2,620,33628,-301,-14729,29075,136,2880,23
2,621,33633,-5629,-14843,1563,474,-1210,624
2,622,33638,-3641,-18121,-18428,468,-2423,966
2,623,33643,-2810,-16807,-7490,186,-373,567
2,624,33648,533,-16015,8513,148,907,367
2,625,33653,2785,-16554,8924,247,516,420
2,626,33658,-432,-17686,-3158,366,-289,517
2,627,33663,-3934,-17784,-10553,335,-542,528
2,628,33668,-5688,-16650,-2922,226,-68,456
2,629,33673,-2716,-16077,5085,208,98,464
2,630,33678,1071,-17480,3168,252,-3,497
2,631,33683,1830,-17700,-3536,293,116,416
2,632,33688,-1751,-17099,-3987,259,406,391
2,633,33693,-5115,-16930,886,235,277,442
2,634,33698,-3735,-15760,3355,242,-177,443
2,635,33703,-622,-16676,1150,263,-332,501
2,636,33708,704,-17661,-2141,252,-21,459
2,637,33713,-1168,-17102,-1517,215,369,356
2,638,33718,-3663,-16364,972,206,271,361
2,639,33723,-3582,-16219,1550,224,-133,424
2,640,33728,-1448,-16582,-265,244,-314,452
2,641,33733,-99,-17013,-1536,224,-43,413
2,642,33738,-968,-17031,-491,195,287,362
2,643,33743,-2224,-16462,523,190,262,348
2,644,33748,-3020,-16578,504,199,9,385
2,645,33753,-2033,-16469,-606,211,-142,380
2,646,33758,-1176,-16447,-513,193,20,365
2,647,33763,-1270,-16724,208,178,202,360
2,648,33768,-1843,-16346,784,172,199,327
2,649,33773,-2212,-16293,-63,182,-93,359
2,650,33778,-1480,-16135,6,165,-62,338
2,651,33783,-1301,-16021,351,149,31,318
2,652,33788,-1819,-16112,433,149,68,312
2,653,33793,-2492,-16072,60,149,38,303
2,654,33798,-2462,-15968,-374,149,5,300
2,655,33803,-2034,-15973,-304,135,45,298
2,656,33808,-1756,-15997,290,120,136,280
2,657,33813,-1737,-16056,557,120,183,261
2,658,33818,-2079,-15964,455,117,166,253
2,659,33823,-2267,-15983,132,114,130,254
2,660,33828,-2182,-15816,248,101,128,242
2,661,33833,-2016,-15854,491,93,138,239
2,662,33838,-2008,-15929,642,89,136,225
2,663,33843,-2211,-16014,378,87,125,212
2,664,33848,-2440,-16032,100,78,116,203
2,665,33853,-2603,-16086,143,72,124,193
2,666,33858,-2562,-16052,607,64,130,182
2,667,33863,-2334,-16103,786,59,102,175
2,668,33868,-2231,-16180,701,55,67,165
2,669,33873,-2315,-16171,772,47,43,152
2,670,33878,-2428,-16137,647,44,2,145
2,671,33883,-2342,-16184,595,37,-43,142
2,672,33888,-2208,-16191,409,31,-82,133
2,673,33893,-2181,-16152,300,29,-93,120
2,674,33898,-2368,-16187,175,21,-82,109
2,675,33903,-2571,-16139,34,16,-57,99
2,676,33908,-2485,-16093,-99,10,-24,89
2,677,33913,-2327,-16048,-32,7,9,77
2,678,33918,-2239,-16064,148,3,33,63
2,679,33923,-2246,-15985,267,-3,50,50
2,680,33928,-2285,-15955,184,-6,65,42
2,681,33933,-2360,-16011,237,-9,78,33
2,682,33938,-2412,-15997,210,-13,84,27
2,683,33943,-2378,-15935,316,-17,89,18
2,684,33948,-2325,-15918,391,-24,77,5
2,685,33953,-2332,-15963,507,-27,67,-3
2,686,33958,-2312,-15969,489,-30,54,-12
2,687,33963,-2352,-15946,553,-34,46,-22
2,688,33968,-2325,-15976,446,-37,25,-24
2,689,33973,-2358,-15948,356,-42,-2,-32
2,690,33978,-2347,-16000,290,-42,-22,-37
2,691,33983,-2271,-15997,371,-46,-36,-47
2,692,33988,-2195,-16030,232,-51,-52,-55
2,693,33993,-2182,-16093,85,-55,-57,-63
2,694,33998,-2278,-16117,-41,-55,-50,-72
2,695,34003,-2309,-16093,-127,-56,-42,-79
2,696,34008,-2216,-16107,-58,-62,-30,-86
2,697,34013,-2003,-16096,19,-66,-13,-95
2,698,34018,-1870,-16126,109,-65,10,-96
2,699,34023,-1956,-16169,18,-69,40,-107
2,700,34028,-2032,-16197,-60,-71,66,-117
2,701,34033,-2054,-16219,37,-74,87,-121
2,702,34038,-2034,-16134,182,-79,104,-124
2,703,34043,-2034,-16155,309,-81,113,-130
2,704,34048,-1958,-16220,256,-82,118,-134
2,705,34053,-1960,-16198,255,-83,117,-137
2,706,34058,-2014,-16226,356,-84,109,-144
2,707,34063,-2054,-16233,423,-89,91,-146
2,708,34068,-2100,-16202,450,-92,72,-150
2,709,34073,-2229,-16147,261,-92,56,-153
2,710,34078,-2258,-16214,33,-92,44,-156
2,711,34083,-2239,-16246,54,-97,38,-160
2,712,34088,-2112,-16318,143,-101,31,-163
2,713,34093,-2031,-16372,209,-102,25,-169
2,714,34098,-1924,-16420,75,-102,27,-173
2,715,34103,-1959,-16413,-58,-106,47,-177
2,716,34108,-1977,-16424,-167,-104,56,-180
2,717,34113,-1893,-16397,-83,-106,61,-182
2,718,34118,-1805,-16350,-23,-109,69,-184
2,719,34123,-1795,-16415,-75,-108,84,-184
2,720,34128,-1960,-16406,-176,-106,97,-190
2,721,34133,-1996,-16372,-185,-106,103,-193
2,722,34138,-2097,-16340,120,-108,101,-195
2,723,34143,-1973,-16284,85,-108,99,-198
2,724,34148,-1903,-16372,137,-109,104,-199
2,725,34153,-1890,-16317,133,-108,84,-203
2,726,34158,-2012,-16295,49,-107,47,-202
2,727,34163,-2144,-16265,95,-108,21,-200
2,728,34168,-2109,-16246,167,-110,16,-203
2,729,34173,-1900,-16236,68,-107,4,-202
2,730,34178,-1797,-16332,7,-107,2,-202
2,731,34183,-1809,-16330,77,-108,-7,-209
2,732,34188,-1872,-16262,133,-109,-32,-208
2,733,34193,-1943,-16305,11,-107,-47,-203
2,734,34198,-1815,-16297,-193,-107,-43,-203
2,735,34203,-1645,-16258,-288,-109,-19,-202
2,736,34208,-1737,-16284,-112,-113,13,-206
2,737,34213,-1798,-16280,-161,-107,11,-208
2,738,34218,-1875,-16224,-260,-107,15,-206
2,739,34223,-1746,-16271,-431,-107,40,-203
2,740,34228,-1679,-16258,-400,-110,87,-207
2,741,34233,-1585,-16274,-132,-110,124,-210
2,742,34238,-1650,-16210,-121,-107,119,-212
2,743,34243,-1591,-16280,-293,-107,110,-204
2,744,34248,-1671,-16245,-175,-106,131,-210
2,745,34253,-1798,-16276,-226,-107,140,-208
2,746,34258,-1841,-16306,13,-105,142,-201
2,747,34263,-1804,-16359,-161,-103,129,-201
2,748,34268,-1747,-16346,43,-103,123,-203
2,749,34273,-1749,-16322,158,-103,96,-203
2,750,34278,-1802,-16359,64,-100,63,-197
2,751,34283,-1850,-16365,16,-98,40,-195
2,752,34288,-1864,-16410,-206,-101,37,-191
2,753,34293,-1828,-16367,-110,-99,48,-195
2,754,34298,-1752,-16389,-247,-97,45,-192
2,755,34303,-1709,-16318,-313,-95,40,-192
2,756,34308,-1656,-16331,-348,-97,42,-192
2,757,34313,-1639,-16273,-278,-97,57,-192
2,758,34318,-1540,-16233,-442,-93,71,-187
2,759,34323,-1490,-16301,-208,-93,105,-183
2,760,34328,-1469,-16249,-384,-93,103,-186
2,761,34333,-1479,-16349,-318,-89,114,-179
2,762,34338,-1486,-16306,-263,-91,127,-182
2,763,34343,-1518,-16287,-208,-92,134,-181
2,764,34348,-1555,-16329,-311,-90,138,-174
2,765,34353,-1505,-16421,-311,-84,148,-175
2,766,34358,-1536,-16288,-111,-85,149,-175
2,767,34363,-1568,-16259,-48,-82,127,-170
2,768,34368,-1582,-16288,21,-80,113,-164
2,769,34373,-1574,-16282,-137,-82,102,-165
2,770,34378,-1547,-16278,-23,-78,105,-162
2,771,34383,-1481,-16274,-85,-80,89,-160
2,772,34388,-1479,-16206,0,-80,71,-159
2,773,34393,-1450,-16146,-120,-73,40,-155
2,774,34398,-1399,-16153,-245,-75,23,-148
2,775,34403,-1345,-16140,-307,-76,23,-145
2,776,34408,-1375,-16135,-389,-75,26,-144
2,777,34413,-1297,-16194,-550,-75,43,-138
2,778,34418,-1290,-16185,-385,-73,83,-142
2,779,34423,-1217,-16180,-557,-70,90,-138
2,780,34428,-1191,-16276,-546,-70,104,-132
2,781,34433,-1173,-16265,-542,-69,116,-132
2,782,34438,-1132,-16185,-536,-68,125,-128
2,783,34443,-1150,-16352,-467,-66,143,-123
2,784,34448,-1213,-16341,-602,-61,159,-123
2,785,34453,-1192,-16397,-592,-60,162,-120
2,786,34458,-1184,-16378,-595,-58,156,-117
2,787,34463,-1165,-16463,-462,-56,142,-110
2,788,34468,-1210,-16429,-526,-52,130,-108
2,789,34473,-1332,-16546,-585,-50,131,-100
2,790,34478,-1353,-16551,-534,-48,136,-96
2,791,34483,-1295,-16485,-494,-45,130,-95
2,792,34488,-1271,-16586,-198,-41,123,-91
2,793,34493,-1136,-16498,-553,-37,87,-86
2,794,34498,-1192,-16542,-322,-36,88,-81
2,795,34503,-1372,-16533,-504,-33,107,-79
2,796,34508,-1330,-16492,-652,-35,125,-76
2,797,34513,-1293,-16439,-528,-32,147,-76
2,798,34518,-1188,-16435,-492,-31,158,-70
2,799,34523,-1189,-16388,-567,-29,166,-67
2,800,34528,-1275,-16386,-486,-30,189,-64
2,801,34533,-1301,-16457,-445,-31,212,-58
2,802,34538,-1245,-16423,-252,-26,228,-58
2,803,34543,-1210,-16397,-371,-27,219,-58
2,804,34548,-1271,-16466,-257,-24,211,-54
2,805,34553,-1264,-16358,-354,-19,182,-53
2,806,34558,-1387,-16412,-256,-20,166,-43
2,807,34563,-1365,-16372,-166,-20,147,-40
2,808,34568,-1438,-16335,-251,-18,130,-38
2,809,34573,-1509,-16347,-230,-15,114,-36
2,810,34578,-1467,-16390,42,-17,104,-30
2,811,34583,-1396,-16328,-48,-16,66,-30
2,812,34588,-1285,-16462,-91,-8,35,-18
2,813,34593,-1363,-16358,-188,-11,22,-18
2,814,34598,-1384,-16380,-279,-11,6,-14
2,815,34603,-1352,-16344,-469,-10,-12,-16
2,816,34608,-1418,-16432,-525,-12,3,-9
2,817,34613,-1486,-16393,-544,-14,34,-13
2,818,34618,-1519,-16417,-499,-11,62,-11
2,819,34623,-1481,-16459,-617,-10,82,-8
2,820,34628,-1392,-16460,-460,-9,116,-9
2,821,34633,-1370,-16445,-303,-9,137,-9
2,822,34638,-1374,-16431,-69,-6,137,-6
2,823,34643,-1308,-16451,-335,-5,114,3
2,824,34648,-1413,-16526,-276,-5,123,1
2,825,34653,-1415,-16446,-339,-5,121,-1
2,826,34658,-1440,-16458,-161,-8,118,7
2,827,34663,-1413,-16534,-225,-2,105,6
2,828,34668,-1343,-16541,-326,-3,97,7
2,829,34673,-1309,-16574,-366,-4,96,12
2,830,34678,-1448,-16550,-186,-3,95,16
2,831,34683,-1552,-16510,-86,-1,70,17
2,832,34688,-1539,-16517,-125,1,34,21
2,833,34693,-1568,-16529,-231,-1,10,25
2,834,34698,-1542,-16495,-169,2,-11,23
2,835,34703,-1537,-16507,-221,3,-29,28
2,836,34708,-1553,-16541,-391,4,-50,32
2,837,34713,-1574,-16559,-516,5,-48,31
2,838,34718,-1602,-16564,-549,5,-35,31
2,839,34723,-1579,-16549,-556,3,-17,31
2,840,34728,-1579,-16548,-554,3,5,29
2,841,34733,-1525,-16527,-537,7,29,28
2,842,34738,-1505,-16541,-463,9,56,26
2,843,34743,-1468,-16603,-411,6,74,26
2,844,34748,-1447,-16601,-431,7,75,32
2,845,34753,-1432,-16629,-373,7,70,31
2,846,34758,-1439,-16585,-381,9,62,31
2,847,34763,-1449,-16564,-389,11,51,35
2,848,34768,-1492,-16585,-436,14,37,34
2,849,34773,-1512,-16572,-435,15,24,35
2,850,34778,-1545,-16566,-483,18,15,37
2,851,34783,-1574,-16580,-494,18,8,38
2,852,34788,-1539,-16519,-436,18,-1,36
2,853,34793,-1445,-16495,-406,20,-9,38
2,854,34798,-1412,-16467,-360,21,-16,40
2,855,34803,-1371,-16439,-431,21,-20,41
2,856,34808,-1401,-16449,-494,23,-24,41
2,857,34813,-1424,-16420,-516,25,-23,43
2,858,34818,-1370,-16377,-487,25,-16,43
2,859,34823,-1307,-16359,-574,26,-8,42
2,860,34828,-1269,-16335,-596,27,0,41
2,861,34833,-1277,-16362,-585,26,12,44
2,862,34838,-1238,-16327,-636,25,23,43
2,863,34843,-1174,-16367,-694,26,32,43
2,864,34848,-1184,-16366,-678,27,49,43
2,865,34853,-1243,-16350,-574,28,63,43
2,866,34858,-1238,-16328,-554,27,62,44
2,867,34863,-1240,-16360,-595,28,64,46
2,868,34868,-1021,-16415,-414,31,81,47
2,869,34873,-1168,-16403,-431,31,61,47
2,870,34878,-1301,-16407,-458,33,45,46
2,871,34883,-1464,-16371,-542,35,49,47
2,872,34888,-1330,-16312,-437,33,63,48
2,873,34893,-1217,-16327,-195,29,66,49
2,874,34898,-1211,-16331,-118,31,51,47
2,875,34903,-1203,-16301,-165,31,20,44
2,876,34908,-1416,-16288,-269,32,-12,51
2,877,34913,-1433,-16321,-359,33,-34,52
2,878,34918,-1349,-16300,-366,30,-45,51
2,879,34923,-1265,-16300,-447,30,-52,51
2,880,34928,-1235,-16357,-668,32,-49,51
2,881,34933,-1335,-16341,-725,33,-35,49
2,882,34938,-1376,-16315,-724,32,-17,47
2,883,34943,-1260,-16365,-683,27,5,46
2,884,34948,-1159,-16333,-661,28,31,42
2,885,34953,-1137,-16335,-641,30,55,40
2,886,34958,-1192,-16341,-609,32,68,41
2,887,34963,-1210,-16338,-554,34,75,40
2,888,34968,-1134,-16337,-471,29,74,37
2,889,34973,-1151,-16363,-396,26,64,39
2,890,34978,-1200,-16428,-387,31,53,42
2,891,34983,-1232,-16424,-498,31,50,38
2,892,34988,-1303,-16445,-480,30,43,37
2,893,34993,-1361,-16427,-392,28,31,35
2,894,34998,-1348,-16468,-390,30,20,38
2,895,35003,-1296,-16362,-414,28,16,33
2,896,35008,-1361,-16396,-398,28,14,36
2,897,35013,-1388,-16451,-446,30,8,35
2,898,35018,-1430,-16392,-477,26,5,29
2,899,35023,-1363,-16421,-479,28,4,32
2,900,35028,-1280,-16426,-557,27,10,29
2,901,35033,-1229,-16410,-537,25,22,26
2,902,35038,-1258,-16451,-553,25,29,24
2,903,35043,-1256,-16430,-530,23,33,24
2,904,35048,-1230,-16425,-622,22,33,24
2,905,35053,-1249,-16444,-606,23,37,23
2,906,35058,-1256,-16460,-601,22,50,23
2,907,35063,-1235,-16423,-503,22,61,21
2,908,35068,-1176,-16460,-448,21,63,18
2,909,35073,-1210,-16479,-367,21,60,19
2,910,35078,-1214,-16447,-384,20,53,16
2,911,35083,-1244,-16425,-393,20,46,19
2,912,35088,-1224,-16383,-388,18,47,18
2,913,35093,-1269,-16388,-370,17,50,15
2,914,35098,-1344,-16353,-321,16,43,15
2,915,35103,-1482,-16351,-385,15,36,14
2,916,35108,-1520,-16350,-374,16,28,14
2,917,35113,-1445,-16368,-309,14,21,12
2,918,35118,-1319,-16391,-127,12,6,11
2,919,35123,-1261,-16440,-138,11,-24,12
2,920,35128,-1301,-16436,-308,12,-44,10
2,921,35133,-1337,-16419,-475,11,-56,9
2,922,35138,-1489,-16408,-626,11,-55,9
2,923,35143,-1485,-16351,-662,8,-44,6
2,924,35148,-1395,-16339,-655,7,-22,5
2,925,35153,-1314,-16380,-663,8,2,1
2,926,35158,-1250,-16389,-599,9,25,-5
2,927,35163,-1233,-16370,-474,6,40,-5
2,928,35168,-1274,-16396,-412,4,43,-3
2,929,35173,-1204,-16399,-397,3,38,-5
2,930,35178,-1138,-16428,-356,5,31,-3
2,931,35183,-1135,-16405,-273,0,26,-2
2,932,35188,-1252,-16389,-347,-1,20,-6
2,933,35193,-1309,-16386,-388,2,10,-3
2,934,35198,-1305,-16346,-502,0,8,-1
2,935,35203,-1326,-16349,-528,-2,16,-5
2,936,35208,-1389,-16365,-563,-1,27,-5
2,937,35213,-1453,-16438,-650,-2,35,-7
2,938,35218,-1468,-16510,-603,-1,41,-8
2,939,35223,-1457,-16487,-518,-3,46,-9
2,940,35228,-1466,-16445,-372,-6,46,-13
2,941,35233,-1406,-16428,-222,-5,18,-10
2,942,35238,-1292,-16422,-197,-6,-7,-9
2,943,35243,-1270,-16383,-158,-4,-30,-9
2,944,35248,-1295,-16350,-217,-5,-54,-10
2,945,35253,-1328,-16314,-307,-6,-69,-9
2,946,35258,-1388,-16327,-510,-6,-69,-13
2,947,35263,-1402,-16310,-641,-8,-55,-13
2,948,35268,-1351,-16342,-610,-11,-33,-14
2,949,35273,-1302,-16344,-584,-14,-11,-18
2,950,35278,-1318,-16359,-596,-12,5,-19
2,951,35283,-1340,-16358,-687,-11,18,-18
2,952,35288,-1319,-16351,-691,-10,29,-17
2,953,35293,-1326,-16411,-648,-13,43,-20
2,954,35298,-1290,-16444,-561,-15,46,-21
2,955,35303,-1254,-16487,-469,-12,48,-24
2,956,35308,-1230,-16406,-469,-10,45,-21
2,957,35313,-1276,-16408,-444,-10,35,-18
2,958,35318,-1306,-16424,-337,-12,21,-20
2,959,35323,-1323,-16383,-233,-11,1,-19
2,960,35328,-1346,-16411,-267,-11,-24,-16
2,961,35333,-1344,-16429,-292,-11,-35,-16
2,962,35338,-1317,-16384,-343,-14,-45,-17
2,963,35343,-1293,-16361,-319,-14,-53,-16
2,964,35348,-1371,-16371,-400,-12,-64,-15
2,965,35353,-1369,-16366,-524,-13,-68,-17
2,966,35358,-1424,-16388,-652,-14,-57,-20
2,967,35363,-1436,-16381,-769,-17,-41,-22
2,968,35368,-1476,-16353,-731,-14,-23,-21
2,969,35373,-1380,-16349,-675,-14,-1,-23
2,970,35378,-1378,-16386,-662,-14,18,-25
2,971,35383,-1327,-16391,-597,-14,35,-26
2,972,35388,-1293,-16390,-613,-14,44,-27
2,973,35393,-1286,-16400,-537,-13,50,-25
2,974,35398,-1235,-16416,-461,-12,52,-26
2,975,35403,-1275,-16415,-421,-12,53,-28
2,976,35408,-1213,-16448,-430,-13,50,-28
2,977,35413,-1199,-16421,-436,-14,46,-30
2,978,35418,-1243,-16390,-441,-12,38,-29
2,979,35423,-1270,-16405,-426,-13,24,-26
2,980,35428,-1329,-16434,-435,-11,10,-22
2,981,35433,-1304,-16464,-468,-12,-1,-25
2,982,35438,-1320,-16457,-512,-12,-7,-26
2,983,35443,-1364,-16414,-474,-14,-11,-23
2,984,35448,-1416,-16402,-461,-11,-19,-23
2,985,35453,-1433,-16425,-492,-13,-30,-23
2,986,35458,-1391,-16424,-493,-10,-36,-23
2,987,35463,-1317,-16423,-480,-10,-36,-26
2,988,35468,-1285,-16392,-472,-10,-35,-21
2,989,35473,-1331,-16396,-531,-12,-26,-22
2,990,35478,-1307,-16360,-587,-11,-10,-25
2,991,35483,-1298,-16339,-538,-12,6,-27
2,992,35488,-1251,-16328,-446,-12,22,-26
2,993,35493,-1159,-16336,-463,-14,34,-27
2,994,35498,-1162,-16358,-474,-16,43,-27
2,995,35503,-1219,-16319,-470,-15,46,-22
2,996,35508,-1246,-16373,-500,-17,48,-24
2,997,35513,-1295,-16404,-510,-16,51,-24
2,998,35518,-1328,-16405,-504,-16,53,-26
2,999,35523,-1346,-16420,-492,-16,54,-26
3,0,36758,-1278,-16266,-558,2,-11,-7
3,1,36763,-1222,-16279,-579,5,-9,-6
3,2,36768,-1200,-16299,-574,3,-3,-7
3,3,36773,-1283,-16257,-595,2,-3,-6
3,4,36778,-1317,-16279,-636,0,-3,-5
3,5,36783,-1272,-16294,-660,1,-4,-4
3,6,36788,-1313,-16319,-638,-1,0,-5
3,7,36793,-1308,-16379,-617,0,7,-7
3,8,36798,-1310,-16363,-598,1,8,-6
3,9,36803,-1289,-16366,-521,1,5,-6
3,10,36808,-1292,-16343,-462,1,-4,-3
3,11,36813,-1281,-16345,-505,0,-17,-5
3,12,36818,-1289,-16366,-561,1,-20,-4
3,13,36823,-1384,-16370,-628,0,-19,-5
3,14,36828,-1369,-16366,-648,2,-16,-4
3,15,36833,-1286,-16400,-659,1,-15,-2
3,16,36838,-1275,-16384,-592,-5,-12,-4
3,17,36843,-1223,-16359,-568,-2,-12,-3
3,18,36848,-1202,-16350,-578,-1,-17,-4
3,19,36853,-1264,-16343,-687,-1,-19,-2
3,20,36858,-1347,-16365,-749,-1,-17,-2
3,21,36863,-1374,-16382,-791,-1,-14,-2
3,22,36868,-1338,-16366,-782,0,-5,-1
3,23,36873,-1305,-16410,-710,1,3,-4
3,24,36878,-1284,-16398,-703,0,11,-6
3,25,36883,-1324,-16341,-702,-2,15,-4
3,26,36888,-1344,-16329,-676,-2,19,-2
3,27,36893,-1323,-16314,-650,-1,18,-2
3,28,36898,-1306,-16270,-573,0,19,-2
3,29,36903,-1278,-16310,-517,0,20,-1
3,30,36908,-1273,-16350,-560,0,18,-2
3,31,36913,-1275,-16314,-502,-1,19,-1
3,32,36918,-1258,-16301,-503,-3,10,-3
3,33,36923,-1299,-16341,-557,-3,-1,-3
3,34,36928,-1366,-16327,-573,-2,-5,-4
3,35,36933,-1414,-16330,-601,-2,-9,2
3,36,36938,-1431,-16363,-625,-3,-11,1
3,37,36943,-1407,-16400,-652,-1,-4,-2
3,38,36948,-1412,-16430,-611,0,1,0
3,39,36953,-1377,-16458,-554,-2,-2,-2
3,40,36958,-1399,-16418,-548,0,-10,-2
3,41,36963,-1404,-16427,-501,-2,-22,-4
3,42,36968,-1409,-16407,-532,-3,-34,1
3,43,36973,-1366,-16404,-651,-3,-41,-1
3,44,36978,-1366,-16454,-642,-4,-39,-2
3,45,36983,-1305,-16420,-628,-3,-32,0
3,46,36988,-1256,-16428,-646,-3,-27,-1
3,47,36993,-1335,-16442,-719,-4,-14,-2
3,48,36998,-1357,-16386,-737,-2,-4,-3
3,49,37003,-1358,-16366,-753,-5,4,-6
3,50,37008,-1357,-16398,-697,-7,11,-5
3,51,37013,-1291,-16369,-620,-6,14,-6
3,52,37018,-1228,-16361,-563,-5,14,-6
3,53,37023,-1227,-16385,-586,-5,12,-3
3,54,37028,-1252,-16370,-599,-5,10,-2
3,55,37033,-1316,-16363,-632,-4,-2,-1
3,56,37038,-1288,-16405,-668,-3,-11,-2
3,57,37043,-1391,-16407,-667,-1,-14,-2
3,58,37048,-1356,-16429,-698,-3,-12,-1
3,59,37053,-1352,-16452,-704,-5,-10,2
3,60,37058,-1317,-16442,-509,-6,-8,-1
3,61,37063,-1379,-16402,-567,-6,-26,-3
3,62,37068,-1313,-16442,-825,-2,-34,4
3,63,37073,-1358,-16433,-673,-3,-3,0
3,64,37078,-1473,-16431,-578,-8,7,-6
3,65,37083,-1369,-16431,-637,-8,-4,-1
3,66,37088,-1286,-16481,-632,-7,-9,1
3,67,37093,-1274,-16496,-577,-5,-5,-3
3,68,37098,-1336,-16441,-551,-6,1,-2
3,69,37103,-1392,-16475,-585,-9,8,0
3,70,37108,-1414,-16479,-623,-8,8,-3
3,71,37113,-1417,-16461,-725,-6,-1,-1
3,72,37118,-1371,-16461,-685,-4,-3,0
3,73,37123,-1344,-16430,-577,-6,-6,-2
3,74,37128,-1301,-16380,-579,-5,-11,-4
3,75,37133,-1327,-16426,-643,-5,-8,-1
3,76,37138,-1339,-16390,-624,-7,-3,0
3,77,37143,-1297,-16393,-596,-7,-3,-4
3,78,37148,-1325,-16373,-594,-6,-14,-2
3,79,37153,-1365,-16400,-626,-5,-22,1
3,80,37158,-1404,-16429,-710,-3,-23,0
3,81,37163,-1390,-16418,-748,-6,-22,-3
3,82,37168,-1296,-16409,-716,-7,-13,-2
3,83,37173,-1278,-16414,-649,-7,-9,-2
3,84,37178,-1290,-16374,-648,-4,-11,-2
3,85,37183,-1315,-16369,-709,-2,-13,-3
3,86,37188,-1337,-16377,-751,-2,-15,-2
3,87,37193,-1310,-16391,-733,-2,-9,-2
3,88,37198,-1287,-16389,-644,-5,0,-4
3,89,37203,-1224,-16416,-580,-4,2,-1
3,90,37208,-1199,-16425,-598,-4,7,0
3,91,37213,-1240,-16421,-616,-3,11,0
3,92,37218,-1285,-16371,-634,-4,11,-4
3,93,37223,-1319,-16384,-620,-3,6,-3
3,94,37228,-1362,-16381,-642,-1,-2,2
3,95,37233,-1357,-16363,-611,2,-4,0
3,96,37238,-1325,-16364,-682,0,0,-1
3,97,37243,-1397,-16364,-667,0,3,-1
3,98,37248,-1409,-16372,-632,1,2,-1
3,99,37253,-1354,-16336,-611,-1,-6,-1
3,100,37258,-1374,-16344,-569,-1,-12,-2
3,101,37263,-1298,-16371,-600,-1,-19,-3
3,102,37268,-1263,-16386,-558,1,-24,0
3,103,37273,-1320,-16392,-648,1,-20,-1
3,104,37278,-1354,-16389,-740,-1,-15,-2
3,105,37283,-1342,-16391,-749,1,-10,-3
3,106,37288,-1300,-16346,-707,1,-1,-1
3,107,37293,-1291,-16344,-668,1,-2,-2
3,108,37298,-1233,-16374,-639,1,-1,-2
3,109,37303,-1296,-16402,-683,1,1,-5
3,110,37308,-1320,-16391,-756,1,4,-5
3,111,37313,-1239,-16392,-713,3,5,-4
3,112,37318,-1223,-16353,-659,5,-2,0
3,113,37323,-1186,-16359,-625,1,-11,1
3,114,37328,-1196,-16395,-610,5,-15,-1
3,115,37333,-1244,-16341,-704,7,-18,0
3,116,37338,-1357,-16387,-743,4,-17,0
3,117,37343,-1364,-16413,-740,5,-10,0
3,118,37348,-1326,-16412,-712,7,-4,0
3,119,37353,-1276,-16409,-684,6,3,3
3,120,37358,-1319,-16353,-619,3,9,-2
3,121,37363,-1342,-16380,-580,2,9,-1
3,122,37368,-1371,-16376,-661,4,5,1
3,123,37373,-1414,-16376,-672,4,2,1
3,124,37378,-1416,-16365,-655,6,3,0
3,125,37383,-1420,-16349,-664,6,2,-2
3,126,37388,-1393,-16367,-720,5,2,-2
3,127,37393,-1383,-16388,-604,5,7,-3
3,128,37398,-1302,-16371,-553,6,2,-1
3,129,37403,-1335,-16362,-553,8,-4,-4
3,130,37408,-1358,-16411,-619,5,-8,-1
3,131,37413,-1403,-16375,-685,5,-16,-2
3,132,37418,-1409,-16361,-656,5,-10,-3
3,133,37423,-1409,-16361,-656,5,-10,-3
3,134,37428,-1365,-16363,-640,5,-19,-3
3,135,37433,-1313,-16357,-691,1,-17,-4
3,136,37438,-1300,-16375,-687,4,-16,-6
3,137,37443,-1326,-16330,-729,6,-19,-5
3,138,37448,-1344,-16337,-692,6,-20,-2
3,139,37453,-1305,-16343,-717,3,-16,-3
3,140,37458,-1320,-16380,-716,5,-10,-4
3,141,37463,-1303,-16361,-660,5,-8,-3
3,142,37468,-1288,-16348,-637,6,-7,-2
3,143,37473,-1286,-16335,-611,6,-9,-5
3,144,37478,-1260,-16303,-607,4,-9,-5
3,145,37483,-1264,-16301,-595,4,-9,-3
3,146,37488,-1232,-16339,-609,2,-13,0
3,147,37493,-1294,-16328,-589,0,-11,1
3,148,37498,-1313,-16343,-697,3,-5,-2
3,149,37503,-1333,-16401,-658,0,-1,-1
3,150,37508,-1310,-16435,-639,1,1,-1
3,151,37513,-1295,-16404,-547,1,-1,-2
3,152,37518,-1338,-16407,-741,2,-12,1
3,153,37523,-1373,-16459,-663,-1,1,-1
3,154,37528,-1438,-16455,-650,0,6,-3
3,155,37533,-1432,-16429,-579,-2,-1,-2
3,156,37538,-1383,-16463,-666,2,-13,0
3,157,37543,-1405,-16465,-665,3,-17,0
3,158,37548,-1390,-16443,-663,3,-18,1
3,159,37553,-1384,-16438,-642,0,-12,-1
3,160,37558,-1358,-16445,-651,-2,-13,-1
3,161,37563,-1291,-16446,-722,-4,-12,-2
3,162,37568,-1311,-16443,-696,-2,-11,-1
3,163,37573,-1323,-16446,-700,-2,-8,-5
3,164,37578,-1345,-16439,-770,-1,-3,-5
3,165,37583,-1324,-16417,-809,2,3,-1
3,166,37588,-1315,-16429,-787,-1,15,-1
3,167,37593,-1339,-16444,-743,-2,23,-5
3,168,37598,-1331,-16450,-706,-1,28,-4
3,169,37603,-1326,-16454,-683,-2,26,-4
3,170,37608,-1276,-16424,-648,-4,23,-1
3,171,37613,-1313,-16459,-616,-3,16,-2
3,172,37618,-1317,-16437,-556,-2,7,2
3,173,37623,-1377,-16431,-599,-5,-1,-2
3,174,37628,-1404,-16464,-663,-1,-5,-1
3,175,37633,-1398,-16463,-644,1,-7,0
3,176,37638,-1384,-16438,-653,-3,-12,-1
3,177,37643,-1421,-16409,-676,-2,-22,1
3,178,37648,-1461,-16402,-629,0,-24,1
3,179,37653,-1432,-16381,-606,-3,-19,0
3,180,37658,-1406,-16415,-604,-4,-17,1
3,181,37663,-1425,-16411,-606,-5,-17,0
3,182,37668,-1426,-16394,-630,-4,-20,2
3,183,37673,-1390,-16442,-629,-5,-24,0
3,184,37678,-1380,-16364,-637,-5,-26,-1
3,185,37683,-1334,-16338,-664,-4,-25,1
3,186,37688,-1360,-16337,-695,-6,-19,0
3,187,37693,-1366,-16365,-725,-6,-12,-3
3,188,37698,-1353,-16342,-724,-6,-5,-3
3,189,37703,-1355,-16359,-744,-5,4,0
3,190,37708,-1364,-16365,-745,-4,11,-1
3,191,37713,-1322,-16353,-717,-5,13,0
3,192,37718,-1314,-16390,-628,-7,15,-2
3,193,37723,-1355,-16340,-632,-8,16,-1
3,194,37728,-1424,-16353,-603,-5,13,3
3,195,37733,-1412,-16357,-615,-7,9,-1
3,196,37738,-1339,-16347,-597,-6,0,1
3,197,37743,-1284,-16347,-663,-3,-8,-1
3,198,37748,-1281,-16347,-674,-4,-13,-1
3,199,37753,-1356,-16366,-667,-5,-23,2
3,200,37758,-1409,-16397,-725,-5,-27,2
3,201,37763,-1462,-16382,-818,-2,-25,4
3,202,37768,-1369,-16363,-785,-7,-14,2
3,203,37773,-1286,-16376,-704,-5,0,3
3,204,37778,-1302,-16360,-627,-4,0,2
3,205,37783,-1302,-16360,-627,-4,0,2
3,206,37788,-1267,-16352,-713,-4,1,5
3,207,37793,-1333,-16342,-592,-4,-4,3
3,208,37798,-1321,-16329,-658,-3,-8,5
3,209,37803,-1286,-16351,-660,-3,-3,4
3,210,37808,-1324,-16362,-694,-4,4,2
3,211,37813,-1346,-16340,-690,-6,-1,4
3,212,37818,-1323,-16349,-679,-4,-5,4
3,213,37823,-1352,-16362,-696,-4,-5,7
3,214,37828,-1386,-16360,-765,-2,-6,5
3,215,37833,-1468,-16430,-694,-3,1,2
3,216,37838,-1452,-16434,-668,-5,5,3
3,217,37843,-1447,-16437,-619,-3,7,5
3,218,37848,-1360,-16417,-590,-3,8,4
3,219,37853,-1342,-16426,-555,-1,-2,3
3,220,37858,-1402,-16417,-567,2,-13,5
3,221,37863,-1448,-16420,-631,0,-18,7
3,222,37868,-1445,-16421,-727,-1,-24,5
3,223,37873,-1365,-16414,-750,0,-22,5
3,224,37878,-1387,-16402,-701,-2,-19,6
3,225,37883,-1390,-16422,-711,0,-20,2
3,226,37888,-1424,-16441,-733,3,-19,5
3,227,37893,-1461,-16415,-720,1,-15,4
3,228,37898,-1458,-16434,-756,-2,-10,4
3,229,37903,-1453,-16384,-695,-1,1,3
3,230,37908,-1445,-16390,-620,-2,5,-1
3,231,37913,-1371,-16397,-655,-1,6,3
3,232,37918,-1380,-16434,-679,-1,5,5
3,233,37923,-1386,-16408,-656,-4,1,3
3,234,37928,-1381,-16398,-601,-3,-4,3
3,235,37933,-1384,-16399,-655,2,-12,3
3,236,37938,-1384,-16401,-716,3,-15,1
3,237,37943,-1316,-16403,-742,3,-17,6
3,238,37948,-1314,-16392,-702,2,-19,6
3,239,37953,-1324,-16346,-679,5,-27,7
3,240,37958,-1369,-16361,-689,5,-29,5
3,241,37963,-1386,-16333,-767,6,-24,7
3,242,37968,-1395,-16318,-830,5,-15,8
3,243,37973,-1412,-16327,-812,3,0,5
3,244,37978,-1408,-16325,-668,4,10,2
3,245,37983,-1368,-16327,-596,5,12,4
3,246,37988,-1346,-16323,-575,4,12,2
3,247,37993,-1303,-16280,-526,5,7,2
3,248,37998,-1322,-16261,-530,7,-7,4
3,249,38003,-1321,-16249,-540,7,-21,7
3,250,38008,-1298,-16270,-574,7,-30,7
3,251,38013,-1307,-16312,-659,6,-31,7
3,252,38018,-1283,-16332,-699,7,-31,6
3,253,38023,-1355,-16309,-769,6,-23,6
3,254,38028,-1355,-16359,-813,5,-16,6
3,255,38033,-1375,-16366,-826,7,-9,7
3,256,38038,-1371,-16375,-808,7,1,6
3,257,38043,-1398,-16414,-841,8,10,4
3,258,38048,-1415,-16378,-763,7,13,6
3,259,38053,-1416,-16377,-698,6,15,6
3,260,38058,-1412,-16397,-667,9,11,3
3,261,38063,-1407,-16402,-624,9,2,4
3,262,38068,-1416,-16435,-591,7,-8,5
3,263,38073,-1400,-16457,-560,11,-21,4
3,264,38078,-1407,-16417,-588,10,-33,6
3,265,38083,-1390,-16398,-634,11,-42,7
3,266,38088,-1402,-16389,-672,10,-45,6
3,267,38093,-1404,-16356,-755,9,-41,4
3,268,38098,-1344,-16344,-703,8,-39,7
3,269,38103,-1331,-16328,-707,10,-37,2
3,270,38108,-1282,-16333,-677,11,-33,4
3,271,38113,-1283,-16320,-632,10,-29,4
3,272,38118,-1340,-16302,-859,11,-33,3
3,273,38123,-1322,-16317,-733,9,-18,3
3,274,38128,-1295,-16327,-754,10,-13,6
3,275,38133,-1281,-16299,-613,10,-7,6
3,276,38138,-1297,-16304,-698,10,-7,6
3,277,38143,-1356,-16353,-761,9,-3,3
3,278,38148,-1361,-16325,-687,10,-7,0
3,279,38153,-1344,-16309,-544,10,-4,5
3,280,38158,-1218,-16298,-475,8,-17,6
3,281,38163,-1226,-16313,-609,10,-25,6
3,282,38168,-1371,-16326,-633,8,-32,5
3,283,38173,-1436,-16287,-659,8,-38,5
3,284,38178,-1427,-16327,-616,8,-37,7
3,285,38183,-1338,-16387,-651,8,-27,7
3,286,38188,-1296,-16397,-670,8,-13,5
3,287,38193,-1336,-16432,-716,9,-5,5
3,288,38198,-1363,-16460,-753,8,-1,5
3,289,38203,-1393,-16494,-678,6,3,1
3,290,38208,-1404,-16470,-707,4,4,4
3,291,38213,-1390,-16456,-736,4,6,2
3,292,38218,-1361,-16470,-709,6,13,1
3,293,38223,-1394,-16476,-594,8,11,0
3,294,38228,-1423,-16471,-592,6,6,3
3,295,38233,-1437,-16509,-579,3,-1,1
3,296,38238,-1410,-16528,-627,8,-11,1
3,297,38243,-1460,-16507,-665,5,-10,1
3,298,38248,-1468,-16472,-633,5,-12,-1
3,299,38253,-1575,-16471,-623,6,-12,-2
3,300,38258,-1540,-16442,-643,4,-14,-4
3,301,38263,-1518,-16434,-616,4,-13,-3
3,302,38268,-1482,-16433,-553,6,-12,-4
3,303,38273,-1447,-16400,-594,6,-14,-8
3,304,38278,-1466,-16384,-590,5,-22,-9
3,305,38283,-1438,-16407,-621,3,-28,-8
3,306,38288,-1426,-16392,-657,2,-31,-6
3,307,38293,-1390,-16370,-704,2,-31,-6
3,308,38298,-1323,-16374,-679,0,-24,-7
3,309,38303,-1280,-16357,-703,1,-16,-9
3,310,38308,-1254,-16372,-657,0,-12,-7
3,311,38313,-1256,-16342,-654,1,-10,-7
3,312,38318,-1261,-16349,-699,2,-6,-9
3,313,38323,-1295,-16426,-707,1,-1,-8
3,314,38328,-1332,-16429,-736,-2,3,-7
3,315,38333,-1380,-16459,-725,0,6,-6
3,316,38338,-1415,-16469,-689,0,3,-7
3,317,38343,-1502,-16481,-647,1,-4,-6
3,318,38348,-1449,-16473,-612,3,-14,-5
3,319,38353,-1415,-16506,-604,2,-22,-6
3,320,38358,-1385,-16524,-599,2,-31,-5
3,321,38363,-1409,-16494,-592,1,-40,-6
3,322,38368,-1410,-16471,-599,-1,-51,-3
3,323,38373,-1438,-16449,-640,1,-54,-2
3,324,38378,-1414,-16442,-658,0,-52,-5
3,325,38383,-1375,-16413,-685,-1,-44,-3
3,326,38388,-1382,-16385,-753,-1,-33,-4
3,327,38393,-1401,-16434,-714,-2,-29,-4
3,328,38398,-1425,-16415,-710,-1,-22,-6
3,329,38403,-1410,-16401,-731,-1,-7,-5
3,330,38408,-1388,-16374,-743,-3,-1,-4
3,331,38413,-1362,-16389,-818,0,7,-6
3,332,38418,-1488,-16389,-715,0,18,-4
3,333,38423,-1465,-16472,-686,-6,23,-1
3,334,38428,-1436,-16404,-751,-3,16,-7
3,335,38433,-1385,-16363,-881,1,9,-7
3,336,38438,-1423,-16442,-754,0,25,-4
3,337,38443,-1418,-16366,-511,-3,31,-9
3,338,38448,-1317,-16355,-497,0,5,-6
3,339,38453,-1220,-16391,-730,0,-21,-1
3,340,38458,-1318,-16353,-720,-4,-14,-3
3,341,38463,-1367,-16224,-556,-4,-9,-6
3,342,38468,-1405,-16237,-482,0,-13,2
3,343,38473,-1331,-16257,-655,-2,-21,3
3,344,38478,-1259,-16233,-756,-1,-17,1
3,345,38483,-1307,-16261,-683,-2,-4,2
3,346,38488,-1349,-16210,-620,-3,-2,-1
3,347,38493,-1379,-16203,-690,-4,0,2
3,348,38498,-1421,-16239,-830,-3,14,3
3,349,38503,-1386,-16269,-765,-1,28,6
3,350,38508,-1390,-16297,-738,-4,36,1
3,351,38513,-1495,-16264,-632,-3,46,3
3,352,38518,-1556,-16252,-650,-2,43,1
3,353,38523,-1394,-16279,-686,0,12,7
3,354,38528,-1351,-16227,-588,-1,-2,10
3,355,38533,-1557,-16156,-464,0,-20,10
3,356,38538,-1915,-16037,-697,4,-52,17
3,357,38543,-2116,-16195,-741,10,-87,26
3,358,38548,-1608,-16252,-675,9,-131,36
3,359,38553,-569,-16189,-221,8,-176,47
3,360,38558,-7,-16088,-80,10,-247,54
3,361,38563,-293,-16281,-348,21,-334,61
3,362,38568,-917,-16312,-1096,25,-408,71
3,363,38573,-1190,-16277,-2212,25,-428,88
3,364,38578,-1153,-16456,-2445,24,-301,100
3,365,38583,-1221,-16524,-2493,25,-111,92
3,366,38588,-1407,-16557,-1954,32,57,85
3,367,38593,-1457,-16415,-2126,33,170,92
3,368,38598,-1787,-16329,-1517,34,310,96
3,369,38603,-1762,-16135,-994,33,397,94
3,370,38608,-1748,-16127,-258,29,448,110
3,371,38613,-1760,-16103,93,36,437,119
3,372,38618,-1932,-15972,300,35,392,128
3,373,38623,-2158,-15900,459,38,325,136
3,374,38628,-2472,-15859,450,35,236,153
3,375,38633,-2583,-15902,465,34,150,168
3,376,38638,-2440,-15854,339,37,72,179
3,377,38643,-2297,-15851,318,35,23,188
3,378,38648,-2469,-15851,359,33,-18,194
3,379,38653,-2734,-15873,203,35,-69,204
3,380,38658,-2714,-15856,-60,32,-126,217
3,381,38663,-2534,-15899,-248,32,-157,230
3,382,38668,-2514,-15919,-256,28,-158,233
3,383,38673,-2511,-15878,-312,28,-146,235
3,384,38678,-2565,-15880,-466,32,-113,243
3,385,38683,-2630,-15896,-577,31,-74,252
3,386,38688,-2529,-15837,-607,26,-41,258
3,387,38693,-2474,-15846,-583,24,-16,266
3,388,38698,-2533,-15900,-499,27,-2,275
3,389,38703,-2658,-15884,-467,28,10,281
3,390,38708,-2634,-15937,-457,32,24,289
3,391,38713,-2472,-15968,-410,31,24,297
3,392,38718,-2456,-16018,-262,35,14,305
3,393,38723,-2548,-15985,-173,34,-14,311
3,394,38728,-2695,-16010,-177,38,-52,325
3,395,38733,-2663,-16074,-278,42,-90,337
3,396,38738,-2521,-16079,-348,44,-109,344
3,397,38743,-2499,-16103,-322,43,-120,348
3,398,38748,-2704,-16180,-293,43,-130,355
3,399,38753,-2956,-16174,-413,47,-144,365
3,400,38758,-2971,-16170,-601,50,-150,369
3,401,38763,-2791,-16253,-665,48,-139,377
3,402,38768,-2657,-16263,-549,50,-120,382
3,403,38773,-2716,-16301,-456,53,-110,383
3,404,38778,-2881,-16399,-543,60,-105,388
3,405,38783,-2996,-16356,-728,60,-95,391
3,406,38788,-3001,-16356,-697,60,-73,398
3,407,38793,-2976,-16322,-495,63,-54,400
3,408,38798,-2893,-16305,-285,63,-45,404
3,409,38803,-2869,-16351,-204,67,-51,409
3,410,38808,-2959,-16340,-293,67,-65,412
3,411,38813,-3152,-16336,-231,69,-78,418
3,412,38818,-3239,-16392,-156,73,-107,422
3,413,38823,-3032,-16425,-56,75,-139,426
3,414,38828,-2797,-16434,-39,78,-165,430
3,415,38833,-2859,-16463,-88,81,-193,432
3,416,38838,-3094,-16482,-222,82,-220,435
3,417,38843,-3273,-16394,-404,84,-235,437
3,418,38848,-3291,-16414,-484,86,-230,439
3,419,38853,-3251,-16493,-521,89,-215,440
3,420,38858,-3213,-16478,-423,88,-188,436
3,421,38863,-3235,-16461,-314,93,-165,435
3,422,38868,-3298,-16428,-280,96,-152,435
3,423,38873,-3290,-16383,-279,94,-147,437
3,424,38878,-3277,-16430,-266,97,-145,439
3,425,38883,-3351,-16418,-212,99,-143,438
3,426,38888,-3260,-16480,-176,103,-163,444
3,427,38893,-2956,-16445,-88,103,-183,445
3,428,38898,-2850,-16417,94,104,-208,446
3,429,38903,-3042,-16417,54,108,-244,448
3,430,38908,-3325,-16439,-257,112,-276,450
3,431,38913,-3554,-16430,-665,116,-277,451
3,432,38918,-3489,-16476,-765,115,-241,450
3,433,38923,-3429,-16458,-454,115,-199,452
3,434,38928,-3433,-16404,-244,119,-167,444
3,435,38933,-3610,-16358,-254,121,-150,441
3,436,38938,-3666,-16307,-341,123,-132,441
3,437,38943,-3671,-16319,141,121,-103,438
3,438,38948,-3642,-16158,122,122,-135,436
3,439,38953,-3651,-16176,106,122,-158,441
3,440,38958,-3730,-16236,158,126,-139,440
3,441,38963,-3815,-16100,317,125,-123,432
3,442,38968,-3801,-16037,281,121,-143,431
3,443,38973,-3711,-16115,-25,122,-164,437
3,444,38978,-3653,-16132,-211,124,-157,433
3,445,38983,-3784,-16056,-331,124,-123,424
3,446,38988,-4128,-16073,-107,121,-79,424
3,447,38993,-4254,-16038,-269,124,-73,418
3,448,38998,-4122,-16032,-225,123,-55,418
3,449,39003,-3863,-16025,179,121,-30,417
3,450,39008,-3691,-15963,724,120,-39,407
3,451,39013,-3725,-15955,861,122,-102,407
3,452,39018,-3895,-16099,274,124,-176,417
3,453,39023,-4173,-16033,440,126,-201,407
3,454,39028,-4166,-16062,168,125,-243,405
3,455,39033,-4193,-16143,189,122,-264,411
3,456,39038,-4047,-16118,-10,127,-278,403
3,457,39043,-4130,-16086,-290,127,-272,398
3,458,39048,-4195,-16061,-2,126,-237,394
3,459,39053,-4189,-15987,15,127,-226,386
3,460,39058,-4075,-15992,-169,123,-226,382
3,461,39063,-4018,-15987,-243,125,-207,378
3,462,39068,-4072,-15864,-97,122,-183,369
3,463,39073,-4039,-15838,38,125,-161,366
3,464,39078,-4062,-15839,-98,126,-142,361
3,465,39083,-4113,-15820,-110,125,-105,353
3,466,39088,-4064,-15803,-152,123,-73,349
3,467,39093,-4133,-15759,93,122,-43,343
3,468,39098,-4242,-15790,57,126,-49,338
3,469,39103,-4353,-15804,302,122,-53,333
3,470,39108,-4120,-15855,365,118,-70,332
3,471,39113,-3787,-15826,684,120,-97,326
3,472,39118,-3806,-15802,913,120,-144,321
3,473,39123,-4032,-15850,541,122,-218,322
3,474,39128,-4238,-15825,224,126,-265,316
3,475,39133,-4286,-15912,-10,121,-284,315
3,476,39138,-4218,-15875,-83,118,-283,307
3,477,39143,-3966,-15904,-152,118,-268,299
3,478,39148,-4014,-15942,-82,117,-227,286
3,479,39153,-4113,-15859,79,114,-185,274
3,480,39158,-4275,-15863,24,111,-163,272
3,481,39163,-4194,-15785,-204,112,-151,264
3,482,39168,-4101,-15863,-36,106,-119,261
3,483,39173,-4115,-15808,99,107,-97,246
3,484,39178,-4224,-15794,250,105,-79,236
3,485,39183,-4310,-15805,85,103,-63,234
3,486,39188,-4321,-15807,98,102,-36,219
3,487,39193,-4260,-15865,-111,99,-15,210
3,488,39198,-4249,-15840,367,92,30,196
3,489,39203,-4137,-15823,162,91,23,184
3,490,39208,-4216,-15822,-28,90,48,174
3,491,39213,-4392,-15751,176,81,94,159
3,492,39218,-4593,-15875,119,75,104,149
3,493,39223,-4595,-15805,342,72,125,134
3,494,39228,-4454,-15721,271,69,129,126
3,495,39233,-4560,-15792,519,67,149,106
3,496,39238,-4715,-15758,569,63,137,90
3,497,39243,-4599,-15650,577,58,98,80
3,498,39248,-4568,-15720,571,53,64,75
3,499,39253,-4447,-15674,645,42,0,41
3,500,39258,-4541,-15628,465,42,-38,30
3,501,39263,-4471,-15707,115,37,-55,19
3,502,39268,-4412,-15609,205,28,-25,2
3,503,39273,-4257,-15600,61,24,-13,-18
3,504,39278,-4214,-15621,-68,24,-11,-30
3,505,39283,-4257,-15652,-128,20,-3,-43
3,506,39288,-4263,-15661,-338,12,14,-63
3,507,39293,-4234,-15652,-205,9,54,-76
3,508,39298,-4164,-15727,-221,3,95,-89
3,509,39303,-4032,-15689,-137,1,139,-105
3,510,39308,-4068,-15674,-255,0,171,-126
3,511,39313,-4196,-15773,-238,-7,195,-139
3,512,39318,-4207,-15822,-98,-11,218,-153
3,513,39323,-4214,-15713,-28,-20,236,-172
3,514,39328,-4182,-15793,302,-23,265,-186
3,515,39333,-4123,-15729,227,-23,270,-202
3,516,39338,-4192,-15875,135,-30,264,-212
3,517,39343,-4407,-15912,264,-35,239,-230
3,518,39348,-4570,-16029,335,-37,189,-238
3,519,39353,-4535,-16101,433,-43,148,-253
3,520,39358,-4318,-16165,447,-50,111,-269
3,521,39363,-4336,-16215,540,-56,75,-285
3,522,39368,-4393,-16182,474,-58,19,-299
3,523,39373,-4557,-16255,475,-59,-40,-311
3,524,39378,-4381,-16269,198,-61,-98,-322
3,525,39383,-4143,-16263,29,-67,-130,-333
3,526,39388,-4128,-16229,15,-73,-134,-350
3,527,39393,-4225,-16300,-122,-81,-129,-368
3,528,39398,-4286,-16337,-320,-86,-106,-384
3,529,39403,-4112,-16231,-492,-88,-72,-396
3,530,39408,-3929,-16279,-423,-94,-27,-409
3,531,39413,-3770,-16324,-319,-100,5,-425
3,532,39418,-3759,-16294,-259,-103,30,-444
3,533,39423,-3867,-16372,-224,-109,53,-453
3,534,39428,-3797,-16320,-237,-115,80,-469
3,535,39433,-3731,-16228,-98,-119,108,-483
3,536,39438,-3676,-16314,-32,-118,121,-490
3,537,39443,-3690,-16329,-24,-126,115,-502
3,538,39448,-3676,-16317,49,-128,100,-518
3,539,39453,-3708,-16301,-18,-132,86,-532
3,540,39458,-3707,-16300,69,-140,80,-540
3,541,39463,-3674,-16331,103,-142,65,-550
3,542,39468,-3563,-16286,-47,-146,40,-563
3,543,39473,-3483,-16315,5,-148,30,-573
3,544,39478,-3415,-16262,-172,-155,22,-583
3,545,39483,-3545,-16303,-6,-156,25,-598
3,546,39488,-3564,-16223,-37,-160,19,-610
3,547,39493,-3554,-16192,19,-164,22,-618
3,548,39498,-3319,-16177,-128,-169,16,-627
3,549,39503,-3205,-16168,-202,-170,13,-636
3,550,39508,-3116,-16189,-2,-175,14,-646
3,551,39513,-3094,-16151,-87,-179,-9,-655
3,552,39518,-3036,-16109,-284,-181,-18,-663
3,553,39523,-2918,-16119,-372,-185,1,-675
3,554,39528,-2896,-16109,-469,-191,32,-683
3,555,39533,-2890,-16168,-299,-196,55,-691
3,556,39538,-2848,-16116,-316,-195,56,-701
3,557,39543,-2738,-16121,-445,-199,63,-710
3,558,39548,-2582,-16156,-364,-200,89,-717
3,559,39553,-2387,-16152,-400,-205,99,-726
3,560,39558,-2344,-16175,-240,-207,106,-736
3,561,39563,-2535,-16231,-161,-209,103,-741
3,562,39568,-2552,-16149,-260,-210,89,-747
3,563,39573,-2493,-16126,-563,-209,87,-747
3,564,39578,-2391,-16220,-486,-211,107,-754
3,565,39583,-2292,-16076,-431,-216,89,-766
3,566,39588,-2320,-16075,-111,-219,65,-767
3,567,39593,-2164,-16094,-398,-217,28,-771
3,568,39598,-2073,-16045,-338,-218,45,-774
3,569,39603,-1964,-16146,-369,-223,70,-782
3,570,39608,-1906,-16042,-456,-225,67,-786
3,571,39613,-1938,-16107,-490,-224,57,-789
3,572,39618,-1866,-16125,-577,-228,83,-800
3,573,39623,-1793,-16205,-488,-234,106,-800
3,574,39628,-1756,-16146,-571,-235,115,-805
3,575,39633,-1499,-16161,-746,-233,124,-806
3,576,39638,-1542,-16188,-467,-237,155,-815
3,577,39643,-1633,-16092,-451,-235,131,-818
3,578,39648,-1671,-16124,-422,-238,113,-811
3,579,39653,-1656,-16061,-630,-239,113,-814
3,580,39658,-1590,-16172,-418,-240,130,-817
3,581,39663,-1415,-16052,-574,-244,120,-819
3,582,39668,-1482,-16114,-301,-243,125,-818
3,583,39673,-1488,-16003,-460,-241,86,-825
3,584,39678,-1492,-16074,-426,-246,63,-817
3,585,39683,-1314,-16130,-437,-244,56,-814
3,586,39688,-1220,-16140,-688,-247,46,-816
3,587,39693,-1186,-16272,-623,-246,45,-817
3,588,39698,-1191,-16248,-819,-249,34,-817
3,589,39703,-1118,-16211,-932,-248,25,-817
3,590,39708,-1003,-16442,-1138,-245,34,-810
3,591,39713,-960,-16349,-635,-252,78,-821
3,592,39718,-624,-16400,-1310,-251,64,-811
3,593,39723,-777,-16579,-927,-251,125,-810
3,594,39728,-888,-16466,-1247,-249,127,-820
3,595,39733,-950,-16484,-1029,-249,140,-810
3,596,39738,-548,-16577,-1136,-249,146,-802
3,597,39743,-642,-16474,-861,-250,185,-809
3,598,39748,-705,-16537,-928,-249,178,-806
3,599,39753,2051,-17119,-1572,-250,168,-795
3,600,39758,10034,-19112,6857,-336,76,-854
3,601,39763,-21278,-25536,32767,-416,-287,-1079
3,602,39768,-32768,-11443,19744,101,-4183,115
3,603,39773,-10495,-21120,-32768,561,-8785,2659
3,604,39778,32767,-19425,-32768,99,-1290,1104
3,605,39783,29742,-18407,-16072,-156,6503,-745
3,606,39788,-14424,-13250,32767,-434,6451,-893
3,607,39793,-32768,-8269,22390,207,-1605,390
3,608,39798,-8185,-17761,-29854,565,-4656,1601
3,609,39803,13311,-18953,-32768,47,1085,730
3,610,39808,22187,-18357,-4062,-192,5508,-137
3,611,39813,3724,-13574,32767,-328,5191,-511
3,612,39818,-14047,-10435,22740,138,-688,240
3,613,39823,-8711,-16656,-18198,480,-4551,1304
3,614,39828,-756,-18333,-25751,78,-1448,866
3,615,39833,2739,-15827,-2407,-118,2147,196
3,616,39838,4707,-15151,19447,-156,2092,84
3,617,39843,-1647,-14066,14432,56,-430,330
3,618,39848,-4004,-17194,-11659,257,-2491,766
3,619,39853,-4900,-17504,-14202,85,-1228,590
3,620,39858,-3860,-15025,-1225,-45,567,287
3,621,39863,997,-15368,7739,-48,709,347
3,622,39868,2837,-16765,3787,57,-104,434
3,623,39873,2,-17336,-5594,121,-609,412
3,624,39878,-4673,-16480,-5518,50,-277,349
3,625,39883,-5865,-15821,784,-5,91,359
3,626,39888,-1858,-16021,3119,12,8,394
3,627,39893,2095,-16619,-406,66,-136,393
3,628,39898,1028,-17556,-3004,62,-21,352
3,629,39903,-2780,-16408,-1001,28,84,268
3,630,39908,-4927,-15662,1673,27,-114,319
3,631,39913,-3038,-16317,417,57,-417,404
3,632,39918,305,-16638,-2188,67,-369,366
3,633,39923,721,-17037,-2027,47,-48,314
3,634,39928,-1614,-16770,24,37,70,280
3,635,39933,-3617,-16311,453,51,-156,292
3,636,39938,-3023,-16280,-1245,68,-378,322
3,637,39943,-1066,-16714,-2140,64,-284,326
3,638,39948,-54,-16899,-1184,50,-50,285
3,639,39953,-826,-16789,-47,51,13,255
3,640,39958,-2112,-16599,-301,69,-132,264
3,641,39963,-2517,-16570,-1256,78,-254,279
3,642,39968,-1720,-16551,-1532,73,-209,273
3,643,39973,-801,-16521,-1099,62,-83,257
3,644,39978,-857,-16634,-533,63,-25,246
3,645,39983,-2090,-16385,-889,85,-123,235
3,646,39988,-1862,-16345,-1110,82,-126,240
3,647,39993,-1237,-16342,-952,75,-74,232
3,648,39998,-1023,-16362,-544,73,-17,221
3,649,40003,-1331,-16336,-360,78,-21,213
3,650,40008,-1700,-16260,-640,85,-74,210
3,651,40013,-1738,-16164,-992,88,-104,209
3,652,40018,-1462,-16228,-1040,86,-90,209
3,653,40023,-1254,-16254,-776,82,-44,198
3,654,40028,-1326,-16254,-684,84,-10,185
3,655,40033,-1639,-16207,-805,89,-12,181
3,656,40038,-1866,-16183,-1009,88,-10,174
3,657,40043,-1763,-16246,-1042,88,17,168
3,658,40048,-1544,-16261,-709,85,65,159
3,659,40053,-1453,-16280,-391,82,90,148
3,660,40058,-1666,-16321,-318,86,86,144
3,661,40063,-1802,-16392,-455,88,61,139
3,662,40068,-1779,-16336,-467,88,44,134
3,663,40073,-1733,-16368,-260,83,29,129
3,664,40078,-1690,-16436,-155,83,0,124
3,665,40083,-1771,-16462,-349,84,-39,116
3,666,40088,-1920,-16537,-608,82,-65,108
3,667,40093,-2105,-16542,-720,83,-73,102
3,668,40098,-2142,-16510,-678,81,-73,95
3,669,40103,-1970,-16485,-721,81,-63,87
3,670,40108,-1879,-16526,-701,79,-40,76
3,671,40113,-1873,-16469,-676,76,-20,68
3,672,40118,-1913,-16450,-654,76,-7,58
3,673,40123,-1869,-16420,-616,76,-5,50
3,674,40128,-1856,-16406,-574,74,4,48
3,675,40133,-1849,-16402,-512,73,15,37
3,676,40138,-1788,-16383,-683,72,18,30
3,677,40143,-1870,-16332,-623,68,31,24
3,678,40148,-1871,-16317,-732,66,34,16
3,679,40153,-1856,-16348,-151,63,52,8
3,680,40158,-1783,-16250,-558,68,3,0
3,681,40163,-1730,-16358,-915,66,-25,4
3,682,40168,-1972,-16415,-761,60,20,-7
3,683,40173,-2022,-16374,-544,59,54,-16
3,684,40178,-1913,-16364,-452,59,51,-17
3,685,40183,-1823,-16449,-641,62,38,-23
3,686,40188,-1781,-16417,-659,58,28,-34
3,687,40193,-1874,-16377,-507,55,17,-38
3,688,40198,-1894,-16385,-450,53,12,-42
3,689,40203,-1860,-16310,-499,54,3,-47
3,690,40208,-1787,-16390,-616,52,1,-51
3,691,40213,-1838,-16412,-720,51,-1,-55
3,692,40218,-1934,-16376,-679,46,-4,-61
3,693,40223,-2005,-16301,-689,44,-14,-66
3,694,40228,-1981,-16306,-705,45,-18,-68
3,695,40233,-1879,-16286,-862,41,-7,-73
3,696,40238,-1862,-16300,-758,39,16,-84
3,697,40243,-1853,-16352,-728,39,28,-86
3,698,40248,-1777,-16282,-621,36,34,-89
3,699,40253,-1675,-16273,-619,33,39,-94
3,700,40258,-1728,-16252,-641,32,45,-97
3,701,40263,-1757,-16286,-720,28,41,-100
3,702,40268,-1725,-16280,-679,26,43,-98
3,703,40273,-1734,-16268,-460,22,47,-104
3,704,40278,-1736,-16284,-632,25,33,-107
3,705,40283,-1801,-16499,-695,22,46,-107
3,706,40288,-1932,-16463,-923,19,50,-115
3,707,40293,-2022,-16464,-526,16,58,-118
3,708,40298,-1921,-16398,-597,15,30,-121
3,709,40303,-1888,-16407,-567,17,6,-122
3,710,40308,-1776,-16443,-812,12,0,-124
3,711,40313,-1881,-16340,-531,10,20,-132
3,712,40318,-2042,-16290,-531,7,10,-133
3,713,40323,-2083,-16249,-682,6,-16,-133
3,714,40328,-2025,-16309,-808,9,-32,-133
3,715,40333,-1990,-16289,-615,2,-34,-138
3,716,40338,-1909,-16256,-438,-1,-47,-141
3,717,40343,-1998,-16258,-339,-3,-61,-139
3,718,40348,-1829,-16217,-614,-5,-67,-143
3,719,40353,-1784,-16195,-482,-8,-74,-143
3,720,40358,-1799,-16232,-379,-12,-101,-142
3,721,40363,-1675,-16209,-573,-10,-130,-140
3,722,40368,-1493,-16245,-764,-14,-126,-141
3,723,40373,-1532,-16207,-853,-18,-105,-146
3,724,40378,-1556,-16149,-856,-21,-87,-147
3,725,40383,-1565,-16188,-934,-20,-65,-143
3,726,40388,-1490,-16253,-861,-24,-23,-144
3,727,40393,-1407,-16218,-1039,-25,9,-147
3,728,40398,-1512,-16248,-1098,-28,51,-147
3,729,40403,-1682,-16312,-905,-31,101,-150
3,730,40408,-1782,-16272,-709,-34,130,-151
3,731,40413,-1774,-16281,-555,-37,129,-151
3,732,40418,-1669,-16330,-493,-39,119,-144
3,733,40423,-1699,-16265,-228,-39,106,-144
3,734,40428,-1764,-16279,38,-42,62,-143
3,735,40433,-1805,-16198,-169,-43,-10,-138
3,736,40438,-1826,-16262,-274,-44,-42,-128
3,737,40443,-2000,-16290,-318,-49,-46,-127
3,738,40448,-1971,-16267,-342,-49,-83,-132
3,739,40453,-1724,-16263,-408,-56,-126,-122
3,740,40458,-1594,-16289,-327,-58,-143,-118
3,741,40463,-1595,-16291,-556,-55,-171,-117
3,742,40468,-1626,-16341,-773,-57,-166,-110
3,743,40473,-1674,-16394,-1039,-63,-124,-106
3,744,40478,-1718,-16391,-1094,-63,-75,-108
3,745,40483,-1609,-16403,-1054,-65,-36,-104
3,746,40488,-1525,-16403,-1076,-67,9,-102
3,747,40493,-1533,-16387,-926,-68,65,-103
3,748,40498,-1692,-16354,-851,-71,110,-101
3,749,40503,-1707,-16368,-719,-73,146,-97
3,750,40508,-1549,-16375,-619,-71,158,-89
3,751,40513,-1383,-16326,-446,-72,150,-84
3,752,40518,-1520,-16195,-228,-73,124,-79
3,753,40523,-1727,-16271,-304,-75,86,-66
3,754,40528,-1874,-16229,-286,-76,61,-63
3,755,40533,-1894,-16191,-203,-76,28,-55
3,756,40538,-1914,-16090,-259,-74,-12,-50
3,757,40543,-1815,-16152,-206,-75,-42,-39
3,758,40548,-1779,-16166,-198,-78,-66,-35
3,759,40553,-1699,-16106,-257,-77,-90,-28
3,760,40558,-1773,-16072,-587,-78,-115,-18
3,761,40563,-1859,-16083,-762,-77,-114,-16
3,762,40568,-1867,-16036,-930,-81,-104,-10
3,763,40573,-1689,-15956,-1108,-84,-75,-5
3,764,40578,-1641,-15926,-967,-81,-21,-1
3,765,40583,-1699,-16031,-989,-78,18,2
3,766,40588,-1696,-16075,-952,-79,63,6
3,767,40593,-1685,-16030,-1095,-82,94,10
3,768,40598,-1730,-16059,-982,-81,127,14
3,769,40603,-1764,-16154,-910,-79,163,20
3,770,40608,-1808,-16240,-644,-80,187,16
3,771,40613,-1773,-16271,-708,-76,173,24
3,772,40618,-1677,-16260,-591,-77,179,38
3,773,40623,-1824,-16203,-177,-74,183,36
3,774,40628,-1896,-16127,-140,-71,134,40
3,775,40633,-1900,-16195,-301,-70,80,52
3,776,40638,-1833,-16186,-554,-71,46,61
3,777,40643,-1816,-16191,-370,-71,45,64
3,778,40648,-1859,-16141,-219,-69,21,59
3,779,40653,-1754,-16215,-311,-66,-29,76
3,780,40658,-1592,-16208,-548,-65,-60,82
3,781,40663,-1714,-16215,-585,-64,-60,79
3,782,40668,-1855,-16145,-742,-62,-69,83
3,783,40673,-1922,-16194,-836,-61,-71,91
3,784,40678,-1869,-16234,-872,-61,-60,91
3,785,40683,-1633,-16194,-1037,-58,-44,92
3,786,40688,-1658,-16292,-816,-60,6,94
3,787,40693,-1614,-16312,-674,-60,36,92
3,788,40698,-1686,-16325,-542,-57,56,96
3,789,40703,-1680,-16383,-701,-53,52,96
3,790,40708,-1705,-16461,-857,-53,51,102
3,791,40713,-1976,-16445,-766,-48,63,104
3,792,40718,-1987,-16499,-848,-44,59,112
3,793,40723,-2001,-16560,-866,-41,87,110
3,794,40728,-1975,-16554,-757,-42,123,107
3,795,40733,-1933,-16522,-638,-38,130,107
3,796,40738,-1966,-16508,-505,-38,113,109
3,797,40743,-2027,-16528,-551,-36,77,107
3,798,40748,-2027,-16534,-486,-33,45,112
3,799,40753,-2065,-16506,-462,-32,25,111
3,800,40758,-2052,-16504,-417,-31,8,113
3,801,40763,-2014,-16449,-591,-28,-9,115
3,802,40768,-1967,-16525,-454,-25,-1,114
3,803,40773,-1995,-16448,-420,-24,-16,113
3,804,40778,-1997,-16371,-599,-23,-43,112
3,805,40783,-1878,-16442,-887,-20,-54,115
3,806,40788,-1876,-16422,-848,-20,-35,111
3,807,40793,-1811,-16306,-967,-19,-20,111
3,808,40798,-1782,-16411,-929,-18,14,116
3,809,40803,-1743,-16394,-1164,-17,57,107
3,810,40808,-1852,-16425,-1042,-15,103,105
3,811,40813,-1855,-16445,-1078,-12,129,106
3,812,40818,-1958,-16473,-721,-12,151,105
3,813,40823,-1869,-16463,-922,-9,138,104
3,814,40828,-1936,-16565,-767,-9,154,107
3,815,40833,-1936,-16604,-754,-5,164,106
3,816,40838,-1944,-16619,-581,-1,165,103
3,817,40843,-1988,-16623,-590,1,135,107
3,818,40848,-2043,-16569,-556,2,103,105
3,819,40853,-1973,-16517,-641,3,71,105
3,820,40858,-1978,-16500,-541,5,50,104
3,821,40863,-1993,-16475,-549,7,24,108
3,822,40868,-2037,-16505,-671,9,5,108
3,823,40873,-2047,-16462,-870,10,-6,107
3,824,40878,-2031,-16453,-855,12,-7,106
3,825,40883,-2045,-16424,-770,10,-10,103
3,826,40888,-1986,-16417,-798,14,-12,105
3,827,40893,-1982,-16438,-872,12,-7,103
3,828,40898,-2002,-16377,-958,15,4,104
3,829,40903,-2027,-16383,-947,17,19,101
3,830,40908,-2014,-16329,-938,20,33,97
3,831,40913,-2028,-16323,-875,18,51,99
3,832,40918,-2005,-16319,-846,20,63,97
3,833,40923,-1919,-16291,-785,22,65,97
3,834,40928,-1886,-16284,-750,19,64,94
3,835,40933,-1924,-16314,-747,19,60,94
3,836,40938,-2017,-16358,-720,23,51,94
3,837,40943,-2047,-16358,-724,27,34,93
3,838,40948,-2000,-16343,-771,27,21,94
3,839,40953,-2031,-16317,-781,28,13,93
3,840,40958,-2031,-16298,-772,27,7,89
3,841,40963,-2119,-16291,-684,28,-1,89
3,842,40968,-2096,-16253,-763,31,-12,87
3,843,40973,-2040,-16267,-812,29,-15,87
3,844,40978,-1979,-16295,-800,30,-22,89
3,845,40983,-1924,-16232,-739,31,-31,90
3,846,40988,-1971,-16223,-729,33,-47,89
3,847,40993,-1984,-16177,-819,34,-56,87
3,848,40998,-2036,-16229,-973,35,-55,84
3,849,41003,-2012,-16232,-1026,35,-45,85
3,850,41008,-2051,-16281,-1104,37,-32,84
3,851,41013,-2052,-16361,-1083,37,-7,86
3,852,41018,-2086,-16306,-762,36,18,80
3,853,41023,-2105,-16337,-1026,39,-5,77
3,854,41028,-2052,-16370,-1086,40,5,77
3,855,41033,-2198,-16411,-992,38,46,74
3,856,41038,-2250,-16350,-798,38,72,70
3,857,41043,-2186,-16367,-660,39,76,70
3,858,41048,-2190,-16388,-903,39,62,68
3,859,41053,-2170,-16386,-854,41,58,65
3,860,41058,-2275,-16340,-716,35,61,65
3,861,41063,-2310,-16346,-487,38,51,64
3,862,41068,-2252,-16383,-550,39,21,60
3,863,41073,-2206,-16374,-680,42,-6,61
3,864,41078,-2255,-16318,-516,41,-45,60
3,865,41083,-2324,-16326,-549,40,-67,58
3,866,41088,-2253,-16308,-787,41,-73,58
3,867,41093,-2242,-16292,-969,42,-63,54
3,868,41098,-2322,-16291,-966,41,-46,51
3,869,41103,-2348,-16267,-896,42,-34,47
3,870,41108,-2350,-16245,-820,39,-21,43
3,871,41113,-2246,-16255,-929,41,-14,40
3,872,41118,-2124,-16222,-779,39,6,41
3,873,41123,-2078,-16186,-806,40,12,39
3,874,41128,-2062,-16201,-750,38,10,35
3,875,41133,-2135,-16207,-716,38,8,33
3,876,41138,-2172,-16250,-865,40,-6,35
3,877,41143,-2164,-16268,-928,40,-8,36
3,878,41148,-2120,-16290,-927,40,-1,32
3,879,41153,-2166,-16264,-815,40,5,31
3,880,41158,-2166,-16246,-869,40,6,27
3,881,41163,-2283,-16344,-927,40,15,26
3,882,41168,-2241,-16321,-920,39,19,24
3,883,41173,-2321,-16382,-733,36,25,19
3,884,41178,-2302,-16367,-737,39,5,18
3,885,41183,-2279,-16372,-692,39,-6,18
3,886,41188,-2372,-16375,-599,38,0,17
3,887,41193,-2390,-16377,-652,36,-12,15
3,888,41198,-2345,-16306,-674,37,-22,13
3,889,41203,-2271,-16303,-671,38,-34,13
3,890,41208,-2220,-16259,-689,37,-46,9
3,891,41213,-2221,-16238,-704,32,-50,6
3,892,41218,-2316,-16248,-778,35,-49,7
3,893,41223,-2337,-16275,-946,35,-43,5
3,894,41228,-2242,-16263,-1053,32,-31,0
3,895,41233,-2237,-16284,-1029,33,-11,1
3,896,41238,-2256,-16259,-960,33,9,0
3,897,41243,-2288,-16258,-921,32,23,-3
3,898,41248,-2261,-16307,-864,31,37,-5
3,899,41253,-2242,-16319,-897,32,42,-7
3,900,41258,-2261,-16293,-841,30,43,-9
3,901,41263,-2261,-16301,-767,29,44,-12
3,902,41268,-2303,-16275,-687,28,42,-10
3,903,41273,-2262,-16257,-676,27,31,-10
3,904,41278,-2221,-16246,-651,26,23,-12
3,905,41283,-2243,-16215,-651,25,17,-17
3,906,41288,-2338,-16214,-669,25,2,-14
3,907,41293,-2342,-16188,-662,25,-7,-13
3,908,41298,-2376,-16187,-724,26,-19,-17
3,909,41303,-2306,-16222,-766,26,-25,-16
3,910,41308,-2253,-16208,-710,23,-19,-18
3,911,41313,-2270,-16205,-630,20,-12,-20
3,912,41318,-2311,-16169,-747,21,-11,-24
3,913,41323,-2339,-16200,-847,20,-5,-21
3,914,41328,-2313,-16238,-882,19,-4,-24
3,915,41333,-2294,-16229,-844,18,2,-25
3,916,41338,-2243,-16200,-779,18,8,-28
3,917,41343,-2183,-16161,-634,13,14,-25
3,918,41348,-2121,-16136,-659,11,14,-30
3,919,41353,-2135,-16113,-781,12,11,-32
3,920,41358,-2177,-16146,-787,12,12,-31
3,921,41363,-2218,-16160,-844,13,11,-31
3,922,41368,-2224,-16191,-794,9,10,-27
3,923,41373,-2202,-16174,-836,9,17,-32
3,924,41378,-2146,-16165,-797,9,25,-35
3,925,41383,-2205,-16176,-783,6,32,-35
3,926,41388,-2216,-16109,-682,7,34,-36
3,927,41393,-2186,-16154,-738,5,25,-33
3,928,41398,-2254,-16229,-873,5,21,-35
3,929,41403,-2274,-16278,-870,4,23,-34
3,930,41408,-2254,-16289,-823,2,26,-33
3,931,41413,-2252,-16299,-715,1,31,-35
3,932,41418,-2223,-16315,-699,2,25,-39
3,933,41423,-2182,-16282,-648,0,18,-38
3,934,41428,-2187,-16228,-751,0,13,-36
3,935,41433,-2251,-16255,-736,0,6,-35
3,936,41438,-2319,-16272,-819,-2,1,-36
3,937,41443,-2292,-16272,-864,-3,0,-39
3,938,41448,-2255,-16204,-787,-5,9,-40
3,939,41453,-2223,-16161,-692,-10,13,-43
3,940,41458,-2155,-16081,-725,-8,14,-43
3,941,41463,-2133,-16112,-784,-8,12,-43
3,942,41468,-2141,-16145,-834,-10,14,-41
3,943,41473,-2216,-16196,-863,-11,21,-43
3,944,41478,-2315,-16244,-862,-11,30,-44
3,945,41483,-2284,-16323,-858,-10,45,-45
3,946,41488,-2104,-16306,-679,-13,59,-47
3,947,41493,-2046,-16239,-595,-14,52,-45
3,948,41498,-2041,-16247,-576,-14,31,-45
3,949,41503,-2152,-16218,-699,-14,12,-44
3,950,41508,-2191,-16210,-803,-15,3,-42
3,951,41513,-2251,-16239,-854,-17,9,-41
3,952,41518,-2299,-16247,-846,-18,23,-45
3,953,41523,-2301,-16329,-857,-16,35,-45
3,954,41528,-2376,-16356,-921,-19,46,-47
3,955,41533,-2366,-16296,-814,-19,48,-48
3,956,41538,-2230,-16271,-663,-21,33,-48
3,957,41543,-2108,-16238,-557,-20,6,-43
3,958,41548,-2022,-16189,-604,-19,-17,-43
3,959,41553,-2072,-16196,-660,-22,-28,-42
3,960,41558,-2135,-16239,-785,-21,-24,-43
3,961,41563,-2203,-16246,-872,-22,-4,-41
3,962,41568,-2271,-16221,-971,-25,22,-41
3,963,41573,-2264,-16271,-1026,-24,48,-46
3,964,41578,-2231,-16280,-948,-26,64,-47
3,965,41583,-2123,-16254,-808,-27,69,-45
3,966,41588,-2027,-16218,-697,-25,70,-47
3,967,41593,-2071,-16228,-680,-25,67,-49
3,968,41598,-2218,-16201,-734,-28,59,-46
3,969,41603,-2270,-16232,-862,-27,57,-43
3,970,41608,-2289,-16202,-889,-28,56,-46
3,971,41613,-2244,-16218,-746,-28,57,-44
3,972,41618,-2195,-16184,-642,-28,54,-43
3,973,41623,-2111,-16191,-656,-29,52,-42
3,974,41628,-2138,-16244,-695,-30,44,-44
3,975,41633,-2223,-16267,-694,-28,37,-43
3,976,41638,-2307,-16223,-723,-31,26,-43
3,977,41643,-2344,-16259,-816,-33,22,-41
