event_id,seq,ts_ms,ax,ay,az,gx,gy,gz
24,0,889496,-2052,-15796,-3790,-8,26,15
24,1,889501,-2062,-15794,-3804,-8,25,13
24,2,889506,-2027,-15794,-3736,-7,31,13
24,3,889511,-2009,-15818,-3717,-3,32,10
24,4,889516,-1986,-15874,-3757,1,27,7
24,5,889521,-1949,-15919,-3741,-1,25,7
24,6,889526,-1889,-15918,-3718,-1,20,5
24,7,889531,-1941,-15939,-3675,1,14,-1
24,8,889536,-2027,-15961,-3658,4,12,-4
24,9,889541,-2023,-15965,-3628,3,8,-3
24,10,889546,-1993,-15973,-3614,8,9,-7
24,11,889551,-2036,-15992,-3620,10,11,-8
24,12,889556,-2036,-15992,-3634,9,11,-11
24,13,889561,-2003,-15974,-3594,9,10,-13
24,14,889566,-2004,-15971,-3572,11,12,-15
24,15,889571,-2020,-15970,-3545,7,10,-18
24,16,889576,-1986,-15922,-3564,9,7,-19
24,17,889581,-1965,-15928,-3514,13,2,-19
24,18,889586,-1912,-15968,-3568,12,-2,-22
24,19,889591,-1855,-15998,-3638,15,-3,-25
24,20,889596,-1921,-15980,-3655,16,0,-26
24,21,889601,-1919,-15954,-3651,16,-3,-27
24,22,889606,-1949,-15923,-3639,18,-4,-28
24,23,889611,-1941,-15877,-3601,22,0,-31
24,24,889616,-1961,-15813,-3587,19,0,-31
24,25,889621,-2031,-15827,-3532,18,-3,-34
24,26,889626,-1991,-15847,-3521,18,-10,-33
24,27,889631,-1925,-15888,-3493,18,-18,-35
24,28,889636,-1882,-15916,-3484,19,-23,-33
24,29,889641,-1888,-15879,-3438,21,-30,-33
24,30,889646,-1909,-15860,-3456,22,-39,-34
24,31,889651,-1967,-15877,-3424,22,-41,-36
24,32,889656,-1985,-15861,-3495,19,-39,-38
24,33,889661,-1933,-15846,-3582,19,-36,-36
24,34,889666,-1917,-15819,-3559,20,-32,-38
24,35,889671,-1951,-15827,-3607,21,-30,-38
24,36,889676,-1942,-15847,-3600,19,-24,-38
24,37,889681,-1891,-15859,-3581,20,-19,-40
24,38,889686,-1871,-15934,-3637,19,-19,-39
24,39,889691,-1854,-15950,-3599,20,-23,-40
24,40,889696,-1855,-15950,-3593,21,-25,-42
24,41,889701,-1848,-15970,-3576,22,-27,-38
24,42,889706,-1847,-15964,-3557,24,-27,-36
24,43,889711,-1895,-15999,-3583,21,-22,-38
24,44,889716,-1942,-16009,-3549,19,-19,-38
24,45,889721,-1976,-15974,-3527,19,-18,-37
24,46,889726,-1942,-15961,-3497,18,-14,-37
24,47,889731,-1942,-15983,-3478,15,-12,-37
24,48,889736,-1890,-15987,-3471,19,-9,-39
24,49,889741,-1868,-15941,-3467,16,-5,-36
24,50,889746,-1839,-15943,-3495,15,-4,-36
24,51,889751,-1802,-15987,-3480,15,-4,-35
24,52,889756,-1814,-15964,-3471,14,-6,-31
24,53,889761,-1757,-15987,-3516,12,-4,-30
24,54,889766,-1851,-15944,-3522,11,-2,-30
24,55,889771,-1838,-15923,-3483,10,-7,-31
24,56,889776,-1842,-15893,-3522,13,-10,-30
24,57,889781,-1827,-15938,-3532,12,-13,-28
24,58,889786,-1827,-15916,-3478,8,-14,-27
24,59,889791,-1854,-15944,-3493,8,-16,-26
24,60,889796,-1834,-15961,-3520,10,-15,-25
24,61,889801,-1847,-15965,-3508,8,-13,-24
24,62,889806,-1880,-15937,-3518,8,-9,-20
24,63,889811,-1927,-15899,-3501,6,-8,-21
24,64,889816,-1919,-15915,-3575,8,-15,-18
24,65,889821,-1910,-15896,-3647,7,-17,-19
24,66,889826,-1898,-15929,-3656,4,-15,-16
24,67,889831,-1842,-15919,-3615,7,-16,-14
24,68,889836,-1843,-15922,-3603,8,-21,-12
24,69,889841,-1860,-15915,-3652,5,-17,-11
24,70,889846,-1899,-15913,-3639,5,-7,-8
24,71,889851,-1882,-15953,-3550,6,-5,-9
24,72,889857,-1922,-15889,-3590,7,-3,-8
24,73,889861,-1921,-15839,-3604,5,2,-6
24,74,889866,-1966,-15851,-3583,4,0,-6
24,75,889871,-1960,-15890,-3524,7,-4,-4
24,76,889876,-1943,-15864,-3551,4,-12,-2
24,77,889881,-1945,-15834,-3568,6,-23,-1
24,78,889886,-1927,-15871,-3632,10,-29,1
24,79,889891,-1946,-15900,-3602,10,-31,5
24,80,889896,-1948,-15877,-3677,8,-33,3
24,81,889901,-1929,-15812,-3729,9,-34,5
24,82,889906,-1937,-15848,-3718,9,-28,6
24,83,889911,-1925,-15852,-3694,6,-21,7
24,84,889916,-1923,-15858,-3686,9,-23,11
24,85,889921,-1943,-15885,-3673,8,-19,9
24,86,889926,-2002,-15822,-3650,8,-12,11
24,87,889931,-2003,-15785,-3623,11,-7,12
24,88,889936,-2014,-15850,-3602,12,-2,15
24,89,889941,-1967,-15880,-3592,14,4,16
24,90,889946,-1974,-15825,-3634,13,8,16
24,91,889951,-1945,-15839,-3641,15,13,18
24,92,889956,-1946,-15812,-3678,13,16,17
24,93,889961,-1957,-15768,-3657,10,19,17
24,94,889966,-1962,-15812,-3612,14,19,19
24,95,889971,-1991,-15770,-3612,14,21,19
24,96,889976,-2014,-15788,-3604,10,23,21
24,97,889981,-2003,-15823,-3611,12,22,21
24,98,889986,-1989,-15922,-3628,9,22,23
24,99,889991,-1960,-15920,-3586,11,27,19
24,100,889996,-1984,-15880,-3530,12,26,19
24,101,890001,-2075,-15846,-3492,13,21,21
24,102,890006,-2047,-15835,-3589,14,18,20
24,103,890011,-2068,-15872,-3625,12,20,23
24,104,890016,-2052,-15841,-3600,13,16,23
24,105,890021,-2017,-15888,-3626,15,13,20
24,106,890026,-2034,-15843,-3634,13,5,21
24,107,890031,-2048,-15846,-3674,15,4,21
24,108,890037,-2028,-15835,-3652,13,3,23
24,109,890041,-1988,-15846,-3677,13,2,23
24,110,890046,-1962,-15879,-3704,14,11,21
24,111,890051,-1953,-15872,-3708,13,20,17
24,112,890056,-2019,-15835,-3751,12,28,17
24,113,890061,-2033,-15834,-3780,12,36,16
24,114,890066,-2007,-15843,-3675,13,47,13
24,115,890071,-2005,-15862,-3644,13,53,16
24,116,890076,-1942,-15807,-3617,14,51,14
24,117,890081,-1974,-15804,-3575,11,45,13
24,118,890086,-1974,-15819,-3555,11,38,15
24,119,890091,-1961,-15861,-3614,14,32,16
24,120,890096,-1910,-15852,-3578,14,29,16
24,121,890101,-1873,-15865,-3555,12,22,15
24,122,890106,-1843,-15850,-3636,11,18,14
24,123,890111,-1896,-15887,-3742,9,20,12
24,124,890116,-1903,-15858,-3715,10,23,10
24,125,890121,-1853,-15864,-3638,8,22,6
24,126,890126,-1882,-15882,-3674,8,21,8
24,127,890131,-1889,-15888,-3643,8,20,9
24,128,890136,-1916,-15883,-3560,6,21,6
24,129,890141,-1956,-15868,-3551,7,20,6
24,130,890146,-1966,-15851,-3496,4,12,6
24,131,890151,-1933,-15887,-3487,5,6,7
24,132,890156,-1933,-15885,-3509,1,3,6
24,133,890161,-1923,-15913,-3518,0,-2,5
24,134,890166,-1918,-15884,-3506,0,-10,4
24,135,890171,-1866,-15871,-3549,-2,-19,3
24,136,890176,-1822,-15915,-3528,-1,-24,5
24,137,890181,-1786,-15968,-3514,-1,-30,4
24,138,890186,-1784,-15936,-3541,-5,-32,4
24,139,890191,-1769,-15896,-3542,-6,-38,3
24,140,890196,-1808,-15912,-3590,-5,-39,2
24,141,890201,-1804,-15853,-3631,-7,-37,3
24,142,890206,-1792,-15851,-3660,-9,-31,5
24,143,890211,-1799,-15869,-3654,-8,-29,5
24,144,890216,-1779,-15863,-3685,-8,-29,5
24,145,890221,-1798,-15886,-3701,-12,-27,5
24,146,890226,-1778,-15859,-3695,-12,-26,5
24,147,890231,-1797,-15878,-3711,-13,-22,5
24,148,890236,-1820,-15917,-3713,-13,-20,6
24,149,890241,-1798,-15943,-3737,-13,-18,6
24,205,890521,-1943,-16024,-3438,9,-11,-6
24,206,890526,-1988,-15949,-3450,6,-6,-7
24,207,890531,-2027,-16007,-3490,4,-2,-7
24,208,890536,-1950,-16050,-3520,7,0,-3
24,209,890541,-1869,-16082,-3517,5,3,-4
24,210,890546,-1856,-16084,-3486,3,5,-5
24,211,890551,-1847,-16056,-3462,5,-2,-3
24,212,890556,-1868,-16058,-3511,4,-7,-1
24,213,890561,-1898,-16101,-3575,4,-7,-2
24,214,890566,-1914,-16080,-3552,2,-10,-1
24,215,890571,-1916,-16086,-3547,-1,-13,-1
24,216,890576,-1938,-16094,-3559,4,-13,1
24,217,890581,-1958,-16136,-3478,1,-8,0
24,218,890586,-1997,-16144,-3462,1,2,0
24,219,890591,-1940,-16135,-3468,1,9,-1
24,220,890596,-1895,-16107,-3403,-1,8,-2
24,221,890601,-1862,-16074,-3365,-2,2,0
24,222,890606,-1846,-16081,-3398,-2,-8,0
24,223,890611,-1853,-16030,-3419,-3,-16,0
24,224,890616,-1886,-15972,-3457,-3,-23,2
24,225,890621,-1857,-15951,-3540,-3,-25,3
24,226,890626,-1835,-15934,-3609,-3,-23,5
24,227,890631,-1839,-15940,-3611,-3,-23,2
24,228,890636,-1857,-15892,-3660,-3,-25,-1
24,229,890641,-1824,-15854,-3641,-2,-23,1
24,230,890646,-1858,-15894,-3620,-4,-19,2
24,231,890651,-1928,-15876,-3640,-3,-16,4
24,232,890656,-1956,-15847,-3630,-3,-16,3
24,233,890661,-1902,-15847,-3635,-3,-12,3
24,234,890666,-1904,-15857,-3644,-3,-7,4
24,235,890671,-1925,-15886,-3597,0,-5,4
24,236,890676,-1927,-15877,-3630,-1,-6,5
24,237,890681,-1860,-15865,-3619,-2,0,5
24,238,890686,-1872,-15875,-3602,-1,8,4
24,239,890691,-1909,-15891,-3562,-1,16,5
24,240,890696,-1837,-15881,-3584,-1,21,4
24,241,890701,-1882,-15864,-3583,-1,24,5
24,242,890706,-1937,-15814,-3525,0,25,5
24,243,890711,-1996,-15782,-3441,1,16,5
24,244,890716,-1996,-15763,-3512,3,6,6
24,260,890796,-1944,-15669,-3616,16,6,7
24,261,890801,-2001,-15698,-3570,18,8,3
24,262,890806,-2023,-15718,-3607,19,7,3
24,263,890811,-1956,-15725,-3638,18,5,6
24,264,890816,-1889,-15795,-3629,22,12,6
24,265,890821,-1893,-15813,-3587,24,16,4
24,266,890826,-1947,-15829,-3675,23,10,3
24,267,890831,-1960,-15824,-3701,24,2,1
24,268,890836,-2022,-15735,-3741,27,-3,-1
24,269,890841,-2100,-15723,-3805,27,-3,1
24,270,890846,-2089,-15753,-3762,26,-3,1
24,271,890851,-1969,-15793,-3778,29,-2,-1
24,272,890856,-1913,-15809,-3771,31,0,-1
24,273,890861,-1930,-15785,-3680,32,1,-4
24,274,890866,-1982,-15779,-3649,31,-2,-5
24,275,890871,-1945,-15798,-3688,32,-8,-3
24,276,890876,-1925,-15814,-3704,33,-8,-2
24,277,890881,-1902,-15838,-3661,36,-4,-3
24,278,890886,-1866,-15931,-3550,34,-2,-5
24,279,890891,-1888,-15890,-3564,34,-9,-4
24,280,890896,-1876,-15914,-3559,35,-9,-5
24,281,890901,-1865,-15919,-3622,33,-10,-6
24,282,890906,-1866,-15957,-3630,33,-11,-9
24,283,890911,-1882,-15998,-3619,35,-11,-7
24,284,890916,-1969,-16004,-3637,32,-4,-7
24,285,890921,-1934,-16000,-3677,32,2,-9
24,286,890926,-1874,-15987,-3651,34,17,-8
24,287,890931,-1879,-16009,-3602,33,31,-7
24,288,890936,-1896,-16028,-3596,31,41,-9
24,289,890941,-1845,-16019,-3615,31,48,-8
24,290,890946,-1796,-16016,-3542,28,50,-6
24,291,890951,-1812,-16026,-3498,26,48,-7
24,292,890956,-1842,-16015,-3468,27,40,-5
24,293,890961,-1839,-16024,-3533,26,31,-1
24,294,890966,-1844,-16017,-3493,24,25,-3
24,295,890971,-1856,-16000,-3439,24,20,-2
24,296,890976,-1816,-16009,-3461,23,17,1
24,297,890981,-1841,-15986,-3543,24,14,3
24,298,890986,-1823,-15992,-3543,22,12,3
24,299,890991,-1778,-15961,-3521,19,13,6
24,300,890996,-1836,-15950,-3448,18,8,6
24,301,891001,-1933,-16011,-3450,17,5,4
24,302,891006,-1989,-15958,-3556,18,4,9
24,303,891011,-1969,-15914,-3560,19,17,9
24,304,891016,-1991,-15891,-3516,15,25,7
24,305,891021,-2097,-15835,-3464,15,24,9
24,306,891026,-2079,-15836,-3493,13,25,11
24,307,891031,-2064,-15849,-3537,8,32,11
24,308,891036,-2082,-15829,-3418,10,39,11
24,309,891041,-2031,-15839,-3358,7,40,12
24,310,891046,-1937,-15860,-3351,7,33,13
24,311,891051,-1953,-15846,-3353,8,24,14
24,312,891056,-1920,-15879,-3308,5,21,14
24,313,891061,-2009,-15878,-3334,1,14,12
24,314,891066,-2036,-15879,-3324,0,6,12
24,315,891071,-2024,-15927,-3383,0,6,13
24,316,891076,-2030,-15896,-3446,-1,4,15
24,317,891081,-2059,-15885,-3388,-3,6,13
24,318,891086,-2078,-15970,-3442,-4,7,13
24,319,891091,-2027,-15950,-3443,-2,4,13
24,320,891096,-2016,-15953,-3492,-6,0,10
24,321,891101,-2006,-16022,-3494,-6,-1,12
24,322,891106,-2027,-16037,-3514,-3,-8,11
24,323,891111,-1989,-16045,-3569,-3,-15,7
24,324,891116,-2003,-16031,-3523,-5,-12,7
24,325,891121,-2009,-15990,-3546,-4,-14,7
24,326,891126,-2006,-16014,-3598,-2,-23,5
24,327,891131,-2018,-16017,-3644,-2,-29,5
24,328,891136,-2014,-16036,-3679,0,-30,4
24,329,891141,-2026,-15978,-3616,-2,-37,1
24,330,891146,-2045,-15933,-3666,-1,-44,0
24,331,891151,-2039,-15905,-3693,2,-41,-2
24,332,891156,-2040,-15923,-3684,3,-38,-4
24,333,891161,-2065,-15861,-3689,3,-38,-5
24,334,891166,-2086,-15839,-3714,4,-43,-6
24,335,891171,-2055,-15797,-3687,4,-44,-9
24,336,891176,-2121,-15803,-3714,4,-47,-13
24,337,891181,-2072,-15761,-3737,9,-52,-11
24,338,891186,-2049,-15757,-3760,7,-57,-17
24,339,891191,-2015,-15779,-3748,8,-65,-15
24,340,891196,-1975,-15760,-3789,9,-67,-12
24,341,891201,-1987,-15770,-3803,10,-69,-18
24,342,891206,-1974,-15754,-3886,9,-69,-19
24,343,891211,-1978,-15815,-3850,9,-64,-19
24,344,891216,-1960,-15843,-3835,10,-56,-20
24,345,891221,-1982,-15818,-3793,9,-42,-24
24,346,891226,-1949,-15800,-3850,9,-29,-23
24,347,891231,-1882,-15786,-3842,10,-21,-22
24,348,891236,-1926,-15784,-3775,10,-16,-24
24,349,891241,-1933,-15727,-3704,10,-19,-25
24,350,891246,-1988,-15668,-3710,8,-23,-24
24,351,891251,-1998,-15649,-3685,9,-26,-23
24,352,891256,-1959,-15650,-3685,9,-28,-24
24,353,891261,-1990,-15696,-3621,7,-29,-22
24,354,891266,-1986,-15674,-3570,4,-31,-24
24,355,891271,-2006,-15674,-3579,4,-29,-24
24,356,891276,-2063,-15703,-3587,3,-28,-23
24,357,891281,-2055,-15764,-3586,2,-25,-21
24,358,891286,-2012,-15841,-3620,1,-18,-21
24,359,891291,-2015,-15863,-3625,-2,-9,-25
24,360,891296,-2059,-15933,-3612,-5,-3,-25
24,361,891301,-2096,-15938,-3597,-7,4,-21
24,362,891306,-2080,-15978,-3577,-9,12,-23
24,363,891311,-2006,-15975,-3523,-11,19,-24
24,364,891316,-1973,-15928,-3536,-12,17,-21
24,365,891321,-1975,-15949,-3520,-12,7,-19
24,366,891326,-1943,-15987,-3568,-12,-8,-18
24,367,891331,-1925,-16045,-3596,-13,-16,-17
24,368,891336,-1877,-16063,-3589,-16,-21,-14
24,369,891341,-1923,-16059,-3626,-18,-25,-12
24,370,891346,-1920,-16105,-3631,-18,-19,-12
24,371,891351,-1937,-16127,-3619,-19,-12,-13
24,372,891356,-1954,-16088,-3565,-22,-4,-11
24,373,891361,-1950,-16080,-3513,-24,1,-11
24,374,891366,-1968,-16074,-3496,-24,8,-10
24,375,891371,-1950,-16079,-3471,-28,13,-7
24,376,891376,-1926,-16070,-3428,-28,11,-6
24,377,891381,-1933,-16060,-3352,-26,5,-7
24,378,891386,-1944,-16056,-3359,-26,-1,-4
24,379,891391,-1981,-16033,-3414,-31,-4,-2
24,380,891396,-1954,-15978,-3468,-33,-4,-2
24,381,891401,-1982,-15961,-3454,-32,-7,1
24,382,891406,-2010,-15969,-3445,-35,-14,2
24,383,891411,-1947,-15977,-3470,-36,-16,3
24,384,891416,-1909,-15959,-3493,-38,-20,4
24,385,891421,-1872,-15908,-3493,-37,-25,3
24,386,891426,-1861,-15900,-3569,-37,-25,5
24,387,891431,-1914,-15836,-3583,-37,-30,8
24,388,891436,-1964,-15833,-3622,-38,-28,7
24,389,891441,-1949,-15874,-3672,-38,-24,9
24,390,891446,-1919,-15900,-3696,-38,-17,9
24,391,891451,-1865,-15868,-3690,-36,-12,10
24,392,891456,-1871,-15804,-3692,-35,-6,11
24,393,891461,-1853,-15836,-3713,-35,3,12
24,394,891466,-1857,-15829,-3649,-35,7,9
24,395,891471,-1928,-15807,-3593,-33,7,11
24,396,891476,-1938,-15786,-3604,-33,4,11
24,397,891481,-1905,-15834,-3615,-34,8,12
24,398,891486,-1962,-15809,-3595,-31,10,13
24,399,891491,-1896,-15807,-3560,-31,7,14
24,400,891496,-1823,-15771,-3631,-30,-3,12
24,401,891501,-1891,-15782,-3603,-28,-6,11
24,402,891506,-1918,-15773,-3718,-27,-5,13
24,403,891511,-1941,-15776,-3763,-26,-1,10
24,404,891516,-1936,-15743,-3784,-23,3,10
24,405,891521,-1901,-15742,-3747,-21,9,10
24,406,891526,-1936,-15704,-3734,-19,18,8
24,407,891531,-1946,-15749,-3735,-20,27,7
24,408,891536,-1948,-15800,-3749,-17,30,8
24,409,891541,-1947,-15816,-3747,-15,34,10
24,410,891546,-1927,-15843,-3679,-13,39,9
24,411,891551,-1959,-15866,-3606,-10,38,5
24,412,891556,-1946,-15909,-3616,-8,34,4
24,413,891561,-1903,-15966,-3586,-10,31,4
24,414,891566,-1964,-15974,-3545,-7,26,5
24,415,891571,-1993,-16005,-3542,-5,21,5
24,416,891576,-1931,-15994,-3528,-4,16,6
24,417,891581,-1912,-15945,-3482,-3,11,4
24,418,891586,-2003,-15909,-3521,-3,5,3
24,419,891591,-2015,-15889,-3550,1,2,5
24,420,891596,-2020,-15881,-3524,-1,0,2
24,421,891601,-2041,-15864,-3602,-1,0,5
24,422,891606,-1979,-15879,-3619,1,3,6
24,423,891611,-1950,-15895,-3581,4,9,3
24,424,891616,-1941,-15884,-3539,4,5,3
24,425,891621,-1984,-15833,-3573,3,3,2
24,426,891626,-2036,-15872,-3552,3,0,3
24,427,891631,-2025,-15906,-3534,5,-1,3
24,428,891636,-1988,-15881,-3544,8,-6,5
24,429,891641,-2006,-15830,-3464,9,-14,3
24,430,891646,-2014,-15801,-3511,9,-21,3
24,431,891651,-2061,-15854,-3586,7,-28,2
24,432,891656,-2027,-15834,-3612,11,-31,4
24,433,891661,-1965,-15850,-3621,8,-28,5
24,434,891666,-2002,-15848,-3661,9,-25,4
24,435,891671,-2015,-15837,-3697,11,-19,3
24,436,891676,-1964,-15816,-3715,10,-10,2
24,437,891681,-1993,-15823,-3637,8,-4,1
24,438,891686,-2029,-15833,-3612,10,1,1
24,439,891691,-2026,-15843,-3609,12,2,1
24,440,891696,-2005,-15868,-3529,11,0,-1
24,441,891701,-1993,-15863,-3534,11,-2,0
24,442,891706,-1997,-15830,-3534,11,-4,-1
24,443,891711,-2101,-15830,-3491,10,-10,-3
24,444,891716,-2121,-15798,-3501,11,-18,-1
24,445,891721,-2055,-15803,-3489,12,-22,1
24,446,891726,-1995,-15788,-3555,10,-25,-1
24,447,891731,-1991,-15854,-3564,12,-22,-1
24,448,891736,-1978,-15878,-3577,10,-25,1
24,449,891741,-1970,-15867,-3566,5,-24,-2
24,450,891746,-1984,-15857,-3536,10,-17,-2
24,451,891751,-2022,-15855,-3555,10,-16,-4
24,452,891756,-2027,-15888,-3577,9,-14,-6
24,453,891761,-2010,-15881,-3533,7,-14,-7
24,454,891766,-1978,-15962,-3467,5,-9,-5
24,455,891771,-1985,-15946,-3432,6,-11,-7
24,456,891776,-2009,-15878,-3500,5,-19,-7
24,457,891781,-1948,-15889,-3540,8,-26,-6
24,458,891786,-1938,-15888,-3547,7,-28,-11
24,459,891791,-1983,-15841,-3590,7,-30,-13
24,460,891796,-1969,-15884,-3624,8,-32,-10
24,461,891801,-1960,-15857,-3718,8,-31,-10
24,462,891806,-1919,-15860,-3777,8,-23,-10
24,463,891811,-1892,-15837,-3728,6,-17,-13
24,464,891816,-1931,-15841,-3695,7,-15,-15
24,465,891821,-1933,-15864,-3660,7,-10,-11
24,466,891826,-1920,-15870,-3594,7,-9,-13
24,467,891831,-1954,-15920,-3537,8,-8,-14
24,468,891836,-1951,-15917,-3509,7,-9,-17
24,469,891841,-1931,-15927,-3493,7,-17,-16
24,470,891846,-1925,-15950,-3481,9,-24,-16
24,471,891851,-1992,-15952,-3427,7,-30,-18
24,472,891856,-2024,-15983,-3436,7,-36,-17
24,473,891861,-1991,-16009,-3482,7,-40,-17
24,474,891866,-1978,-16009,-3579,7,-40,-16
24,475,891871,-1950,-15994,-3568,9,-35,-15
24,476,891876,-1998,-15976,-3645,9,-36,-16
24,477,891881,-1969,-15963,-3686,9,-36,-16
24,478,891886,-1958,-15943,-3601,9,-34,-16
24,479,891891,-1915,-15917,-3601,10,-32,-15
24,480,891896,-1908,-15894,-3639,7,-35,-16
24,481,891901,-1912,-15924,-3604,9,-41,-15
24,482,891906,-1907,-15876,-3591,11,-37,-13
24,483,891911,-1941,-15821,-3602,11,-34,-16
24,484,891916,-1906,-15822,-3643,8,-38,-15
24,485,891921,-1922,-15840,-3641,6,-37,-11
24,486,891926,-1926,-15843,-3637,10,-33,-12
24,487,891931,-1916,-15850,-3612,11,-28,-9
24,488,891936,-1950,-15847,-3608,12,-21,-9
24,489,891941,-1959,-15821,-3629,11,-12,-9
24,490,891946,-1923,-15830,-3591,10,-11,-9
24,491,891951,-1905,-15899,-3531,10,-8,-8
24,492,891956,-1864,-15938,-3547,10,-11,-6
24,493,891961,-1817,-15922,-3598,13,-20,-5
24,494,891966,-1858,-15829,-3601,12,-22,-4
24,495,891971,-1891,-15862,-3646,9,-19,-5
24,496,891976,-1973,-15848,-3766,8,-19,-1
24,497,891981,-1939,-15818,-3728,10,-13,-1
24,498,891986,-1955,-15780,-3671,8,-8,1
24,499,891991,-1941,-15814,-3663,7,-5,1
24,500,891996,-1906,-15849,-3640,5,0,2
24,501,892001,-1947,-15863,-3685,8,2,5
24,502,892006,-1921,-15881,-3648,11,6,4
24,503,892011,-1942,-15864,-3643,10,4,4
24,504,892016,-1954,-15851,-3688,10,0,5
24,505,892021,-1982,-15856,-3646,9,1,4
24,506,892026,-1986,-15897,-3601,7,1,4
24,507,892031,-1992,-15873,-3626,4,3,4
24,508,892036,-1972,-15842,-3596,7,2,8
24,509,892041,-1909,-15849,-3661,10,0,7
24,510,892046,-1886,-15866,-3669,9,-6,6
24,511,892051,-1899,-15923,-3644,8,-8,8
24,512,892056,-1930,-15915,-3671,7,-16,7
24,513,892061,-1898,-15884,-3704,8,-22,6
24,514,892066,-1932,-15860,-3715,11,-20,8
24,515,892071,-1980,-15855,-3700,8,-17,9
24,516,892076,-1975,-15881,-3708,7,-15,8
24,517,892081,-1957,-15907,-3702,8,-13,7
24,518,892086,-1954,-15854,-3755,8,-8,7
24,519,892091,-1959,-15893,-3737,7,-4,7
24,520,892096,-1979,-15908,-3686,5,-4,3
24,521,892101,-2012,-15840,-3675,6,-6,5
24,522,892106,-2004,-15836,-3727,7,-6,3
24,523,892111,-2010,-15844,-3696,5,0,3
24,524,892116,-1966,-15850,-3600,7,8,2
24,525,892121,-1989,-15826,-3614,7,7,1
24,526,892126,-1998,-15786,-3613,6,6,-1
24,527,892131,-1946,-15819,-3690,7,11,0
24,528,892136,-1977,-15796,-3685,6,10,0
24,529,892141,-1967,-15796,-3618,5,11,0
24,530,892146,-1958,-15827,-3628,5,8,-4
24,531,892151,-1965,-15838,-3625,4,2,-3
24,532,892156,-1932,-15890,-3657,3,1,-2
24,533,892161,-1914,-15905,-3647,3,-1,-2
24,534,892166,-1921,-15921,-3616,1,-3,-7
24,535,892171,-1922,-15908,-3677,2,-8,-6
24,536,892176,-1888,-15910,-3761,3,-12,-4
24,537,892181,-1906,-15893,-3740,1,-11,-8
24,538,892186,-1964,-15883,-3740,3,-8,-7
24,539,892191,-1947,-15945,-3823,3,-6,-6
24,540,892196,-1963,-15951,-3798,0,1,-9
24,541,892201,-1938,-15910,-3765,1,11,-9
24,542,892206,-1962,-15922,-3729,3,16,-11
24,543,892211,-2006,-15932,-3686,3,18,-15
24,544,892216,-2018,-15936,-3713,1,19,-15
24,545,892221,-2000,-15904,-3662,2,19,-17
24,546,892226,-2002,-15940,-3618,0,14,-15
24,547,892231,-1990,-15949,-3610,0,10,-17
24,548,892236,-1993,-15921,-3645,0,5,-17
24,549,892241,-1991,-15953,-3620,4,1,-17
24,550,892246,-1982,-15898,-3554,-1,-1,-18
24,551,892251,-1985,-15915,-3592,1,-4,-17
24,552,892256,-1945,-15914,-3626,0,-5,-17
24,553,892261,-1980,-15894,-3608,0,-8,-17
24,554,892266,-2007,-15871,-3614,0,-12,-14
24,555,892271,-1928,-15909,-3670,1,-13,-16
24,556,892276,-1918,-15897,-3663,1,-15,-18
24,557,892281,-1936,-15902,-3652,-1,-20,-16
24,558,892286,-1998,-15906,-3657,-1,-23,-16
24,559,892291,-1975,-15918,-3702,0,-24,-16
24,560,892296,-1988,-15928,-3701,0,-25,-16
24,561,892301,-1952,-15943,-3682,-1,-25,-14
24,562,892306,-1877,-15959,-3704,-2,-25,-15
24,563,892311,-1906,-15938,-3711,-1,-25,-15
24,564,892316,-1923,-15923,-3708,0,-22,-15
24,565,892321,-1989,-15858,-3670,-1,-17,-17
24,566,892326,-1992,-15829,-3657,-1,-12,-16
24,567,892331,-1958,-15816,-3578,-4,-7,-13
24,568,892336,-1993,-15808,-3575,-3,-6,-15
24,569,892341,-1968,-15826,-3519,-1,-8,-12
24,570,892346,-1949,-15794,-3515,-4,-11,-10
24,571,892351,-1965,-15789,-3539,-2,-13,-10
24,572,892356,-2012,-15801,-3552,-4,-13,-9
24,573,892361,-2003,-15821,-3580,-4,-18,-9
24,574,892366,-1995,-15840,-3582,-6,-21,-11
24,575,892371,-1968,-15852,-3598,-7,-21,-10
24,576,892376,-1959,-15889,-3648,-8,-27,-10
24,577,892381,-1952,-15879,-3690,-9,-26,-11
24,578,892386,-1942,-15861,-3700,-7,-22,-9
24,579,892391,-1945,-15855,-3778,-7,-19,-8
24,580,892396,-1967,-15828,-3772,-9,-10,-10
24,581,892401,-1977,-15855,-3788,-7,-5,-11
24,582,892406,-1992,-15891,-3809,-11,2,-11
24,583,892411,-2047,-15815,-3773,-8,14,-10
24,584,892416,-2041,-15884,-3722,-9,22,-13
24,585,892421,-2019,-15903,-3630,-9,25,-13
24,586,892426,-2020,-15928,-3616,-9,25,-11
24,587,892431,-2017,-15926,-3630,-9,18,-10
24,588,892436,-2005,-15930,-3615,-8,13,-10
24,589,892441,-2051,-15907,-3607,-9,7,-11
24,590,892446,-2014,-15913,-3579,-8,-3,-9
24,591,892451,-1981,-15944,-3654,-10,-1,-11
24,592,892456,-1968,-15945,-3635,-8,3,-11
24,593,892461,-1999,-15960,-3610,-9,3,-11
24,594,892466,-2035,-15912,-3578,-10,4,-11
24,595,892471,-2036,-15898,-3543,-10,8,-10
24,596,892476,-2037,-15859,-3552,-10,11,-12
24,597,892481,-2010,-15873,-3554,-8,9,-13
24,598,892486,-2027,-15868,-3561,-9,4,-12
24,599,892491,-1991,-15863,-3530,-8,-4,-12
24,600,892496,-1930,-15870,-3563,-8,-14,-8
24,601,892501,-1998,-15857,-3578,-7,-14,-6
24,602,892506,-1978,-15873,-3656,-9,-17,-6
24,603,892511,-2004,-15892,-3693,-9,-17,-11
24,604,892516,-1965,-15916,-3709,-7,-14,-9
24,605,892521,-1940,-15924,-3752,-8,-10,-8
24,606,892526,-1968,-15913,-3733,-5,-8,-8
24,607,892531,-1945,-15854,-3675,-7,-11,-7
24,608,892536,-1974,-15843,-3612,-6,-10,-5
24,609,892541,-1940,-15867,-3587,-6,-13,-5
24,610,892546,-1910,-15894,-3566,-7,-13,-3
24,611,892551,-1899,-15852,-3534,-7,-14,-3
24,612,892556,-1919,-15880,-3553,-8,-21,-4
24,613,892561,-1939,-15869,-3560,-5,-16,-1
24,614,892566,-1916,-15841,-3605,-4,-10,-2
24,615,892571,-1893,-15819,-3572,-5,-4,-1
24,616,892576,-1910,-15836,-3579,-3,-2,1
24,617,892581,-1928,-15792,-3564,-3,6,0
24,618,892586,-1923,-15742,-3606,-4,9,0
24,619,892591,-1915,-15744,-3609,-3,9,2
24,620,892596,-1913,-15728,-3550,-5,10,2
24,621,892601,-1900,-15763,-3587,1,9,4
24,622,892606,-1827,-15778,-3621,1,3,6
24,623,892611,-1848,-15779,-3604,0,-1,6
24,624,892616,-1912,-15758,-3619,-1,-3,6
24,625,892621,-1879,-15811,-3608,0,-5,9
24,626,892626,-1856,-15846,-3647,1,-1,10
24,627,892631,-1872,-15910,-3598,0,6,9
24,628,892636,-1813,-15936,-3558,0,16,6
24,629,892641,-1862,-15933,-3516,2,22,7
24,630,892646,-1943,-15895,-3565,0,32,7
24,631,892651,-1938,-15923,-3632,4,39,6
24,632,892656,-1904,-15897,-3618,5,44,6
24,633,892661,-1892,-15915,-3557,5,44,5
24,634,892666,-1896,-15867,-3586,8,41,4
24,635,892671,-1927,-15868,-3597,7,35,2
24,636,892676,-1944,-15871,-3655,6,28,5
24,637,892681,-1859,-15878,-3603,7,20,6
24,638,892686,-1823,-15956,-3619,9,10,3
24,639,892691,-1881,-15969,-3599,10,-1,4
24,640,892696,-1950,-15967,-3669,9,-5,0
24,641,892701,-1966,-15907,-3693,14,-5,3
24,642,892706,-2003,-15935,-3661,13,-7,0
24,643,892711,-2015,-15992,-3686,14,-12,-2
24,644,892716,-1995,-15994,-3704,16,-14,-3
24,645,892721,-1984,-15988,-3699,14,-13,-4
24,646,892726,-1943,-16009,-3657,15,-15,-5
24,647,892731,-1881,-16030,-3665,18,-18,-3
24,648,892736,-1878,-16025,-3691,19,-19,-5
24,649,892741,-1916,-16030,-3674,18,-21,-8
24,650,892746,-1906,-15999,-3643,20,-20,-8
24,651,892751,-1916,-15984,-3671,20,-19,-8
24,652,892756,-1884,-15984,-3674,19,-15,-9
24,653,892761,-1912,-15974,-3654,17,-9,-10
24,654,892766,-1909,-15965,-3603,18,-8,-11
24,655,892771,-1940,-15941,-3598,21,-12,-11
24,656,892776,-1942,-15899,-3572,19,-15,-11
24,657,892781,-1919,-15868,-3543,21,-19,-10
24,658,892786,-1893,-15872,-3477,16,-24,-10
24,659,892791,-1923,-15933,-3457,18,-33,-9
24,660,892796,-1837,-15953,-3434,15,-37,-7
24,661,892801,-1884,-15944,-3475,13,-34,-8
24,662,892806,-1929,-15890,-3548,13,-29,-10
24,663,892811,-1943,-15878,-3537,14,-26,-9
24,664,892816,-1952,-15856,-3530,10,-18,-9
24,665,892821,-1903,-15845,-3504,10,-11,-8
24,666,892826,-1871,-15850,-3504,7,1,-8
24,667,892831,-1880,-15868,-3511,8,4,-7
24,668,892836,-1892,-15876,-3465,7,6,-9
24,669,892841,-1907,-15879,-3393,4,5,-9
24,670,892846,-1925,-15871,-3395,4,1,-6
24,671,892851,-1915,-15901,-3451,3,-5,-5
24,672,892856,-1923,-15949,-3493,0,-10,-4
24,673,892861,-1894,-15948,-3480,0,-15,-4
24,674,892866,-1841,-15914,-3518,2,-21,-7
24,675,892871,-1885,-15890,-3602,2,-32,-3
24,676,892876,-1917,-15823,-3656,-2,-36,0
24,677,892881,-1899,-15869,-3651,-1,-33,-1
24,678,892886,-1861,-15921,-3635,0,-29,1
24,679,892891,-1837,-15925,-3642,-2,-20,0
24,680,892896,-1856,-15908,-3703,-1,-15,0
24,681,892901,-1898,-15847,-3679,-1,-12,-2
24,682,892906,-1849,-15816,-3642,1,-5,1
24,683,892911,-1819,-15847,-3637,-1,-3,1
24,684,892916,-1838,-15857,-3665,-2,0,1
24,685,892921,-1818,-15867,-3701,-2,1,0
24,686,892926,-1779,-15837,-3647,2,2,2
24,687,892931,-1766,-15865,-3636,3,5,1
24,688,892936,-1735,-15835,-3608,2,6,-1
24,689,892941,-1693,-15846,-3599,2,4,2
24,690,892946,-1752,-15857,-3608,3,8,2
24,691,892951,-1757,-15779,-3600,1,11,-1
24,692,892956,-1740,-15800,-3616,1,11,1
24,693,892961,-1776,-15805,-3597,1,9,2
24,694,892966,-1784,-15829,-3657,3,6,1
24,695,892971,-1752,-15883,-3631,3,6,2
24,696,892976,-1763,-15909,-3556,5,7,2
24,697,892981,-1720,-15912,-3595,6,4,4
24,698,892986,-1729,-15923,-3614,5,2,2
24,699,892991,-1692,-15979,-3652,5,2,0
24,700,892996,-1703,-15994,-3691,5,4,1
24,701,893001,-1684,-16030,-3634,2,6,0
24,702,893006,-1760,-16039,-3625,8,7,2
24,703,893011,-1771,-15993,-3719,11,8,0
24,704,893016,-1744,-15962,-3779,12,8,-3
24,705,893021,-1777,-15958,-3761,11,15,-1
24,706,893026,-1889,-16023,-3733,11,16,-3
24,707,893031,-1912,-16005,-3715,13,16,-1
24,708,893036,-2007,-15986,-3733,12,17,-6
24,709,893041,-2080,-15955,-3753,12,18,-8
24,710,893046,-2098,-15931,-3729,12,19,-11
24,711,893051,-2141,-15905,-3665,15,14,-10
24,712,893056,-2174,-15917,-3669,14,14,-12
24,713,893061,-2193,-15893,-3696,14,14,-17
24,714,893066,-2217,-15861,-3692,14,15,-23
24,715,893071,-2231,-15853,-3670,14,20,-24
24,716,893076,-2213,-15862,-3585,14,25,-25
24,717,893081,-2190,-15826,-3579,15,30,-27
24,718,893086,-2132,-15828,-3621,15,38,-30
24,719,893091,-2098,-15814,-3582,16,41,-33
24,720,893096,-2062,-15814,-3523,15,41,-36
24,721,893101,-2084,-15812,-3494,15,37,-38
24,722,893106,-2062,-15808,-3425,14,33,-38
24,723,893111,-2064,-15855,-3402,10,32,-40
24,724,893116,-2088,-15862,-3430,12,30,-43
24,725,893121,-2102,-15879,-3344,9,28,-47
24,726,893126,-2050,-15862,-3270,7,22,-49
24,727,893131,-2042,-15875,-3227,10,9,-47
24,728,893136,-2010,-15807,-3237,11,-10,-47
24,729,893141,-2012,-15752,-3204,7,-36,-48
24,730,893146,-2061,-15816,-3270,5,-58,-48
24,731,893151,-2016,-15824,-3351,3,-68,-47
24,732,893156,-1907,-15844,-3404,1,-74,-46
24,733,893161,-1857,-15924,-3414,6,-81,-46
24,734,893166,-1890,-15925,-3533,5,-92,-47
24,735,893171,-1902,-15903,-3688,3,-98,-46
24,736,893176,-1874,-15892,-3719,3,-95,-47
24,737,893181,-1890,-15887,-3694,4,-84,-43
24,738,893186,-1813,-15927,-3743,6,-76,-40
24,739,893191,-1827,-15944,-3771,7,-68,-43
24,740,893196,-1849,-15916,-3780,10,-63,-45
24,741,893201,-1858,-15907,-3753,8,-55,-40
24,742,893206,-1911,-15921,-3689,6,-54,-37
24,743,893211,-1952,-15893,-3706,12,-57,-36
24,744,893216,-1954,-15945,-3774,14,-62,-35
24,745,893221,-1992,-15887,-3827,10,-57,-30
24,746,893226,-2023,-15877,-3796,12,-51,-30
24,747,893231,-2098,-15872,-3744,14,-52,-28
24,748,893236,-2087,-15870,-3725,13,-50,-23
24,749,893241,-2121,-15897,-3723,18,-41,-20
24,750,893246,-2129,-15912,-3656,15,-34,-21
24,751,893251,-2209,-15844,-3587,14,-33,-18
24,752,893256,-2232,-15823,-3504,19,-36,-12
24,753,893261,-2279,-15817,-3531,19,-37,-8
24,754,893266,-2339,-15787,-3516,19,-31,-5
24,755,893271,-2370,-15780,-3494,16,-25,-3
24,756,893276,-2468,-15757,-3462,17,-21,2
24,757,893281,-2522,-15751,-3489,16,-18,5
24,758,893286,-2570,-15736,-3453,16,-13,10
24,759,893291,-2529,-15739,-3369,16,-7,13
24,760,893296,-2560,-15800,-3342,16,-8,18
24,761,893301,-2645,-15876,-3405,16,-11,19
24,762,893306,-2790,-15832,-3376,15,-8,26
24,763,893311,-2880,-15833,-3363,17,0,31
24,764,893316,-2935,-15836,-3382,17,4,34
24,765,893321,-2988,-15862,-3412,19,1,36
24,766,893326,-3032,-15820,-3516,18,4,40
24,767,893331,-3177,-15819,-3517,19,15,47
24,768,893336,-3284,-15780,-3431,24,39,56
24,769,893341,-3328,-15748,-3432,25,51,58
24,770,893346,-3367,-15741,-3372,25,66,62
24,771,893351,-3348,-15765,-3243,22,75,64
24,772,893356,-3328,-15690,-3104,21,73,72
24,773,893361,-3385,-15669,-3027,25,59,77
24,774,893366,-3433,-15683,-3056,29,43,83
24,775,893371,-3450,-15665,-3058,27,26,89
24,776,893376,-3481,-15593,-3064,32,7,97
24,777,893381,-3535,-15543,-3153,35,-12,106
24,778,893386,-3545,-15539,-3155,37,-20,111
24,779,893391,-3649,-15567,-3222,37,-21,117
24,780,893396,-3712,-15567,-3222,39,-20,123
24,781,893401,-3733,-15557,-3222,44,-11,130
24,782,893406,-3794,-15560,-3201,44,1,133
24,783,893411,-3902,-15612,-3203,45,12,141
24,784,893416,-3945,-15612,-3135,46,23,149
24,785,893421,-3928,-15587,-3151,49,36,153
24,786,893426,-3975,-15564,-3181,52,47,159
24,787,893431,-4038,-15621,-3197,55,55,162
24,788,893436,-4147,-15640,-3176,59,61,167
24,789,893441,-4106,-15659,-3098,60,65,178
24,790,893446,-4142,-15607,-2923,61,72,185
24,791,893451,-4242,-15726,-3032,65,64,190
24,792,893456,-4320,-15760,-2993,66,66,198
24,793,893461,-4172,-15751,-2979,69,70,206
24,794,893466,-4030,-15761,-2811,70,71,212
24,795,893471,-4035,-15737,-2628,73,54,219
24,796,893476,-4059,-15765,-2795,77,15,227
24,797,893481,-4071,-15737,-2888,84,-9,241
24,798,893486,-4049,-15715,-2993,85,-16,251
24,799,893491,-4045,-15800,-2970,91,-14,258
24,800,893496,-3991,-15784,-3044,92,-19,265
24,801,893501,-4051,-15792,-3159,95,-24,275
24,802,893506,-4116,-15769,-3284,99,-21,284
24,803,893511,-4142,-15761,-3241,102,-6,291
24,804,893516,-4187,-15804,-3235,105,8,300
24,805,893521,-4102,-15882,-3180,108,25,310
24,806,893526,-4115,-15886,-3134,112,38,320
24,807,893531,-4109,-15848,-3092,116,51,324
24,808,893536,-4152,-15845,-3018,118,64,334
24,809,893541,-4188,-15858,-3015,119,69,345
24,810,893546,-4178,-15889,-2980,123,69,351
24,811,893551,-4208,-15860,-2911,125,73,360
24,812,893556,-4178,-15888,-2832,127,77,368
24,813,893561,-4226,-15893,-2831,132,74,374
24,814,893566,-4267,-15841,-2871,132,75,382
24,815,893571,-4258,-15901,-2854,131,78,391
24,816,893576,-4230,-15901,-2803,136,77,398
24,817,893581,-4147,-15904,-2868,142,79,408
24,818,893586,-4100,-15877,-2863,142,80,416
24,819,893591,-4069,-15878,-2881,145,76,425
24,820,893596,-4012,-15931,-2987,148,79,433
24,821,893601,-3896,-15916,-3056,150,83,441
24,822,893606,-3905,-15930,-2949,153,83,447
24,823,893611,-3967,-15927,-2925,155,76,455
24,824,893616,-3947,-15870,-3016,158,64,464
24,825,893621,-3853,-15854,-3088,157,67,471
24,826,893626,-3798,-15859,-2999,159,73,478
24,827,893631,-3776,-15912,-2910,161,78,485
24,828,893636,-3834,-15908,-2892,163,80,491
24,829,893641,-3822,-15869,-2904,167,84,500
24,830,893646,-3836,-15885,-2853,166,100,507
24,831,893651,-3820,-15946,-2786,167,112,514
24,832,893656,-3777,-15992,-2773,167,116,520
24,833,893661,-3810,-16047,-2801,167,121,523
24,834,893666,-3773,-16063,-2767,169,133,529
24,835,893671,-3714,-16032,-2754,166,147,533
24,836,893676,-3802,-16005,-2833,171,158,536
24,837,893681,-3828,-16013,-2962,173,164,536
24,838,893686,-3878,-16037,-3046,172,173,540
24,839,893691,-3822,-15989,-2978,170,184,548
24,840,893696,-3746,-15974,-2884,167,189,548
24,841,893701,-3626,-16084,-2935,173,172,554
24,842,893706,-3558,-16098,-2846,171,165,557
24,843,893711,-3525,-16146,-2847,176,147,555
24,844,893716,-3381,-16214,-2979,177,131,558
24,845,893721,-3201,-16238,-2959,174,120,563
24,846,893726,-3197,-16239,-2844,173,105,561
24,847,893731,-3223,-16243,-2904,175,87,563
24,848,893736,-3288,-16211,-2945,174,80,561
24,849,893741,-3349,-16188,-3002,174,83,560
24,850,893746,-3338,-16122,-2987,173,94,558
24,851,893751,-3328,-16074,-2910,171,96,558
24,852,893756,-3372,-16029,-2862,171,89,557
24,853,893761,-3364,-16000,-2922,171,94,554
24,854,893766,-3264,-15993,-3051,170,102,552
24,855,893771,-3187,-16012,-3044,170,120,547
24,856,893776,-3095,-16023,-3108,170,140,540
24,857,893781,-3065,-16011,-3249,171,152,537
24,858,893786,-3079,-15995,-3270,169,171,532
24,859,893791,-3079,-16003,-3349,169,196,530
24,860,893796,-2993,-15991,-3419,169,223,523
24,861,893801,-2966,-15968,-3379,165,255,515
24,862,893806,-2953,-15939,-3319,164,283,507
24,863,893811,-2949,-15910,-3202,161,300,500
24,864,893816,-2956,-15811,-3099,160,300,496
24,865,893821,-2948,-15806,-3046,161,297,494
24,866,893826,-2861,-15784,-3050,158,296,486
24,867,893831,-2829,-15749,-3058,159,295,477
24,868,893836,-2872,-15716,-3123,156,288,472
24,869,893841,-2878,-15713,-3238,154,278,468
24,870,893846,-2842,-15716,-3260,157,271,461
24,871,893851,-2832,-15695,-3238,153,270,453
24,872,893856,-2857,-15668,-3130,151,267,447
24,873,893861,-2838,-15645,-3058,151,262,442
24,874,893866,-2771,-15617,-3113,150,255,434
24,875,893871,-2750,-15639,-3125,150,250,426
24,876,893876,-2812,-15680,-3035,147,248,419
24,877,893881,-2860,-15697,-2973,143,237,410
24,878,893886,-2864,-15719,-2976,143,228,402
24,879,893891,-2844,-15688,-2950,139,224,396
24,880,893896,-2867,-15763,-2988,135,225,387
24,881,893901,-2877,-15841,-2966,132,215,379
24,882,893906,-2959,-15827,-2885,128,199,371
24,883,893911,-3085,-15776,-2873,127,186,359
24,884,893916,-3148,-15756,-2966,125,170,349
24,885,893921,-3114,-15760,-3073,120,156,341
24,886,893926,-3119,-15704,-3246,119,148,332
24,887,893931,-3161,-15718,-3227,116,143,320
24,888,893936,-3180,-15686,-3242,114,137,308
24,889,893941,-3201,-15606,-3340,111,137,295
24,890,893946,-3241,-15592,-3381,110,152,286
24,891,893951,-3267,-15625,-3388,105,173,273
24,892,893956,-3209,-15643,-3414,100,194,262
24,893,893961,-3207,-15589,-3355,96,210,248
24,894,893966,-3170,-15588,-3287,93,213,234
24,895,893971,-3209,-15595,-3245,89,214,221
24,896,893976,-3270,-15599,-3147,86,214,206
24,897,893981,-3392,-15599,-3065,79,204,196
24,898,893986,-3428,-15598,-3088,73,193,182
24,899,893991,-3336,-15551,-3065,72,186,172
24,900,893996,-3340,-15465,-3070,67,175,158
24,901,894001,-3396,-15428,-3088,65,154,146
24,902,894006,-3465,-15389,-3121,59,134,133
24,903,894011,-3579,-15326,-3083,57,110,120
24,904,894016,-3545,-15272,-3163,53,94,110
24,905,894021,-3560,-15264,-3244,46,79,96
24,906,894026,-3526,-15282,-3349,43,69,78
24,907,894031,-3477,-15329,-3406,42,61,66
24,908,894036,-3447,-15298,-3366,40,60,52
24,909,894041,-3438,-15286,-3280,33,65,37
24,910,894046,-3386,-15358,-3336,27,73,25
24,911,894051,-3288,-15443,-3335,24,87,13
24,912,894056,-3207,-15496,-3256,17,103,-4
24,913,894061,-3125,-15506,-3158,12,112,-19
24,914,894066,-3057,-15527,-3081,9,111,-32
24,915,894071,-2978,-15567,-3064,-4,105,-60
24,916,894076,-3024,-15565,-3027,-10,102,-73
24,917,894081,-3034,-15509,-3133,-13,93,-91
24,918,894086,-3016,-15517,-3196,-17,88,-103
24,919,894091,-2980,-15477,-3320,-21,83,-112
24,920,894096,-2858,-15469,-3416,-29,82,-126
24,921,894101,-2837,-15477,-3459,-32,79,-139
24,922,894106,-2792,-15470,-3409,-38,70,-155
24,923,894111,-2816,-15495,-3441,-41,64,-170
24,924,894116,-2776,-15555,-3460,-45,74,-182
24,925,894121,-2681,-15580,-3399,-50,89,-196
24,926,894126,-2577,-15625,-3295,-56,96,-210
24,927,894131,-2613,-15709,-3272,-60,91,-226
24,928,894136,-2604,-15710,-3106,-65,78,-242
24,929,894141,-2509,-15619,-3150,-68,62,-255
24,930,894146,-2576,-15673,-3166,-75,47,-270
24,931,894151,-2590,-15680,-3258,-81,25,-284
24,932,894156,-2524,-15698,-3285,-85,4,-298
24,933,894161,-2265,-15690,-3287,-87,-13,-313
24,934,894166,-2212,-15810,-3254,-90,-34,-326
24,935,894171,-2240,-15904,-3313,-94,-56,-341
24,936,894176,-2219,-15922,-3659,-99,-78,-357
24,937,894181,-2203,-15854,-3597,-100,-81,-372
24,938,894186,-2219,-15848,-3499,-106,-84,-389
24,939,894191,-2184,-15944,-3535,-109,-101,-403
24,940,894196,-2113,-15970,-3565,-111,-113,-420
24,941,894201,-2080,-15997,-3474,-116,-122,-435
24,942,894206,-2097,-16009,-3358,-121,-131,-448
24,943,894211,-2093,-16054,-3281,-119,-147,-460
24,944,894216,-2002,-16073,-3384,-122,-163,-476
24,945,894221,-1906,-16137,-3462,-127,-169,-492
24,946,894226,-1858,-16123,-3546,-130,-172,-505
24,947,894231,-1886,-16189,-3579,-134,-175,-518
24,948,894236,-1840,-16262,-3564,-139,-177,-532
24,949,894241,-1666,-16321,-3521,-144,-173,-549
24,950,894246,-1561,-16424,-3389,-149,-161,-564
24,951,894251,-1533,-16449,-3261,-152,-156,-579
24,952,894256,-1519,-16445,-3133,-155,-168,-591
24,953,894261,-1596,-16404,-3098,-160,-185,-604
24,954,894266,-1567,-16417,-3041,-162,-208,-619
24,955,894271,-1480,-16382,-2912,-168,-245,-630
24,956,894276,-1494,-16415,-2925,-171,-292,-643
24,957,894281,-1481,-16479,-3139,-175,-344,-654
24,958,894286,-1448,-16581,-3143,-180,-365,-667
24,959,894291,-1464,-16586,-3180,-183,-376,-680
24,960,894296,-1476,-16646,-3270,-188,-370,-696
24,961,894301,-1426,-16786,-3395,-194,-353,-707
24,962,894306,-1319,-16847,-3467,-194,-316,-720
24,963,894311,-1240,-16913,-3448,-200,-278,-736
24,964,894316,-1235,-16966,-3539,-206,-249,-750
24,965,894321,-1132,-17022,-3375,-209,-225,-765
24,966,894326,-1037,-17091,-3291,-215,-210,-777
24,967,894331,-956,-17166,-3277,-219,-201,-788
24,968,894336,-905,-17226,-3189,-222,-194,-800
24,969,894341,-850,-17292,-3082,-225,-192,-814
24,970,894346,-837,-17356,-3047,-227,-195,-827
24,971,894351,-869,-17413,-3026,-227,-196,-835
24,972,894356,-813,-17420,-2992,-228,-197,-848
24,973,894361,-866,-17441,-2998,-233,-196,-862
24,974,894366,-913,-17471,-3023,-233,-195,-871
24,975,894371,-903,-17609,-2944,-239,-191,-883
24,976,894376,-934,-17692,-2882,-241,-187,-895
24,977,894381,-1046,-17661,-2994,-238,-186,-907
24,978,894386,-1215,-17675,-3255,-241,-179,-917
24,979,894391,-1301,-17681,-3405,-239,-158,-928
24,980,894396,-1273,-17610,-3464,-242,-122,-948
24,981,894401,-1384,-17612,-3622,-237,-87,-963
24,982,894406,-1421,-17534,-3919,-229,-63,-975
24,983,894411,-1376,-17350,-4023,-226,-34,-990
24,984,894416,-1512,-17318,-4161,-223,-22,-1003
24,985,894421,-1633,-17372,-4202,-215,-32,-1014
24,986,894426,-1687,-17283,-4271,-208,-52,-1025
24,987,894431,-2433,-16902,-4464,-188,-102,-1056
24,988,894436,-3079,-16749,-4333,-181,-171,-1066
24,989,894441,-3534,-16512,-4097,-179,-264,-1073
24,990,894446,-3709,-16465,-3798,-172,-349,-1070
24,991,894451,-3829,-16611,-3357,-166,-410,-1068
24,992,894456,-3777,-16728,-3155,-163,-478,-1071
24,993,894461,-3852,-16822,-2991,-159,-532,-1075
24,994,894466,-3972,-16750,-2842,-153,-579,-1075
24,995,894471,-4001,-16537,-2673,-148,-618,-1073
24,996,894476,-4029,-16309,-2783,-146,-659,-1070
24,997,894481,-4092,-16123,-3119,-135,-677,-1057
24,998,894486,-4120,-15889,-3283,-132,-661,-1049
24,999,894491,6213,-6811,-5702,-165,-688,-1016
24,1000,894496,-12405,6294,21788,-82,-592,-1348
24,1001,894501,-20466,-10183,7594,65,-2253,-386
24,1002,894506,7487,-13706,-30012,-72,-6007,-186
24,1003,894511,10912,-20154,-28946,-196,1102,-761
24,1004,894516,-12841,-14622,23521,-166,6133,-1056
24,1005,894521,-3829,-12883,15202,-199,39,-749
24,1006,894526,-2051,-17870,491,46,-2001,-525
24,1007,894531,-5691,-16496,-8018,-54,-1537,-608
24,1008,894536,-2119,-14958,-6232,-144,-567,-624
24,1009,894541,-6108,-13902,5437,-148,101,-740
24,1010,894546,-6668,-13756,1688,-128,-1379,-603
24,1011,894551,-4505,-15359,-8287,-91,-2161,-438
24,1012,894556,-5005,-15193,-8380,-123,-1184,-523
24,1013,894561,-4294,-15598,-2569,-122,-307,-556
24,1014,894566,-4584,-15545,342,-112,-396,-549
24,1015,894571,-4041,-15753,-4542,-108,-1032,-488
24,1016,894576,-4206,-16087,-6972,-111,-954,-463
24,1017,894581,-4849,-15675,-4330,-127,-442,-490
24,1018,894586,-4784,-15539,-1959,-108,-330,-475
24,1019,894591,-4551,-15729,-3367,-83,-518,-443
24,1020,894596,-4310,-16075,-5679,-85,-512,-420
24,1021,894601,-4171,-16106,-4738,-93,-193,-411
24,1022,894606,-4002,-16034,-2498,-105,11,-406
24,1023,894611,-3575,-16259,-2270,-98,-70,-380
24,1024,894616,-3310,-16316,-3550,-94,-127,-358
24,1025,894621,-3248,-16134,-3628,-99,21,-353
24,1026,894626,-3275,-15973,-2390,-99,170,-341
24,1027,894631,-2951,-15835,-2331,-91,123,-313
24,1028,894636,-2642,-15871,-3284,-85,41,-287
24,1029,894641,-2611,-15867,-3779,-90,74,-275
24,1030,894646,-2602,-15821,-3164,-92,174,-260
24,1031,894651,-2407,-15823,-2716,-91,202,-243
24,1032,894656,-2246,-15956,-3062,-84,181,-222
24,1033,894661,-2160,-15971,-3363,-80,213,-207
24,1034,894666,-2081,-15935,-3091,-81,275,-193
24,1035,894671,-1987,-15939,-2624,-84,305,-179
24,1036,894676,-1879,-15904,-2572,-86,284,-158
24,1037,894681,-1788,-15941,-2643,-91,273,-140
24,1038,894686,-1630,-15924,-2480,-94,290,-126
24,1039,894691,-1520,-15986,-2209,-93,294,-110
24,1040,894696,-1488,-15966,-2087,-90,266,-94
24,1041,894701,-1395,-15907,-2326,-91,239,-78
24,1042,894706,-1372,-15905,-2457,-94,235,-63
24,1043,894711,-1423,-15921,-2425,-99,249,-52
24,1044,894716,-1417,-15834,-2522,-102,246,-42
24,1045,894721,-1404,-15813,-2742,-101,245,-30
24,1046,894726,-1394,-15856,-2886,-101,264,-23
24,1047,894731,-1389,-15842,-2818,-99,292,-17
24,1048,894736,-1365,-15768,-2885,-100,303,-9
24,1049,894741,-1375,-15876,-3060,-100,305,-2
24,1050,894746,-1386,-15902,-3061,-99,318,-1
24,1051,894751,-1358,-15858,-2963,-99,322,3
24,1052,894756,-1394,-15890,-2865,-98,308,8
24,1053,894761,-1338,-15922,-3052,-94,270,14
24,1054,894766,-1369,-15958,-3117,-90,243,16
24,1055,894771,-1421,-15920,-3177,-84,218,13
24,1056,894776,-1544,-15845,-3161,-80,192,14
24,1057,894781,-1713,-15769,-3196,-74,162,16
24,1058,894786,-1789,-15818,-3273,-71,135,22
24,1059,894791,-1662,-15765,-3149,-68,113,24
24,1060,894796,-1525,-15994,-3127,-66,91,29
24,1061,894801,-1209,-16150,-3365,-54,50,20
24,1062,894806,-1234,-16203,-3441,-51,36,18
24,1063,894811,-1281,-16172,-3453,-49,25,15
24,1064,894816,-1203,-16160,-3524,-45,13,14
24,1065,894821,-967,-16264,-3522,-41,6,17
24,1066,894826,-756,-16310,-3438,-36,5,14
24,1067,894831,-638,-16305,-3507,-35,15,9
24,1068,894836,-587,-16418,-3432,-31,47,9
24,1069,894841,-385,-16346,-3629,-28,67,9
24,1070,894846,-292,-16271,-3585,-26,105,3
24,1071,894851,-372,-16245,-3637,-25,142,-2
24,1072,894856,-349,-16165,-3596,-22,165,-1
24,1073,894861,-351,-16102,-3709,-17,191,-2
24,1074,894866,-437,-15994,-3786,-13,229,-4
24,1075,894871,-447,-15905,-3836,-10,263,-6
24,1076,894876,-513,-15773,-3754,-11,287,-10
24,1077,894881,-585,-15763,-3671,-7,298,-9
24,1078,894886,-467,-15734,-3580,-4,299,-9
24,1079,894891,-445,-15789,-3367,-1,309,-7
24,1080,894896,-346,-15829,-3346,1,300,-10
24,1081,894901,-289,-15847,-3259,3,275,-6
24,1082,894906,-237,-15836,-3172,6,232,-7
24,1083,894911,-206,-15856,-3202,5,188,-7
24,1084,894916,-199,-15896,-3315,9,148,-7
24,1085,894921,-148,-15889,-3495,14,112,-5
24,1086,894926,-47,-15907,-3702,18,83,-6
24,1087,894931,-20,-15987,-3774,18,61,-10
24,1088,894936,-67,-15979,-3825,22,49,-13
24,1089,894941,-108,-15911,-3866,26,42,-18
24,1090,894946,-123,-15851,-3899,26,34,-20
24,1091,894951,-100,-15864,-3988,30,31,-20
24,1092,894956,-48,-15819,-4011,34,37,-22
24,1093,894961,-32,-15827,-3922,37,38,-25
24,1094,894966,-29,-15873,-3862,37,35,-26
24,1095,894971,-5,-15897,-3913,39,35,-29
24,1096,894976,112,-15896,-3993,42,32,-33
24,1097,894981,100,-15873,-3979,45,36,-34
24,1098,894986,61,-15846,-3989,44,40,-37
24,1099,894991,14,-15878,-4016,43,46,-40
24,1100,894996,13,-15793,-4048,43,55,-43
24,1101,895001,34,-15759,-3982,41,62,-46
24,1102,895006,-29,-15854,-3884,43,64,-47
24,1103,895011,-24,-15900,-3811,44,56,-48
24,1104,895016,43,-15941,-3667,43,48,-49
24,1105,895021,102,-15993,-3598,40,35,-53
24,1106,895026,159,-16026,-3597,40,12,-56
24,1107,895031,168,-16050,-3619,37,-7,-57
24,1108,895036,145,-16074,-3602,34,-22,-57
24,1109,895041,123,-16104,-3563,33,-31,-61
24,1110,895046,150,-16100,-3597,29,-36,-60
24,1111,895051,227,-16133,-3687,26,-38,-59
24,1112,895056,236,-16138,-3697,25,-38,-59
24,1113,895061,191,-16114,-3615,20,-44,-58
24,1114,895066,182,-16092,-3571,16,-56,-57
24,1115,895071,167,-16121,-3637,14,-63,-57
24,1116,895076,201,-16123,-3619,14,-64,-57
24,1117,895081,194,-16122,-3644,13,-66,-56
24,1118,895086,185,-16049,-3778,12,-74,-55
24,1119,895091,183,-16032,-3881,6,-68,-55
24,1120,895096,195,-16037,-3880,2,-58,-56
24,1121,895101,189,-16016,-3872,-1,-52,-53
24,1122,895106,235,-15985,-3849,-6,-36,-57
24,1123,895111,171,-15970,-3798,-4,-17,-55
24,1124,895116,228,-15948,-3829,-5,-11,-51
24,1125,895121,217,-15925,-3872,-9,-6,-51
24,1126,895126,158,-15923,-3724,-14,12,-50
24,1127,895131,131,-15925,-3566,-16,23,-49
24,1128,895136,164,-15918,-3520,-17,25,-43
24,1129,895141,256,-15974,-3587,-19,27,-43
24,1130,895146,317,-15988,-3600,-21,31,-41
24,1131,895151,338,-15931,-3613,-24,24,-37
24,1132,895156,302,-15921,-3710,-25,15,-40
24,1133,895161,301,-15936,-3824,-25,10,-35
24,1134,895166,219,-15868,-3882,-29,13,-27
24,1135,895171,241,-15886,-3829,-27,12,-22
24,1136,895176,248,-15897,-3803,-27,8,-20
24,1137,895181,229,-15944,-3772,-29,0,-19
24,1138,895186,253,-15963,-3678,-27,-14,-16
24,1139,895191,220,-16006,-3743,-22,-27,-15
24,1140,895196,212,-15949,-3831,-22,-43,-15
24,1141,895201,188,-15910,-3871,-22,-58,-11
24,1142,895206,152,-15906,-3991,-22,-68,-11
24,1143,895211,148,-15925,-4039,-19,-72,-12
24,1144,895216,189,-15969,-4045,-13,-72,-8
24,1145,895221,196,-15931,-4089,-14,-58,-6
24,1146,895226,180,-15946,-4222,-11,-39,-6
24,1147,895231,203,-15972,-4234,-8,-21,-4
24,1148,895236,132,-15933,-4261,-4,-7,-4
24,1149,895241,154,-15906,-4298,-2,8,-6
24,1150,895246,143,-15952,-4316,0,27,-9
24,1151,895251,148,-15965,-4291,3,46,-8
24,1152,895256,174,-15979,-4236,6,60,-9
24,1153,895261,139,-15951,-4186,11,71,-9
24,1154,895266,148,-15937,-4207,15,80,-8
24,1155,895271,220,-15982,-4078,17,84,-7
24,1156,895276,265,-15974,-3886,20,74,-8
24,1157,895281,220,-15962,-3784,20,55,-11
24,1158,895286,199,-15932,-3821,22,34,-6
24,1159,895291,217,-15951,-3888,23,23,-7
24,1160,895296,234,-15960,-3922,27,18,-9
24,1161,895301,250,-15891,-3965,31,9,-10
24,1162,895306,154,-15886,-3957,29,6,-12
24,1163,895311,93,-15850,-3954,29,8,-13
24,1164,895316,108,-15805,-3961,30,16,-11
24,1165,895321,111,-15803,-3905,32,22,-12
24,1166,895326,113,-15807,-3873,34,19,-11
24,1167,895331,157,-15888,-3889,34,19,-16
24,1168,895336,133,-15887,-3801,34,16,-18
24,1169,895341,134,-15882,-3828,33,8,-15
24,1170,895346,136,-15877,-3826,31,5,-17
24,1171,895351,140,-15858,-3859,32,2,-17
24,1172,895356,142,-15839,-3890,32,-3,-16
24,1173,895361,142,-15804,-3872,32,-13,-15
24,1174,895366,125,-15807,-3861,33,-20,-16
24,1175,895371,136,-15854,-3929,29,-25,-16
24,1176,895376,93,-15852,-3964,29,-28,-17
24,1177,895381,150,-15820,-4009,29,-32,-16
24,1178,895386,100,-15829,-3977,28,-29,-18
24,1179,895391,81,-15834,-3849,25,-25,-18
24,1180,895396,79,-15861,-3843,23,-18,-17
24,1181,895401,169,-15906,-3846,26,-16,-13
24,1182,895406,272,-15978,-3798,21,-7,-15
24,1183,895411,227,-16020,-3753,19,-3,-18
24,1184,895416,219,-15946,-3730,18,-4,-16
24,1185,895421,219,-15937,-3795,16,-7,-15
24,1186,895426,175,-15886,-3801,13,-7,-11
24,1187,895431,121,-15896,-3784,10,-4,-12
24,1188,895436,160,-15892,-3803,9,-6,-12
24,1189,895441,123,-15931,-3778,8,-5,-8
24,1190,895446,139,-15934,-3823,6,-6,-7
24,1191,895451,192,-15899,-3794,3,-6,-10
24,1192,895456,151,-15852,-3812,1,-11,-5
24,1193,895461,68,-15850,-3866,1,-16,-5
24,1194,895466,74,-15901,-3801,-1,-20,-4
24,1195,895471,112,-15916,-3776,-3,-23,-1
24,1196,895476,155,-15938,-3796,-9,-22,-1
24,1197,895481,119,-15952,-3799,-8,-19,-3
24,1198,895486,89,-15951,-3822,-7,-17,-1
24,1199,895491,78,-15963,-3837,-12,-13,-2
24,1200,895496,102,-15994,-3878,-15,-14,-3
24,1201,895501,165,-16088,-3865,-15,-10,0
24,1202,895506,264,-16164,-3827,-15,-8,0
24,1203,895511,254,-16154,-3839,-14,-14,-1
24,1204,895516,228,-16173,-3834,-17,-20,1
24,1205,895521,175,-16139,-3835,-18,-19,-2
24,1206,895526,101,-16182,-3872,-17,-20,0
24,1207,895531,201,-16145,-3943,-18,-21,1
24,1208,895536,203,-16180,-3990,-17,-27,-1
24,1209,895541,255,-16190,-3953,-19,-32,-4
24,1210,895546,227,-16172,-3997,-16,-34,-2
24,1211,895551,157,-16094,-4042,-13,-39,-4
24,1212,895556,144,-16084,-4028,-13,-40,-3
24,1213,895561,113,-16044,-3949,-15,-41,-4
24,1214,895566,80,-16001,-3867,-16,-44,-7
24,1215,895571,84,-15984,-3798,-15,-47,-11
24,1216,895576,99,-15954,-3729,-13,-55,-11
24,1217,895581,104,-15899,-3665,-15,-61,-9
24,1218,895586,161,-15917,-3685,-16,-65,-13
24,1219,895591,153,-15899,-3687,-14,-72,-13
24,1220,895596,191,-15897,-3743,-13,-76,-14
24,1221,895601,270,-15860,-3787,-14,-75,-17
24,1222,895606,288,-15862,-3792,-16,-72,-22
24,1223,895611,279,-15910,-3848,-15,-72,-21
24,1224,895616,292,-15896,-3986,-17,-71,-25
24,1225,895621,290,-15856,-4063,-13,-64,-26
24,1226,895626,273,-15843,-4079,-11,-57,-26
24,1227,895631,263,-15880,-4129,-15,-46,-28
24,1228,895636,288,-15885,-4104,-16,-31,-30
24,1229,895641,337,-15888,-3993,-14,-19,-32
24,1435,896671,113,-15846,-4038,3,18,-17
24,1436,896676,137,-15872,-3967,2,15,-16
24,1437,896681,169,-15897,-3936,3,4,-17
24,1438,896686,166,-15940,-4044,7,-7,-16
24,1439,896691,197,-15944,-3986,9,-7,-19
24,1440,896696,192,-15940,-3997,11,-4,-19
24,1441,896701,221,-15944,-4032,12,-9,-19
24,1442,896706,301,-15942,-4010,10,-10,-22
24,1443,896711,367,-15980,-3917,9,-5,-19
24,1444,896716,389,-15995,-3873,12,-2,-17
24,1445,896721,420,-15972,-3934,12,-7,-18
24,1446,896726,340,-15974,-3901,8,-13,-20
24,1447,896731,325,-15965,-3849,9,-15,-20
24,1448,896736,303,-15941,-3842,10,-17,-18
24,1449,896741,315,-15930,-3928,11,-20,-16
24,1450,896746,346,-15957,-3972,8,-18,-17
24,1451,896751,338,-15956,-3979,10,-19,-20
24,1452,896756,335,-15963,-3852,9,-20,-18
24,1453,896761,316,-15920,-3837,7,-22,-14
24,1454,896766,317,-15899,-3875,12,-19,-15
24,1455,896771,359,-15921,-3950,11,-18,-16
24,1456,896776,401,-15959,-3887,9,-20,-11
24,1457,896781,362,-15995,-3845,6,-24,-13
24,1458,896786,381,-15966,-3888,8,-33,-13
24,1459,896791,330,-15965,-3868,10,-35,-10
24,1460,896796,318,-15954,-3917,7,-34,-10
24,1461,896801,310,-15944,-3962,9,-28,-10
24,1462,896806,307,-15949,-4053,9,-23,-7
24,1463,896811,326,-15917,-4020,9,-22,-5
24,1464,896816,330,-15959,-3955,10,-23,-5
24,1465,896821,311,-15954,-3885,8,-22,-4
24,1466,896826,303,-16013,-3886,5,-23,-7
24,1467,896831,302,-16019,-3951,7,-26,-4
24,1468,896836,344,-16010,-3991,6,-23,-2
24,1469,896841,310,-16012,-3987,5,-21,-6
24,1470,896846,292,-15975,-4027,9,-25,-1
24,1471,896851,279,-15961,-4034,9,-24,-1
24,1472,896856,264,-15988,-4031,8,-15,-1
24,1473,896861,241,-15982,-4029,8,-6,0
24,1474,896866,267,-15949,-4007,9,-4,0
24,1475,896871,292,-15910,-4012,10,-5,-1
24,1476,896876,324,-15922,-3993,10,-5,0
24,1477,896881,305,-15905,-3983,11,-7,1
24,1478,896886,240,-15855,-3945,9,-9,2
24,1479,896891,240,-15863,-3952,9,-7,4
24,1480,896896,308,-15892,-3977,11,-6,3
24,1481,896901,347,-15843,-3927,12,0,6
24,1482,896906,332,-15840,-3918,10,4,4
24,1483,896911,341,-15849,-3945,11,3,5
24,1484,896916,343,-15837,-3940,10,9,5
24,1485,896921,313,-15823,-3930,7,14,3
24,1486,896926,355,-15788,-3904,10,15,7
24,1487,896931,411,-15759,-3964,12,18,7
24,1488,896936,397,-15754,-3930,13,25,6
24,1489,896941,340,-15719,-3945,12,25,6
24,1490,896946,328,-15707,-3946,11,17,7
24,1491,896951,317,-15722,-3957,9,13,8
24,1492,896956,302,-15741,-3904,10,11,11
24,1493,896961,293,-15828,-3877,11,10,10
24,1494,896966,330,-15862,-3848,10,7,10
24,1495,896971,333,-15777,-3911,11,0,13
24,1496,896976,351,-15831,-3878,12,-5,13
24,1497,896981,357,-15912,-3873,12,-13,11
24,1498,896986,418,-15953,-3878,10,-17,13
24,1499,896991,422,-15982,-3935,8,-18,11
24,1500,896996,409,-16028,-4078,12,-23,11
24,1501,897001,429,-16095,-4114,11,-21,11
24,1502,897006,359,-16073,-4143,11,-14,8
24,1503,897011,372,-16026,-4112,13,-4,5
24,1504,897016,312,-16038,-4131,12,7,4
24,1505,897021,291,-16047,-4146,14,19,3
24,1506,897026,330,-16092,-4046,15,28,3
24,1507,897031,307,-16091,-4014,14,32,0
24,1508,897036,353,-16072,-3999,13,25,-3
24,1509,897041,299,-16118,-4062,13,17,-5
24,1510,897046,274,-16120,-4094,17,16,-9
24,1511,897051,290,-16090,-4057,16,12,-13
24,1512,897056,201,-16125,-4147,15,11,-17
24,1513,897061,367,-15970,-4062,15,20,-21
24,1514,897066,298,-16100,-3947,17,7,-10
24,1515,897071,336,-16070,-3993,17,-13,-14
24,1516,897076,297,-16079,-4035,15,-9,-15
24,1517,897081,300,-16090,-3896,15,1,-14
24,1518,897086,363,-16086,-3909,15,-14,-12
24,1519,897091,359,-16099,-3936,15,-22,-15
24,1520,897096,418,-16097,-3934,13,-15,-18
24,1521,897101,435,-16094,-3899,14,-17,-16
24,1522,897106,418,-16048,-3899,13,-25,-17
24,1523,897111,412,-16020,-3961,11,-35,-21
24,1524,897116,390,-15974,-3962,9,-35,-19
24,1525,897121,342,-15951,-3914,8,-31,-20
24,1526,897126,393,-15952,-3912,6,-34,-22
24,1527,897131,358,-15961,-4017,5,-32,-21
24,1528,897136,395,-15957,-4058,4,-26,-24
24,1529,897141,389,-15912,-4026,3,-21,-25
24,1530,897146,325,-16016,-4046,5,-16,-24
24,1531,897151,494,-15767,-4112,1,-10,-33
24,1532,897156,329,-15909,-3934,2,2,-23
24,1533,897161,357,-15893,-4029,-1,-19,-25
24,1534,897166,343,-15891,-4077,-4,-22,-24
24,1535,897171,245,-15927,-3995,-7,-8,-23
24,1536,897176,301,-15947,-3888,-5,-11,-20
24,1537,897181,361,-15984,-4069,-2,-21,-18
24,1538,897186,433,-16001,-4193,-6,-13,-19
24,1539,897191,403,-15980,-4201,-6,-2,-25
24,1540,897196,357,-15959,-4209,-3,1,-25
24,1541,897201,309,-15919,-4319,-5,5,-23
24,1542,897206,348,-15906,-4279,-5,24,-20
24,1543,897211,384,-15906,-4081,-5,40,-20
24,1544,897216,379,-15962,-3968,-8,43,-21
24,1545,897221,411,-15929,-3979,-8,37,-20
24,1546,897226,426,-15957,-3909,-7,38,-21
24,1547,897231,391,-15950,-3835,-8,39,-19
24,1548,897236,324,-15911,-3841,-10,33,-17
24,1549,897241,288,-15910,-3813,-10,22,-18
24,1550,897246,244,-15836,-3770,-10,14,-14
24,1551,897251,163,-15874,-3749,-12,9,-11
24,1552,897256,210,-15952,-3808,-16,7,-10
24,1553,897261,229,-15893,-3858,-14,4,-9
24,1554,897266,272,-15915,-3859,-15,1,-9
24,1555,897271,298,-15900,-3913,-19,-5,-8
24,1556,897276,353,-15902,-3914,-19,-9,-8
24,1557,897281,326,-15848,-3969,-18,-9,-5
24,1558,897286,367,-15855,-4009,-19,-4,-4
24,1559,897291,398,-15880,-3983,-19,0,-4
24,1560,897296,419,-15908,-3934,-20,6,-1
24,1561,897301,482,-15884,-3843,-21,8,2
24,1562,897306,479,-15928,-3754,-22,13,3
24,1563,897311,490,-15958,-3681,-19,16,6
24,1564,897316,508,-15938,-3635,-18,12,6
24,1565,897321,475,-15924,-3665,-20,10,5
24,1566,897326,425,-15944,-3720,-23,4,4
24,1567,897331,459,-15939,-3751,-23,3,8
24,1568,897336,464,-15896,-3809,-25,2,10
24,1569,897341,426,-15939,-3797,-22,0,11
24,1570,897346,436,-15929,-3796,-26,-1,11
24,1571,897351,395,-15881,-3803,-25,-4,13
24,1572,897356,320,-15855,-3829,-21,-6,14
24,1573,897361,304,-15830,-3900,-21,-15,15
24,1574,897366,315,-15839,-3952,-20,-22,14
24,1575,897371,329,-15845,-3980,-18,-33,16
24,1576,897376,352,-15851,-4073,-16,-35,15
24,1577,897381,340,-15862,-4089,-16,-37,15
24,1578,897386,313,-15881,-4065,-16,-38,10
24,1579,897391,293,-15876,-4015,-15,-33,9
24,1580,897396,306,-15852,-4039,-13,-29,6
24,1581,897401,340,-15797,-4028,-9,-30,6
24,1582,897406,344,-15849,-4051,-8,-36,5
24,1583,897411,391,-15893,-4168,-6,-41,4
24,1584,897416,457,-15879,-4205,-1,-35,3
24,1585,897421,401,-15914,-4094,-1,-33,2
24,1586,897426,407,-15893,-4171,2,-36,-1
24,1587,897431,421,-15926,-4338,6,-28,0
24,1588,897436,452,-15940,-4330,7,-10,1
24,1589,897441,405,-15890,-4242,7,8,-2
24,1590,897446,346,-15830,-4235,8,19,-4
24,1591,897451,332,-15795,-4163,11,23,-6
24,1592,897456,381,-15821,-4083,11,32,-7
24,1593,897461,431,-15866,-3962,13,28,-4
24,1594,897466,398,-15875,-3864,15,17,-5
24,1595,897471,394,-15847,-3827,16,9,-9
24,1596,897476,294,-15794,-3915,18,0,-7
24,1597,897481,320,-15828,-4011,18,-7,-8
24,1598,897486,337,-15866,-4032,20,-7,-9
24,1599,897491,340,-15932,-3995,21,-4,-8
