event_id,seq,ts_ms,ax,ay,az,gx,gy,gz
73,0,913465,-2593,-15873,-3306,-9,1,-11
73,1,913470,-2609,-15881,-3299,-1,-3,-9
73,2,913475,-2503,-15876,-3452,-1,-10,-8
73,3,913480,-2328,-15805,-3555,-5,-8,-9
73,4,913485,-2327,-15830,-3450,-6,-7,-8
73,5,913490,-2405,-15861,-3331,-4,-13,-8
73,6,913495,-2327,-15849,-3285,-5,-30,-3
73,7,913500,-2179,-15809,-3428,-5,-27,4
73,8,913505,-2152,-15858,-3557,-2,-3,2
73,9,913510,-2275,-15869,-3448,-2,9,-1
73,10,913515,-2360,-15836,-3317,-7,-5,-1
73,11,913520,-2456,-15835,-3315,-7,-18,3
73,12,913525,-2421,-15870,-3427,-3,-21,3
73,13,913530,-2422,-15846,-3440,-3,-13,0
73,14,913535,-2547,-15851,-3321,-5,-10,1
73,15,913540,-2598,-15875,-3380,-6,-22,0
73,16,913545,-2477,-15867,-3402,-6,-22,4
73,17,913550,-2489,-15850,-3389,-5,-8,0
73,18,913555,-2540,-15886,-3348,-3,-4,-1
73,19,913560,-2546,-15913,-3458,-6,-14,2
73,20,913565,-2450,-15879,-3500,-4,-15,2
73,21,913570,-2522,-15903,-3421,-4,-4,1
73,22,913575,-2573,-15904,-3339,-5,4,0
73,23,913580,-2556,-15844,-3397,-3,-4,2
73,24,913585,-2463,-15905,-3526,-1,-16,5
73,25,913590,-2545,-15852,-3609,-2,-12,1
73,26,913595,-2673,-15823,-3505,1,-6,2
73,27,913600,-2557,-15856,-3546,3,-17,7
73,28,913605,-2701,-15812,-3633,1,-24,7
73,29,913610,-2902,-15982,-3605,2,-26,5
73,30,913615,-2789,-15842,-3485,1,-22,0
73,31,913620,-2531,-15892,-3461,6,-17,5
73,32,913625,-2536,-15862,-3546,7,-14,5
73,33,913630,-2649,-15863,-3620,8,-19,4
73,34,913635,-2655,-15841,-3594,7,-34,2
73,35,913640,-2523,-15830,-3660,5,-37,4
73,36,913645,-2461,-15851,-3606,7,-27,5
73,37,913650,-2443,-15828,-3555,8,-16,4
73,38,913655,-2484,-15858,-3462,9,-20,3
73,39,913660,-2472,-15850,-3444,7,-25,4
73,40,913665,-2397,-15839,-3550,9,-22,8
73,41,913670,-2338,-15852,-3593,10,-4,10
73,42,913675,-2450,-15820,-3405,9,3,6
73,43,913680,-2591,-15827,-3242,9,-8,4
73,44,913685,-2679,-15841,-3288,10,-22,2
73,45,913690,-2674,-15868,-3204,13,-12,1
73,46,913695,-2648,-15860,-3138,12,-7,0
73,47,913700,-2564,-15855,-3092,12,-11,-1
73,48,913705,-2579,-15860,-3123,13,-15,-1
73,49,913710,-2587,-15846,-3200,10,-15,-3
73,50,913715,-2535,-15836,-3208,11,-7,-2
73,51,913720,-2549,-15788,-3158,10,-3,-2
73,52,913725,-2567,-15841,-3075,6,-7,-3
73,53,913730,-2488,-15831,-3055,9,-17,-2
73,54,913735,-2545,-15896,-3106,5,-12,0
73,55,913740,-2620,-15865,-3022,1,-11,-5
73,56,913745,-2597,-15861,-3032,-3,-19,-4
73,57,913750,-2535,-15915,-3098,-2,-26,0
73,58,913755,-2603,-15891,-3037,-4,-24,-1
73,59,913760,-2674,-15829,-2931,-2,-20,-2
73,60,913765,-2645,-15853,-2973,-2,-23,0
73,61,913770,-2620,-15874,-3127,-4,-24,0
73,62,913775,-2547,-15872,-3219,-3,-24,0
73,63,913780,-2493,-15879,-3245,-2,-17,0
73,64,913785,-2518,-15891,-3237,-6,-13,1
73,65,913790,-2610,-15857,-3295,-7,-12,3
73,66,913795,-2532,-15879,-3348,-5,-16,4
73,67,913800,-2509,-15888,-3398,-7,-14,5
73,68,913805,-2513,-15884,-3358,-7,-8,3
73,69,913810,-2430,-15887,-3323,-10,-14,5
73,70,913815,-2351,-15849,-3386,-9,-17,7
73,71,913820,-2329,-15860,-3538,-8,-16,8
73,72,913825,-2377,-15911,-3695,-4,-13,5
73,73,913830,-2462,-15899,-3818,-5,-12,6
73,74,913835,-2505,-15906,-3852,-6,-10,8
73,75,913840,-2594,-15870,-3702,-1,-10,7
73,76,913845,-2621,-15872,-3622,-3,-12,5
73,77,913850,-2579,-15866,-3653,-2,-13,4
73,78,913855,-2519,-15873,-3696,4,-13,8
73,79,913860,-2601,-15880,-3653,4,-11,7
73,80,913865,-2640,-15873,-3549,5,-13,6
73,81,913870,-2620,-15846,-3589,9,-19,6
73,82,913875,-2689,-15856,-3550,9,-23,4
73,83,913880,-2804,-15877,-3464,10,-29,4
73,84,913885,-2829,-15919,-3480,13,-39,5
73,85,913890,-2936,-15881,-3554,11,-41,1
73,86,913895,-2986,-15873,-3632,9,-46,2
73,87,913900,-2880,-15796,-3624,8,-47,3
73,88,913905,-2784,-15784,-3688,13,-42,5
73,89,913910,-2608,-15792,-3808,14,-22,2
73,90,913915,-2632,-15796,-3723,12,6,-3
73,91,913920,-2601,-15733,-3401,11,21,-8
73,92,913925,-2555,-15696,-3201,11,13,-10
73,93,913930,-2443,-15659,-3215,15,-4,-6
73,94,913935,-2395,-15708,-3287,15,-1,-9
73,95,913940,-2416,-15730,-3170,15,17,-10
73,96,913945,-2453,-15757,-2999,16,23,-10
73,97,913950,-2480,-15811,-2901,15,10,-9
73,98,913955,-2497,-15913,-2995,12,-3,-8
73,99,913960,-2467,-15935,-3020,13,-8,-2
73,100,913965,-2420,-15934,-3044,12,-10,1
73,101,913970,-2439,-15887,-2988,7,-18,1
73,102,913975,-2490,-15892,-2964,6,-32,5
73,103,913980,-2592,-15935,-3062,8,-40,4
73,104,913985,-2645,-15907,-3061,5,-41,1
73,105,913990,-2631,-15897,-2968,1,-34,0
73,106,913995,-2607,-15866,-2950,2,-33,1
73,107,914000,-2632,-15833,-3023,3,-40,2
73,108,914005,-2692,-15898,-3158,-1,-48,1
73,109,914010,-2581,-15898,-3290,-6,-49,4
73,110,914015,-2411,-15895,-3310,-8,-27,7
73,111,914020,-2367,-15901,-3216,-7,3,2
73,112,914025,-2587,-15869,-3110,-8,21,-1
73,113,914030,-2675,-15867,-3184,-4,21,1
73,114,914035,-2520,-15844,-3273,-4,17,6
73,115,914040,-2443,-15884,-3382,-5,17,10
73,116,914045,-2500,-15840,-3305,-6,21,10
73,117,914050,-2586,-15847,-3292,-6,20,8
73,118,914055,-2542,-15822,-3353,-5,30,8
73,119,914060,-2588,-15819,-3298,-2,49,7
73,120,914065,-2751,-15879,-3216,-6,53,2
73,121,914070,-2815,-15900,-3202,-6,39,0
73,122,914075,-2850,-15869,-3205,-6,19,1
73,123,914080,-2951,-15898,-3142,-10,-5,0
73,124,914085,-2963,-15873,-3326,-12,-26,-1
73,125,914090,-2933,-15874,-3422,-8,-26,0
73,126,914095,-2970,-15901,-3366,-7,-10,-4
73,127,914100,-2990,-15867,-3337,-5,-3,-6
73,128,914105,-2917,-15892,-3468,-1,-6,-2
73,129,914110,-2825,-15874,-3634,-2,-11,-4
73,130,914115,-2749,-15805,-3737,-5,-7,-5
73,131,914120,-2636,-15876,-3860,-6,-5,-5
73,132,914125,-2683,-15852,-3586,-5,-4,-4
73,133,914130,-2815,-15841,-3521,-9,-14,-3
73,134,914135,-2787,-15823,-3400,-1,-14,-7
73,135,914140,-2728,-15849,-3455,2,0,-4
73,136,914145,-2610,-15856,-3439,1,17,-2
73,137,914150,-2563,-15812,-3297,-1,23,-9
73,138,914155,-2657,-15831,-3273,-1,15,-9
73,139,914160,-2638,-15873,-3428,-2,4,-9
73,140,914165,-2581,-15848,-3635,0,10,-7
73,141,914170,-2604,-15803,-3566,1,28,-9
73,142,914175,-2717,-15840,-3522,1,32,-10
73,143,914180,-2719,-15872,-3447,-1,24,-11
73,144,914185,-2754,-15911,-3375,-2,18,-13
73,145,914190,-2767,-15884,-3183,-2,12,-15
73,146,914195,-2701,-15903,-3067,2,-4,-14
73,147,914200,-2652,-15883,-3208,-1,-18,-13
73,148,914205,-2629,-15891,-3457,1,-18,-13
73,149,914210,-2599,-15878,-3661,3,-10,-10
73,150,914215,-2572,-15905,-3655,0,3,-11
73,151,914220,-2663,-15878,-3484,-1,0,-11
73,152,914225,-2718,-15855,-3514,1,-19,-10
73,153,914230,-2724,-15822,-3630,3,-22,-11
73,154,914235,-2684,-15838,-3680,3,-8,-12
73,155,914240,-2633,-15832,-3488,2,7,-13
73,156,914245,-2574,-15850,-3396,7,2,-17
73,157,914250,-2633,-15865,-3412,7,-15,-17
73,158,914255,-2544,-15854,-3435,3,-17,-16
73,159,914260,-2354,-15871,-3436,4,-4,-11
73,160,914265,-2261,-15866,-3233,7,11,-11
73,161,914270,-2408,-15861,-3094,6,11,-17
73,162,914275,-2643,-15852,-3040,6,-2,-15
73,163,914280,-2783,-15876,-3205,7,-19,-11
73,164,914285,-2666,-15869,-3430,7,-15,-9
73,165,914290,-2625,-15881,-3534,8,-2,-13
73,166,914295,-2696,-15854,-3496,9,-2,-14
73,167,914300,-2794,-15827,-3505,5,-17,-15
73,168,914305,-2799,-15856,-3545,7,-28,-16
73,169,914310,-2801,-15818,-3516,6,-24,-15
73,170,914315,-2733,-15823,-3419,2,-15,-16
73,171,914320,-2729,-15837,-3385,7,-14,-15
73,172,914325,-2729,-15864,-3407,10,-17,-13
73,173,914330,-2686,-15873,-3433,10,-15,-11
73,174,914335,-2685,-15903,-3386,12,-14,-8
73,175,914340,-2566,-15844,-3415,13,-15,-8
73,176,914345,-2460,-15852,-3315,6,-14,-13
73,177,914350,-2578,-15870,-3197,5,-16,-12
73,178,914355,-2563,-15874,-3078,7,-15,-14
73,179,914360,-2567,-15884,-3052,7,-15,-14
73,180,914365,-2506,-15854,-3029,8,-12,-12
73,181,914370,-2411,-15903,-3018,7,-7,-13
73,182,914375,-2394,-15869,-3043,7,-2,-13
73,183,914380,-2456,-15858,-3134,7,-2,-16
73,184,914385,-2460,-15836,-3308,5,-2,-19
73,185,914390,-2481,-15829,-3346,3,-3,-17
73,186,914395,-2517,-15865,-3249,1,-7,-17
73,187,914400,-2510,-15838,-3280,1,-14,-19
73,188,914405,-2542,-15867,-3354,0,-14,-19
73,189,914410,-2548,-15885,-3399,-1,-6,-15
73,190,914415,-2510,-15849,-3382,-2,-1,-13
73,191,914420,-2449,-15856,-3306,-4,-5,-13
73,192,914425,-2529,-15928,-3244,-4,-19,-13
73,193,914430,-2555,-15954,-3251,-7,-23,-13
73,194,914435,-2445,-15999,-3293,-4,-20,-10
73,195,914440,-2380,-15984,-3338,-3,-9,-6
73,196,914445,-2417,-15933,-3380,-2,1,-8
73,197,914450,-2545,-15925,-3447,2,6,-9
73,198,914455,-2647,-15929,-3485,2,12,-8
73,199,914460,-2556,-15847,-3462,1,21,-9
73,200,914465,-2483,-15777,-3340,2,25,-7
73,201,914470,-2421,-15740,-3363,3,21,-7
73,202,914475,-2318,-15771,-3494,4,15,-9
73,203,914480,-2394,-15828,-3578,6,6,-6
73,204,914485,-2536,-15840,-3536,2,1,-11
73,205,914490,-2545,-15782,-3441,1,-9,-10
73,206,914495,-2602,-15746,-3427,5,-21,-10
73,207,914500,-2600,-15765,-3620,8,-26,-12
73,208,914505,-2652,-15758,-3685,5,-26,-11
73,209,914510,-2568,-15783,-3671,6,-31,-8
73,210,914515,-2404,-15841,-3670,5,-37,-6
73,211,914520,-2241,-15813,-3777,6,-31,-6
73,212,914525,-2270,-15841,-3709,8,-9,-8
73,213,914530,-2266,-15839,-3604,10,0,-7
73,214,914535,-2272,-15805,-3481,7,-6,-4
73,215,914540,-2308,-15823,-3382,7,-15,-5
73,216,914545,-2260,-15798,-3337,8,-14,-4
73,217,914550,-2246,-15769,-3166,9,-3,-5
73,218,914555,-2284,-15852,-3038,9,-4,-7
73,219,914560,-2328,-15915,-3040,11,-12,-4
73,220,914565,-2308,-15903,-3170,10,-15,0
73,221,914570,-2278,-15853,-3191,10,-3,-2
73,222,914575,-2340,-15870,-3182,12,7,-4
73,223,914580,-2414,-15881,-3288,9,3,-3
73,224,914585,-2357,-15866,-3482,9,-3,0
73,225,914590,-2337,-15863,-3511,7,4,0
73,226,914595,-2350,-15862,-3323,7,14,2
73,227,914600,-2371,-15883,-3292,9,5,2
73,228,914605,-2399,-15845,-3304,6,-9,3
73,229,914610,-2409,-15882,-3379,6,-14,7
73,230,914615,-2339,-15926,-3369,5,-5,9
73,231,914620,-2379,-15883,-3262,3,2,8
73,232,914625,-2432,-15860,-3231,4,-2,9
73,233,914630,-2465,-15883,-3310,5,-10,11
73,234,914635,-2523,-15884,-3217,8,-13,12
73,235,914640,-2468,-15835,-3144,6,-10,12
73,236,914645,-2439,-15842,-3241,5,-8,12
73,237,914650,-2383,-15872,-3391,5,-7,11
73,238,914655,-2406,-15856,-3359,2,-3,12
73,239,914660,-2476,-15879,-3245,1,-2,10
73,240,914665,-2528,-15888,-3248,3,-2,12
73,241,914670,-2606,-15909,-3335,3,1,10
73,242,914675,-2659,-15873,-3361,1,8,9
73,243,914680,-2673,-15912,-3343,4,15,9
73,244,914685,-2648,-15896,-3347,3,23,7
73,245,914690,-2639,-15875,-3338,3,30,7
73,246,914695,-2688,-15907,-3401,4,29,8
73,247,914700,-2727,-15839,-3475,4,24,8
73,248,914705,-2681,-15868,-3474,4,30,8
73,249,914710,-2752,-15903,-3430,4,39,6
73,250,914715,-2740,-15835,-3368,7,38,6
73,251,914720,-2725,-15833,-3366,9,26,6
73,252,914725,-2724,-15862,-3392,8,8,9
73,253,914730,-2715,-15795,-3402,8,-2,6
73,254,914735,-2769,-15789,-3393,8,-11,5
73,255,914740,-2826,-15848,-3435,6,-16,4
73,256,914745,-2759,-15841,-3328,5,-13,6
73,257,914750,-2574,-15832,-3169,6,-10,7
73,258,914755,-2510,-15805,-3146,3,-12,5
73,259,914760,-2544,-15828,-3162,4,-10,2
73,260,914765,-2682,-15846,-3123,5,-7,0
73,261,914770,-2795,-15848,-3046,1,-6,1
73,262,914775,-2715,-15831,-3037,1,-10,5
73,263,914780,-2587,-15894,-3136,2,-6,5
73,264,914785,-2536,-15975,-3269,0,2,3
73,265,914790,-2834,-15875,-3148,-2,-4,0
73,266,914795,-2889,-15884,-3306,-2,-13,0
73,267,914800,-2912,-15889,-3529,-1,-8,0
73,268,914805,-2948,-15913,-3519,-2,3,-2
73,269,914810,-2890,-15860,-3425,-3,6,-1
73,270,914815,-2708,-15866,-3439,-3,-2,-3
73,271,914820,-2694,-15859,-3416,-6,-3,-12
73,272,914825,-2920,-15800,-3048,-3,-1,-13
73,273,914830,-2938,-15785,-3011,-4,-14,-11
73,274,914835,-2794,-15879,-3073,-6,-20,-9
73,275,914840,-2684,-15820,-2996,-4,-11,-11
73,276,914845,-2545,-15881,-2947,-3,-11,-6
73,277,914850,-2496,-15881,-2987,-2,-16,-5
73,278,914855,-2435,-15811,-3144,-2,-26,-1
73,279,914860,-2303,-15881,-3343,-5,-21,4
73,280,914865,-2360,-15888,-3410,-9,-4,3
73,281,914870,-2577,-15871,-3406,-7,2,-4
73,282,914875,-2816,-15894,-3521,-10,-6,-4
73,283,914880,-2895,-15892,-3671,-9,-13,-3
73,284,914885,-2889,-15860,-3799,-10,-11,-3
73,285,914890,-2804,-15930,-3598,-14,4,-4
73,286,914895,-2823,-15906,-3370,-15,9,-10
73,287,914900,-2900,-15931,-3480,-11,12,-11
73,288,914905,-3092,-15930,-3584,-8,27,-12
73,289,914910,-3107,-15896,-3558,-9,41,-14
73,290,914915,-2983,-15890,-3546,-11,61,-14
73,291,914920,-2827,-15858,-3489,-10,88,-14
73,292,914925,-2666,-15834,-3236,-11,122,-18
73,293,914930,-2484,-15807,-3021,-11,131,-16
73,294,914935,-2269,-15839,-2990,-7,122,-17
73,295,914940,-2313,-15849,-2844,-8,103,-20
73,296,914945,-2352,-15793,-2717,-10,67,-19
73,297,914950,-2416,-15799,-2704,-13,30,-19
73,298,914955,-2526,-15779,-2660,-12,-2,-17
73,299,914960,-2532,-15840,-2875,-10,-32,-14
73,300,914965,-2557,-15850,-3287,-9,-45,-14
73,301,914970,-2639,-15881,-3606,-10,-46,-16
73,302,914975,-2743,-15856,-3783,-10,-43,-17
73,303,914980,-2756,-15906,-3767,-13,-45,-16
73,304,914985,-2712,-15847,-3726,-13,-54,-13
73,305,914990,-2742,-15852,-3733,-12,-52,-13
73,306,914995,-2757,-15861,-3821,-12,-39,-19
73,307,915000,-2676,-15998,-3889,-10,-16,-21
73,308,915005,-2815,-15998,-3685,-8,8,-25
73,309,915010,-2976,-15867,-3574,-13,12,-27
73,310,915015,-2924,-15846,-3637,-14,14,-28
73,311,915020,-2719,-15874,-3596,-12,34,-28
73,312,915025,-2608,-15863,-3309,-13,63,-28
73,313,915030,-2645,-15855,-2950,-14,59,-27
73,314,915035,-2505,-15805,-2695,-11,35,-26
73,315,915040,-2329,-15814,-2676,-8,10,-21
73,316,915045,-2241,-15933,-2821,-4,-4,-20
73,317,915050,-2297,-15977,-2994,-2,-28,-18
73,318,915055,-2341,-15941,-3138,-6,-62,-16
73,319,915060,-2403,-15823,-3219,-9,-86,-11
73,320,915065,-2590,-15818,-3127,-4,-90,-10
73,321,915070,-2620,-15819,-3175,-2,-92,-10
73,322,915075,-2387,-15922,-3314,0,-105,-3
73,323,915080,-2228,-16014,-3268,-2,-117,-3
73,324,915085,-2569,-15832,-3502,0,-125,-3
73,325,915090,-2579,-15774,-4032,3,-128,1
73,326,915095,-2813,-15653,-4219,2,-96,0
73,327,915100,-3006,-15666,-4165,2,-65,-6
73,328,915105,-3199,-15732,-3859,3,-46,0
73,329,915110,-3026,-15628,-4039,6,-28,2
73,330,915115,-2759,-15525,-4039,11,20,3
73,331,915120,-2854,-15552,-3615,13,54,-4
73,332,915125,-2934,-15712,-3149,13,27,-4
73,333,915130,-2891,-15927,-3100,16,-20,7
73,334,915135,-2708,-15854,-3295,16,-35,7
73,335,915140,-2632,-15662,-3389,17,-24,10
73,336,915145,-2613,-15753,-3413,17,-32,11
73,337,915150,-2760,-15905,-3589,18,-61,12
73,338,915155,-3339,-15954,-4021,10,-47,15
73,339,915160,-3382,-15847,-3744,10,-2,15
73,340,915165,-3098,-15712,-3365,7,26,16
73,341,915170,-2916,-15695,-3261,14,27,19
73,342,915175,-3138,-15743,-3301,17,28,14
73,343,915180,-3244,-15719,-3256,17,26,20
73,344,915185,-3124,-15470,-3146,13,12,26
73,345,915190,-2926,-15331,-2930,9,-9,29
73,346,915195,-3070,-15593,-2986,11,-38,32
73,347,915200,-3196,-15699,-3126,13,-56,37
73,348,915205,-3145,-15627,-3139,9,-54,46
73,349,915210,-3019,-15629,-3124,9,-36,51
73,350,915215,-3079,-15662,-2959,10,-27,53
73,351,915220,-3386,-15881,-2717,10,-30,55
73,352,915225,-3341,-15969,-2783,11,-39,67
73,353,915230,-3187,-15862,-2885,10,-25,74
73,354,915235,-3245,-15757,-2826,12,-7,76
73,355,915240,-3317,-15775,-2998,13,-25,89
73,356,915245,-3422,-15998,-3083,12,-44,99
73,357,915250,-3449,-16042,-3162,15,-41,102
73,358,915255,-3255,-15982,-3366,22,-12,113
73,359,915260,-3140,-15797,-3326,24,23,115
73,360,915265,-3519,-15742,-3211,24,31,116
73,361,915270,-3895,-15816,-3412,30,8,122
73,362,915275,-3943,-15753,-3841,30,13,134
73,363,915280,-3716,-15566,-3853,31,67,139
73,364,915285,-3801,-15547,-3311,35,110,139
73,365,915290,-3915,-15693,-3131,38,100,138
73,366,915295,-3735,-15747,-3249,39,87,147
73,367,915300,-3539,-15563,-3133,43,108,155
73,368,915305,-3512,-15418,-2705,44,132,154
73,369,915310,-3733,-15531,-2507,44,108,158
73,370,915315,-3651,-15663,-2577,45,58,170
73,371,915320,-3570,-15693,-2469,45,42,174
73,372,915325,-3551,-15759,-2092,48,55,176
73,373,915330,-3621,-15910,-2175,53,54,183
73,374,915335,-3486,-16054,-2685,52,42,187
73,375,915340,-3604,-15902,-2929,52,40,187
73,376,915345,-3847,-15738,-2999,50,38,192
73,377,915350,-3921,-15700,-3268,53,32,199
73,378,915355,-3846,-15781,-3639,54,39,201
73,379,915360,-3915,-15857,-3523,56,51,200
73,380,915365,-4092,-15971,-3290,58,53,196
73,381,915370,-4092,-15872,-3146,62,50,198
73,382,915375,-4024,-15696,-3017,65,51,197
73,383,915380,-3892,-15692,-2792,70,48,198
73,384,915385,-3767,-15660,-2564,72,19,197
73,385,915390,-3710,-15563,-2542,77,-42,205
73,386,915395,-3763,-15621,-2684,82,-100,210
73,387,915400,-3774,-15733,-2992,86,-125,213
73,388,915405,-3739,-15748,-3427,88,-109,212
73,389,915410,-3854,-15606,-3691,92,-64,208
73,390,915415,-4156,-15389,-3586,93,-15,205
73,391,915420,-4241,-15480,-3465,95,18,203
73,392,915425,-4186,-15604,-3319,99,55,203
73,393,915430,-4097,-15633,-3167,103,103,201
73,394,915435,-4113,-15575,-2809,108,142,196
73,395,915440,-4340,-15520,-2485,110,140,196
73,396,915445,-4380,-15611,-2474,113,107,198
73,397,915450,-4223,-15704,-2381,112,84,199
73,398,915455,-4106,-15673,-2119,115,63,200
73,399,915460,-4022,-15696,-2034,120,14,203
73,400,915465,-3936,-15921,-2294,122,-57,206
73,401,915470,-4007,-16074,-2178,128,-113,207
73,402,915475,-4220,-15999,-2039,130,-158,208
73,403,915480,-4184,-15953,-2600,135,-183,211
73,404,915485,-4192,-15906,-3408,137,-171,213
73,405,915490,-4362,-15787,-3286,132,-134,205
73,406,915495,-4628,-15703,-2842,128,-120,206
73,407,915500,-4548,-15778,-3145,134,-125,209
73,408,915505,-4493,-15834,-3447,138,-79,205
73,409,915510,-4584,-15767,-3085,139,-15,200
73,410,915515,-4551,-15710,-2580,140,-1,203
73,411,915520,-4359,-15662,-2442,142,-20,210
73,412,915525,-4167,-15562,-2489,143,10,214
73,413,915530,-4049,-15635,-2324,145,11,220
73,414,915535,-3956,-15714,-2336,148,-13,225
73,415,915540,-3894,-15889,-2444,148,-40,234
73,416,915545,-3962,-16056,-2544,148,-38,238
73,417,915550,-4144,-16098,-2538,147,-7,242
73,418,915555,-4301,-16188,-2504,148,16,249
73,419,915560,-4203,-16195,-2439,148,25,255
73,420,915565,-4005,-16231,-2556,146,28,260
73,421,915570,-4002,-16183,-2564,145,29,266
73,422,915575,-4169,-16154,-2769,145,20,268
73,423,915580,-4338,-16150,-2878,142,3,274
73,424,915585,-4357,-16047,-2948,138,2,281
73,425,915590,-4122,-15833,-2596,138,10,288
73,426,915595,-4087,-15714,-2103,140,16,290
73,427,915600,-4291,-15669,-2123,146,-18,298
73,428,915605,-4231,-15652,-2344,144,-59,311
73,429,915610,-4043,-15642,-2537,142,-72,320
73,430,915615,-4095,-15617,-2684,144,-53,324
73,431,915620,-4226,-15551,-2890,145,-26,327
73,432,915625,-4382,-15453,-2952,145,-3,328
73,433,915630,-4516,-15472,-2823,145,12,337
73,434,915635,-4492,-15553,-2586,142,43,341
73,435,915640,-4432,-15618,-2271,148,81,343
73,436,915645,-4372,-15646,-2278,151,99,347
73,437,915650,-4378,-15641,-2597,153,109,354
73,438,915655,-4315,-15684,-3121,151,112,357
73,439,915660,-4362,-15682,-3147,148,123,357
73,440,915665,-4587,-15683,-2789,143,134,359
73,441,915670,-4787,-15802,-2546,147,140,360
73,442,915675,-4899,-15949,-2478,148,149,361
73,443,915680,-4830,-15985,-2331,150,171,366
73,444,915685,-4570,-15871,-1924,153,164,374
73,445,915690,-4411,-15731,-1752,153,111,375
73,446,915695,-4401,-15752,-1907,156,24,379
73,447,915700,-4497,-15865,-2281,155,-48,383
73,448,915705,-4596,-15960,-2400,149,-80,388
73,449,915710,-4633,-15900,-2150,147,-81,392
73,450,915715,-4726,-15800,-2297,148,-71,393
73,451,915720,-4772,-15754,-2593,150,-55,394
73,452,915725,-4661,-15676,-2565,150,-39,395
73,453,915730,-4572,-15618,-2427,145,-38,396
73,454,915735,-4558,-15717,-2345,146,-55,398
73,455,915740,-4555,-15747,-2484,144,-61,395
73,456,915745,-4590,-15732,-2911,148,-38,395
73,457,915750,-4732,-15811,-3102,143,16,392
73,458,915755,-4925,-15883,-2857,142,67,384
73,459,915760,-4946,-15870,-2643,141,101,384
73,460,915765,-4819,-15786,-2541,141,136,381
73,461,915770,-4702,-15630,-2379,143,168,379
73,462,915775,-4721,-15558,-2125,141,161,379
73,463,915780,-4739,-15542,-1976,136,109,378
73,464,915785,-4713,-15519,-1892,135,45,385
73,465,915790,-4545,-15490,-1894,138,8,387
73,466,915795,-4537,-15528,-2095,137,0,381
73,467,915800,-4660,-15643,-2176,135,-18,380
73,468,915805,-4581,-15698,-2187,133,-58,380
73,469,915810,-4613,-15768,-2423,130,-90,381
73,470,915815,-4567,-15841,-2903,133,-91,377
73,471,915820,-4677,-15834,-2908,130,-64,367
73,472,915825,-4815,-15861,-2731,125,-51,360
73,473,915830,-4894,-15896,-2758,122,-50,355
73,474,915835,-4765,-15931,-2936,123,-15,352
73,475,915840,-4611,-15895,-2825,123,37,344
73,476,915845,-4485,-15769,-2448,123,69,337
73,477,915850,-4570,-15613,-2174,123,44,328
73,478,915855,-4492,-15561,-2164,122,-8,331
73,479,915860,-4301,-15551,-2402,123,-35,335
73,480,915865,-4138,-15525,-2589,122,-32,331
73,481,915870,-4166,-15592,-2490,119,-39,325
73,482,915875,-4304,-15679,-2507,119,-71,321
73,483,915880,-4336,-15717,-2772,119,-92,317
73,484,915885,-4334,-15617,-2991,117,-69,313
73,485,915890,-4312,-15593,-2943,118,-8,300
73,486,915895,-4339,-15670,-2957,114,-12,295
73,487,915900,-4275,-15763,-2734,113,-10,286
73,488,915905,-4115,-15715,-2706,111,11,280
73,489,915910,-3977,-15689,-2671,110,38,274
73,490,915915,-3950,-15651,-2679,107,40,265
73,491,915920,-4001,-15659,-2812,105,25,260
73,492,915925,-3986,-15636,-2901,104,23,257
73,493,915930,-3903,-15529,-2885,104,47,253
73,494,915935,-3883,-15405,-2822,102,61,247
73,495,915940,-3752,-15392,-2745,100,53,241
73,496,915945,-3740,-15510,-2544,99,26,234
73,497,915950,-3689,-15589,-2476,95,2,232
73,498,915955,-3628,-15533,-2684,93,-2,226
73,499,915960,-3662,-15394,-2784,88,11,218
73,500,915965,-3740,-15312,-2678,84,10,213
73,501,915970,-3773,-15359,-2617,81,-7,207
73,502,915975,-3598,-15418,-2640,75,-19,199
73,503,915980,-3430,-15392,-2600,73,-12,198
73,504,915985,-3396,-15477,-2745,76,-6,192
73,505,915990,-3469,-15572,-2831,74,-12,177
73,506,915995,-3591,-15688,-2888,70,-29,167
73,507,916000,-3584,-15725,-3065,64,-45,163
73,508,916005,-3563,-15699,-3136,61,-36,160
73,509,916010,-3455,-15681,-3129,57,-17,144
73,510,916015,-3491,-15768,-3130,55,-7,129
73,511,916020,-3484,-15757,-2991,53,-15,117
73,512,916025,-3465,-15691,-2976,50,-24,107
73,513,916030,-3414,-15681,-3044,45,-28,97
73,514,916035,-3443,-15660,-3138,40,-21,86
73,515,916040,-3370,-15585,-3213,36,-22,74
73,516,916045,-3281,-15480,-3308,32,-24,64
73,517,916050,-3320,-15425,-3323,27,-8,48
73,518,916055,-3255,-15359,-3496,26,22,35
73,519,916060,-3124,-15465,-3560,22,77,18
73,520,916065,-3136,-15504,-3308,20,126,3
73,521,916070,-3154,-15416,-3040,13,146,-11
73,522,916075,-3142,-15287,-2928,8,150,-25
73,523,916080,-2926,-15258,-2980,6,143,-39
73,524,916085,-2835,-15140,-2749,4,126,-51
73,525,916090,-2919,-15154,-2520,-6,77,-66
73,526,916095,-2873,-15266,-2593,-9,15,-75
73,527,916100,-2717,-15445,-2853,-10,-19,-84
73,528,916105,-2535,-15607,-2856,-15,-26,-99
73,529,916110,-2594,-15617,-3029,-23,-37,-114
73,530,916115,-2525,-15580,-3319,-31,-57,-128
73,531,916120,-2755,-15605,-3340,-39,-60,-149
73,532,916125,-3055,-15702,-3314,-44,-55,-172
73,533,916130,-2922,-15561,-3200,-48,-37,-181
73,534,916135,-2605,-15501,-3239,-55,-19,-199
73,535,916140,-2631,-15617,-3129,-62,-18,-223
73,536,916145,-2769,-15661,-3192,-69,-40,-238
73,537,916150,-2746,-15682,-3365,-75,-48,-249
73,538,916155,-2662,-15576,-3264,-85,-26,-270
73,539,916160,-2552,-15434,-3189,-88,-3,-289
73,540,916165,-2376,-15559,-3272,-91,11,-304
73,541,916170,-2322,-15672,-3119,-98,14,-322
73,542,916175,-2212,-15744,-2959,-105,-9,-339
73,543,916180,-2003,-15983,-2865,-113,-32,-349
73,544,916185,-1770,-16170,-2972,-113,-58,-362
73,545,916190,-1616,-16233,-3177,-116,-84,-380
73,546,916195,-1643,-16265,-3001,-123,-112,-400
73,547,916200,-1704,-16236,-3049,-127,-158,-415
73,548,916205,-1750,-16220,-3350,-134,-188,-428
73,549,916210,-1760,-16355,-3832,-142,-191,-445
73,550,916215,-1848,-16442,-3871,-147,-188,-456
73,551,916220,-1975,-16440,-3787,-158,-200,-478
73,552,916225,-2016,-16347,-3824,-164,-216,-506
73,553,916230,-1934,-16200,-3853,-165,-205,-529
73,554,916235,-1984,-16267,-3879,-169,-176,-535
73,555,916240,-1765,-16258,-4260,-169,-158,-555
73,556,916245,-1805,-16191,-4294,-180,-132,-587
73,557,916250,-2069,-16246,-4006,-192,-105,-606
73,558,916255,-1613,-16125,-3604,-199,-25,-648
73,559,916260,-1457,-16244,-3397,-197,10,-670
73,560,916265,-1300,-16504,-3206,-204,17,-689
73,561,916270,-1090,-16601,-3253,-205,15,-704
73,562,916275,-1021,-16623,-3190,-206,23,-721
73,563,916280,-1041,-16745,-3058,-209,25,-737
73,564,916285,-849,-16839,-2955,-218,-2,-748
73,565,916290,-608,-17035,-2825,-226,-60,-756
73,566,916295,-503,-17074,-2549,-234,-128,-772
73,567,916300,-725,-17049,-2532,-244,-206,-782
73,568,916305,-910,-17083,-3074,-250,-280,-794
73,569,916310,-1126,-17026,-3663,-262,-321,-807
73,570,916315,-1360,-17009,-4162,-274,-333,-819
73,571,916320,-1391,-16890,-4722,-282,-325,-833
73,572,916325,-1516,-16852,-4972,-283,-290,-852
73,573,916330,-1610,-16892,-4959,-289,-242,-876
73,574,916335,-1511,-17014,-4761,-294,-179,-893
73,575,916340,-1215,-17067,-4458,-298,-103,-907
73,576,916345,-980,-16887,-4238,-302,-24,-929
73,577,916350,-898,-16747,-4015,-301,30,-949
73,578,916355,-873,-16738,-3593,-309,58,-970
73,579,916360,-808,-16841,-3277,-317,63,-986
73,580,916365,-664,-17073,-3411,-320,71,-993
73,581,916370,-581,-17274,-3374,-323,105,-1007
73,582,916375,-724,-17419,-2991,-331,138,-1025
73,583,916380,-975,-17589,-2958,-337,149,-1037
73,584,916385,-940,-17664,-3323,-341,150,-1041
73,585,916390,-895,-17633,-3142,-349,153,-1049
73,586,916395,-977,-17488,-2513,-357,107,-1061
73,587,916400,-1188,-17514,-2177,-360,1,-1066
73,588,916405,-1302,-17693,-2577,-364,-122,-1066
73,589,916410,-1340,-17799,-3290,-366,-195,-1068
73,590,916415,-1366,-17631,-3609,-373,-222,-1078
73,591,916420,-1509,-17547,-3815,-383,-246,-1098
73,592,916425,-1747,-17735,-4094,-390,-256,-1109
73,593,916430,-2103,-17939,-4526,-395,-206,-1124
73,594,916435,-2427,-17830,-4628,-401,-87,-1140
73,595,916440,-2776,-17506,-4191,-408,38,-1160
73,596,916445,-3033,-17353,-3132,-413,95,-1174
73,597,916450,-2948,-17387,-2576,-415,59,-1183
73,598,916455,-1717,-13842,-3218,-410,12,-1194
73,599,916460,-3937,-9727,-3757,-414,-1,-1141
73,600,916465,-11122,-7674,13477,-337,335,-1182
73,601,916470,7441,-13055,-15980,-264,-696,-272
73,602,916475,5775,-19472,-5630,-185,1280,-755
73,603,916480,-6598,-19147,8429,-314,1438,-1335
73,604,916485,-1746,-18711,139,-243,-1043,-795
73,605,916490,-463,-15084,-9676,-265,-1278,-754
73,606,916495,-6016,-16085,-8833,-308,17,-946
73,607,916500,-4382,-17524,-3056,-302,632,-934
73,608,916505,-2846,-16088,-152,-334,556,-938
73,609,916510,-324,-16503,-4016,-294,48,-889
73,610,916515,-1594,-18117,-4322,-276,166,-914
73,611,916520,-3467,-17305,-2521,-294,477,-1000
73,612,916525,-3456,-16352,-629,-294,476,-979
73,613,916530,-2787,-16258,-1997,-312,209,-961
73,614,916535,-2600,-16823,-3866,-320,46,-949
73,615,916540,-2672,-17119,-3947,-314,147,-951
73,616,916545,-2781,-16600,-3093,-303,337,-979
73,617,916550,-2710,-16293,-2555,-284,371,-974
73,618,916555,-2665,-16372,-3074,-282,276,-956
73,619,916560,-2674,-16405,-3123,-290,215,-947
73,620,916565,-2528,-16543,-2741,-298,249,-941
73,621,916570,-1943,-16520,-2446,-286,291,-938
73,622,916575,-1740,-16284,-1541,-283,243,-941
73,623,916580,-2317,-16011,-1027,-276,55,-931
73,624,916585,-2642,-16011,-1888,-267,-162,-897
73,625,916590,-2412,-15959,-2958,-266,-232,-878
73,626,916595,-2337,-16005,-2777,-267,-175,-870
73,627,916600,-2241,-16050,-2458,-270,-174,-858
73,628,916605,-2001,-15994,-2899,-264,-227,-837
73,629,916610,-1932,-16317,-3780,-252,-229,-822
73,630,916615,-1975,-16376,-3922,-249,-129,-824
73,631,916620,-2012,-16380,-3307,-249,-35,-808
73,632,916625,-2308,-16243,-2887,-246,-75,-777
73,633,916630,-2371,-16424,-3197,-240,-90,-758
73,634,916635,-2339,-16352,-3357,-230,-54,-749
73,635,916640,-2334,-16287,-3072,-220,-25,-733
73,636,916645,-2261,-16282,-2841,-215,-51,-723
73,637,916650,-2021,-16450,-3131,-211,-95,-700
73,638,916655,-1771,-16337,-3142,-206,-87,-688
73,639,916660,-1753,-16166,-2735,-198,-63,-676
73,640,916665,-1708,-16096,-2625,-187,-78,-657
73,641,916670,-1565,-16120,-3263,-182,-117,-640
73,642,916675,-1343,-15925,-3626,-179,-135,-621
73,643,916680,-1365,-15704,-3242,-178,-141,-598
73,644,916685,-1357,-15631,-3154,-171,-168,-581
73,645,916690,-1317,-15672,-3237,-163,-202,-563
73,646,916695,-1310,-15744,-3271,-157,-230,-537
73,647,916700,-1263,-15789,-3244,-147,-246,-515
73,648,916705,-1137,-15826,-3293,-139,-255,-495
73,649,916710,-1163,-15685,-3475,-134,-255,-480
73,650,916715,-1287,-15548,-3708,-127,-246,-470
73,651,916720,-1237,-15584,-4057,-118,-217,-452
73,652,916725,-1140,-15724,-4250,-113,-181,-430
73,653,916730,-1073,-15772,-3840,-110,-143,-417
73,654,916735,-1087,-15747,-3405,-106,-127,-409
73,655,916740,-989,-15754,-3506,-95,-119,-395
73,656,916745,-1090,-15888,-3675,-89,-109,-387
73,657,916750,-1139,-15996,-3682,-90,-117,-379
73,658,916755,-783,-15813,-3530,-94,-135,-369
73,659,916760,-566,-15832,-3414,-89,-142,-349
73,660,916765,-340,-15793,-3761,-78,-121,-341
73,661,916770,-340,-15797,-3726,-73,-77,-340
73,662,916775,-648,-15675,-3326,-73,-51,-335
73,663,916780,-709,-15522,-3105,-71,-52,-318
73,664,916785,-387,-15418,-3167,-63,-48,-298
73,665,916790,4,-15361,-3219,-58,-26,-291
73,666,916795,87,-15481,-2853,-50,-28,-284
73,667,916800,129,-15578,-2753,-49,-91,-283
73,668,916805,172,-15576,-3013,-51,-171,-269
73,669,916810,304,-15693,-3166,-48,-232,-253
73,670,916815,288,-15657,-3085,-48,-263,-252
73,671,916820,-11,-15864,-3218,-46,-293,-247
73,672,916825,-35,-15871,-4225,-43,-324,-245
73,673,916830,-79,-15686,-4573,-46,-278,-239
73,674,916835,-162,-15756,-4250,-44,-226,-232
73,675,916840,-577,-16026,-4006,-42,-212,-238
73,676,916845,-491,-15962,-4163,-38,-200,-240
73,677,916850,-266,-15904,-4236,-30,-124,-233
73,678,916855,-216,-15730,-3954,-25,-44,-245
73,679,916860,-244,-15602,-3581,-23,-25,-248
73,680,916865,-241,-15566,-3435,-21,-50,-240
73,681,916870,46,-15560,-3619,-16,-68,-233
73,682,916875,422,-15628,-3916,-9,-59,-225
73,683,916880,679,-15680,-3915,-7,-44,-229
73,684,916885,914,-15731,-3855,-9,-53,-225
73,685,916890,1022,-15744,-3947,-4,-75,-219
73,686,916895,1066,-15838,-4117,0,-71,-219
73,687,916900,1028,-15835,-4139,0,-41,-218
73,688,916905,1050,-15868,-3891,0,-29,-209
73,689,916910,1265,-15860,-3624,1,-60,-202
73,690,916915,1273,-15825,-3434,4,-88,-196
73,691,916920,1224,-15775,-3441,9,-96,-186
73,692,916925,1354,-15616,-3541,14,-83,-176
73,693,916930,1564,-15599,-3584,18,-70,-162
73,694,916935,1485,-15568,-3492,19,-86,-155
73,695,916940,1533,-15478,-3688,16,-128,-140
73,696,916945,1508,-15464,-3921,17,-150,-127
73,697,916950,1415,-15381,-3947,22,-143,-121
73,698,916955,1510,-15230,-3993,25,-150,-101
73,699,916960,1806,-15205,-4276,26,-179,-85
73,700,916965,1992,-15367,-4562,30,-203,-74
73,701,916970,1876,-15564,-4706,30,-203,-68
73,702,916975,1496,-15647,-4867,35,-178,-65
73,703,916980,1287,-15565,-4701,35,-129,-62
73,704,916985,1173,-15521,-4601,34,-101,-52
73,705,916990,1325,-15655,-4395,39,-39,-30
73,706,916995,1559,-15696,-4275,44,-14,-24
73,707,917000,1727,-15587,-4101,43,-11,-16
73,708,917005,1800,-15526,-3837,45,-31,-7
73,709,917010,1704,-15557,-3909,48,-73,6
73,710,917015,1709,-15499,-4067,46,-107,22
73,711,917020,1752,-15483,-4361,47,-117,33
73,712,917025,1868,-15610,-4542,48,-105,43
73,713,917030,2130,-15672,-4703,49,-95,51
73,714,917035,2232,-15515,-4766,52,-88,53
73,715,917040,2223,-15359,-4971,53,-85,57
73,716,917045,1952,-15443,-5097,54,-68,61
73,717,917050,1863,-15454,-4990,50,-43,66
73,718,917055,1961,-15312,-4749,45,-11,75
73,719,917060,1924,-15295,-4531,46,12,78
73,720,917065,1926,-15343,-4313,49,11,81
73,721,917070,2005,-15338,-4343,51,-4,91
73,722,917075,1954,-15338,-4552,52,-16,96
73,723,917080,1798,-15323,-4635,53,-25,97
73,724,917085,1703,-15256,-4555,47,-35,100
73,725,917090,1631,-15363,-4450,46,-43,104
73,726,917095,1822,-15427,-4746,48,-42,109
73,727,917100,2024,-15499,-4879,50,-18,111
73,728,917105,1971,-15599,-4770,46,2,108
73,729,917110,1904,-15636,-4835,44,2,105
73,730,917115,1910,-15624,-5049,42,6,108
73,731,917120,1737,-15722,-5014,37,25,108
73,732,917125,1729,-15667,-4775,34,38,101
73,733,917130,1825,-15701,-4559,35,48,98
73,734,917135,1923,-15766,-4483,35,53,95
73,735,917140,2004,-15823,-4476,33,52,95
73,736,917145,2076,-15804,-4318,29,46,89
73,737,917150,1988,-15705,-4344,25,35,86
73,738,917155,1933,-15715,-4364,20,30,84
73,739,917160,2000,-15646,-4380,18,26,84
73,740,917165,2140,-15628,-4390,15,24,82
73,741,917170,2171,-15723,-4468,15,13,80
73,742,917175,2211,-15689,-4550,10,-9,76
73,743,917180,2048,-15572,-4618,8,-24,77
73,744,917185,2162,-15470,-4719,7,-30,75
73,745,917190,2250,-15480,-4434,2,-27,70
73,746,917195,2189,-15646,-4091,1,-46,65
73,747,917200,2249,-15741,-4130,-2,-92,61
73,748,917205,2350,-15677,-4493,-6,-118,57
73,749,917210,2212,-15568,-4722,-6,-112,50
73,750,917215,1955,-15497,-4706,-9,-98,47
73,751,917220,1965,-15583,-4896,-12,-90,46
73,752,917225,2055,-15742,-5074,-15,-71,44
73,753,917230,2101,-15782,-4957,-22,-37,35
73,754,917235,2125,-15792,-4806,-24,-4,29
73,755,917240,2278,-15715,-4822,-26,17,21
73,756,917245,2331,-15825,-4681,-26,30,18
73,757,917250,2287,-15904,-4492,-29,20,13
73,758,917255,2201,-15812,-4418,-31,4,12
73,759,917260,2071,-15689,-4447,-32,-2,8
73,760,917265,2075,-15672,-4669,-33,6,9
73,761,917270,2369,-15647,-4677,-35,26,11
73,762,917275,2604,-15655,-4545,-37,41,6
73,763,917280,2598,-15776,-4476,-36,36,0
73,764,917285,2580,-15802,-4422,-37,16,-4
73,765,917290,2591,-15747,-4463,-45,-10,-6
73,766,917295,2479,-15749,-4431,-46,-23,-2
73,767,917300,2474,-15786,-4483,-44,-27,-2
73,768,917305,2605,-15746,-4639,-43,-20,2
73,769,917310,2644,-15696,-4611,-43,-9,3
73,770,917315,2660,-15739,-4640,-42,-20,4
73,771,917320,2699,-15764,-4671,-43,-40,8
73,772,917325,2532,-15864,-4644,-45,-63,3
73,773,917330,2402,-15866,-4707,-45,-78,-3
73,774,917335,2395,-15777,-4583,-49,-72,-1
73,775,917340,2362,-15769,-4631,-43,-67,-4
73,776,917345,2303,-15767,-4464,-39,-62,-10
73,777,917350,2212,-15833,-4433,-43,-89,-10
73,778,917355,1967,-15691,-4783,-45,-115,-17
73,779,917360,1901,-15545,-4797,-48,-92,-19
73,780,917365,1881,-15560,-4896,-45,-64,-20
73,781,917370,1982,-15590,-4795,-43,-32,-20
73,782,917375,2201,-15581,-4604,-42,-6,-24
73,783,917380,2426,-15646,-4635,-35,7,-26
73,784,917385,2485,-15568,-4666,-34,23,-28
73,785,917390,2365,-15542,-4498,-33,27,-30
73,786,917395,2381,-15532,-4420,-38,4,-28
73,787,917400,2393,-15500,-4505,-39,-12,-18
73,788,917405,2436,-15568,-4552,-35,-7,-19
73,789,917410,2478,-15625,-4437,-33,13,-25
73,790,917415,2375,-15685,-4234,-35,13,-24
73,791,917420,2281,-15784,-4376,-35,-8,-23
73,792,917425,2202,-15769,-4539,-39,-17,-20
73,793,917430,2152,-15660,-4386,-40,-5,-20
73,794,917435,2001,-15582,-4306,-42,13,-20
73,795,917440,2116,-15541,-4364,-42,16,-16
73,796,917445,2209,-15590,-4304,-40,14,-12
73,797,917450,2204,-15670,-4090,-39,-8,-11
73,798,917455,2169,-15639,-4079,-39,-45,-13
73,799,917460,2073,-15639,-4300,-38,-72,-12
73,800,917465,1816,-15570,-4457,-39,-69,-12
73,801,917470,1721,-15382,-4545,-35,-49,-11
73,802,917475,1824,-15276,-4484,-33,-31,-11
73,803,917480,1939,-15372,-4409,-32,-33,-9
73,804,917485,2003,-15425,-4310,-29,-45,-7
73,805,917490,1948,-15376,-4359,-24,-58,-7
73,806,917495,1847,-15341,-4587,-25,-70,-11
73,807,917500,1728,-15437,-4807,-24,-77,-9
73,808,917505,1702,-15532,-4607,-26,-75,-10
73,809,917510,1889,-15479,-4387,-25,-69,-11
73,810,917515,1944,-15476,-4453,-17,-49,-14
73,811,917520,1864,-15615,-4470,-15,-23,-12
73,812,917525,1955,-15627,-4416,-16,-27,-10
73,813,917530,2080,-15597,-4288,-20,-46,-11
73,814,917535,2151,-15643,-4369,-18,-71,-11
73,815,917540,2022,-15642,-4408,-19,-80,-16
73,816,917545,1789,-15614,-4378,-16,-89,-16
73,817,917550,1640,-15613,-4457,-14,-98,-12
73,818,917555,1762,-15682,-4713,-14,-96,-4
73,819,917560,1879,-15850,-4676,-11,-70,-3
73,820,917565,1945,-15853,-4309,-15,-41,-6
73,821,917570,1989,-15922,-4164,-14,-28,-10
73,822,917575,2021,-15958,-4245,-8,-16,-7
73,823,917580,1981,-15839,-4282,-7,1,-3
73,824,917585,1820,-15687,-4150,-10,1,-5
73,825,917590,1766,-15779,-4180,-8,-35,-1
73,826,917595,1867,-15875,-4448,-7,-67,0
73,827,917600,1810,-15793,-4603,-5,-66,1
73,828,917605,1766,-15696,-4594,-1,-51,1
73,829,917610,1834,-15712,-4697,-3,-39,5
73,830,917615,1895,-15654,-4748,-4,-32,6
73,831,917620,1956,-15651,-4538,0,-26,7
73,832,917625,2066,-15591,-4338,-3,-15,11
73,833,917630,2140,-15571,-4230,-2,-13,16
73,834,917635,2082,-15544,-4224,0,-15,18
73,835,917640,2046,-15539,-4290,0,-25,22
73,836,917645,2017,-15587,-4374,2,-34,26
73,837,917650,2016,-15595,-4507,3,-40,26
73,838,917655,2010,-15496,-4606,5,-42,28
73,839,917660,1933,-15478,-4810,7,-41,32
73,840,917665,1963,-15593,-4893,7,-44,34
73,841,917670,1938,-15693,-4618,4,-46,28
73,842,917675,1815,-15748,-4384,6,-45,26
73,843,917680,1710,-15792,-4703,14,-31,29
73,844,917685,1804,-15728,-4865,15,3,34
73,845,917690,1815,-15670,-4764,16,40,33
73,846,917695,1838,-15807,-4718,18,57,29
73,847,917700,1952,-15834,-4615,19,67,26
73,848,917705,1904,-15758,-4513,20,73,28
73,849,917710,1827,-15691,-4485,22,71,27
73,850,917715,1884,-15617,-4565,22,60,27
73,851,917720,1951,-15618,-4550,19,49,26
73,852,917725,2010,-15572,-4670,25,38,26
73,853,917730,2000,-15513,-4690,24,34,25
73,854,917735,1917,-15446,-4645,20,30,21
73,855,917740,1857,-15409,-4574,25,18,23
73,856,917745,1896,-15328,-4492,22,16,23
73,857,917750,1883,-15270,-4338,26,13,21
73,858,917755,1795,-15322,-4293,27,-2,20
73,859,917760,1813,-15288,-4423,30,-36,24
73,860,917765,2020,-15318,-4645,31,-62,27
73,861,917770,2039,-15464,-4723,27,-72,24
73,862,917775,2008,-15524,-4727,28,-80,21
73,863,917780,1920,-15454,-4946,31,-76,22
73,864,917785,1850,-15553,-5125,29,-58,19
73,865,917790,1863,-15603,-5014,27,-32,13
73,866,917795,1748,-15698,-4759,29,-17,10
73,867,917800,1792,-15778,-4701,28,-12,13
73,868,917805,1886,-15722,-4858,29,0,9
73,869,917810,1901,-15761,-4833,30,17,7
73,870,917815,1875,-15730,-4734,27,23,6
73,871,917820,1929,-15691,-4675,29,18,7
73,872,917825,2074,-15673,-4679,29,16,7
73,873,917830,2148,-15690,-4744,30,19,8
73,874,917835,2135,-15763,-4612,26,20,5
73,875,917840,2199,-15693,-4622,24,9,7
73,876,917845,2134,-15560,-4714,26,1,9
73,877,917850,2083,-15517,-4711,26,-2,7
73,878,917855,1983,-15538,-4630,24,4,6
73,879,917860,1872,-15550,-4670,22,5,7
73,880,917865,1916,-15533,-4884,21,4,11
73,881,917870,1997,-15374,-4825,18,13,12
73,882,917875,1954,-15384,-4597,20,15,11
73,883,917880,1979,-15517,-4594,18,3,14
73,884,917885,2094,-15608,-4787,20,-1,14
73,885,917890,1954,-15703,-4834,18,12,12
73,886,917895,1851,-15748,-4657,13,24,11
73,887,917900,1815,-15691,-4625,10,23,15
73,888,917905,1724,-15731,-4651,13,20,16
73,889,917910,1752,-15720,-4664,14,12,16
73,890,917915,1854,-15712,-4687,13,0,19
73,891,917920,1960,-15761,-4669,14,-17,21
73,892,917925,2027,-15772,-4822,15,-35,21
73,893,917930,1847,-15688,-4906,17,-49,20
73,894,917935,1746,-15606,-4935,12,-55,20
73,895,917940,1826,-15592,-4924,11,-48,17
73,896,917945,1822,-15683,-4820,15,-32,19
73,897,917950,1914,-15704,-4713,15,-26,21
73,898,917955,1839,-15689,-4732,12,-23,19
73,899,917960,1689,-15735,-4851,10,-23,18
73,900,917965,1618,-15724,-4899,7,-21,22
73,901,917970,1650,-15674,-4874,9,-15,26
73,902,917975,1620,-15716,-4799,8,-12,23
73,903,917980,1718,-15667,-4896,5,-4,21
73,904,917985,1857,-15650,-5034,7,8,23
73,905,917990,1955,-15648,-5043,9,31,22
73,906,917995,2008,-15637,-4851,6,49,19
73,907,918000,1932,-15600,-4681,9,54,20
73,908,918005,1857,-15587,-4595,10,55,16
73,909,918010,1833,-15555,-4553,7,52,17
73,910,918015,1825,-15670,-4670,6,42,18
73,911,918020,1841,-15755,-4734,9,30,21
73,912,918025,1980,-15786,-4821,8,16,25
73,913,918030,2022,-15741,-4907,10,5,24
73,914,918035,1925,-15697,-5124,6,6,27
73,915,918040,1798,-15586,-5205,4,15,23
73,916,918045,1792,-15592,-5128,1,30,23
73,917,918050,1827,-15542,-4842,3,44,26
73,918,918055,1859,-15624,-4551,3,40,24
73,919,918060,2001,-15658,-4444,5,22,22
73,920,918065,2130,-15642,-4437,10,1,24
73,921,918070,2137,-15662,-4603,10,-23,26
73,922,918075,2102,-15701,-4791,9,-44,24
73,923,918080,1988,-15691,-4799,3,-51,23
73,924,918085,1943,-15667,-4840,4,-49,27
73,925,918090,2061,-15757,-5071,7,-11,29
73,926,918095,2063,-15856,-4832,-1,0,24
73,927,918100,2025,-15788,-4473,-1,-13,24
73,928,918105,1997,-15710,-4533,-3,-42,24
73,929,918110,1959,-15734,-4720,-6,-49,22
73,930,918115,1827,-15744,-4754,-7,-41,22
73,931,918120,1817,-15715,-4776,-11,-31,21
73,932,918125,1947,-15772,-4805,-13,-14,19
73,933,918130,1940,-15775,-4816,-14,8,16
73,934,918135,1834,-15737,-4672,-16,20,15
73,935,918140,1785,-15700,-4534,-21,15,12
73,936,918145,1808,-15758,-4543,-21,-1,9
73,937,918150,1923,-15765,-4515,-22,-13,11
73,938,918155,1942,-15771,-4452,-21,-16,8
73,939,918160,1909,-15778,-4628,-20,-26,5
73,940,918165,1788,-15798,-4857,-23,-34,4
73,941,918170,1669,-15717,-4932,-26,-36,0
73,942,918175,1790,-15644,-4865,-28,-30,0
73,943,918180,1884,-15653,-4740,-29,-23,-1
73,944,918185,1939,-15656,-4709,-30,-28,-3
73,945,918190,1929,-15617,-4713,-26,-36,-3
73,946,918195,1938,-15634,-4653,-28,-47,-3
73,947,918200,2025,-15654,-4684,-33,-58,-5
73,948,918205,2004,-15631,-4745,-31,-59,-7
73,949,918210,1884,-15564,-4767,-33,-54,-7
73,950,918215,1809,-15505,-4732,-36,-47,-6
73,951,918220,1849,-15542,-4713,-36,-41,-1
73,952,918225,1983,-15621,-4672,-37,-31,2
73,953,918230,1960,-15751,-4617,-40,-26,1
73,954,918235,1867,-15736,-4664,-42,-27,-3
73,955,918240,1749,-15648,-4776,-44,-22,-4
73,956,918245,1650,-15706,-4806,-43,-10,-1
73,957,918250,1684,-15727,-4754,-41,-4,2
73,958,918255,1836,-15670,-4605,-42,-6,1
73,959,918260,1861,-15640,-4617,-41,-15,0
73,960,918265,1836,-15609,-4691,-36,-25,3
73,961,918270,1718,-15584,-4832,-36,-25,1
73,962,918275,1597,-15573,-4799,-39,-19,4
73,963,918280,1668,-15585,-4756,-42,-9,5
73,964,918285,1849,-15647,-4805,-39,9,7
73,965,918290,1808,-15675,-4719,-39,22,5
73,966,918295,1642,-15613,-4504,-41,13,5
73,967,918300,1658,-15517,-4392,-48,-10,8
73,968,918305,1841,-15518,-4311,-46,-25,12
73,969,918310,1861,-15666,-4226,-43,-38,13
73,970,918315,1860,-15750,-4382,-40,-56,14
73,971,918320,1855,-15714,-4620,-40,-73,19
73,972,918325,1812,-15776,-4767,-41,-71,18
73,973,918330,1737,-15735,-4740,-44,-53,21
73,974,918335,1752,-15654,-4740,-40,-39,26
73,975,918340,1888,-15620,-4709,-38,-34,27
73,976,918345,1852,-15591,-4632,-41,-40,22
73,977,918350,1705,-15571,-4657,-40,-48,21
73,978,918355,1625,-15520,-4865,-38,-51,26
73,979,918360,1582,-15513,-4862,-37,-49,27
73,980,918365,1573,-15550,-4707,-39,-46,22
73,981,918370,1627,-15548,-4522,-42,-42,22
73,982,918375,1686,-15550,-4598,-39,-36,24
73,983,918380,1642,-15609,-4678,-34,-29,23
73,984,918385,1696,-15657,-4628,-32,-30,22
73,985,918390,1781,-15689,-4664,-33,-36,23
73,986,918395,1764,-15788,-4704,-36,-41,21
73,987,918400,1653,-15792,-4770,-34,-38,17
73,988,918405,1584,-15705,-4810,-33,-24,19
73,989,918410,1603,-15606,-4781,-35,-8,16
73,990,918415,1691,-15657,-4700,-33,0,14
73,991,918420,1799,-15709,-4620,-32,-2,15
73,992,918425,1890,-15717,-4521,-31,-6,12
73,993,918430,1913,-15729,-4448,-29,-17,14
73,994,918435,1829,-15726,-4452,-27,-34,15
73,995,918440,1711,-15689,-4564,-25,-46,14
73,996,918445,1654,-15669,-4731,-24,-45,16
73,997,918450,1778,-15632,-4751,-27,-36,19
73,998,918455,1634,-15619,-4617,-21,-34,16
73,999,918460,1626,-15563,-4661,-21,-42,21
