event_id,seq,ts_ms,ax,ay,az,gx,gy,gz
13,0,168579,7866,-11173,-9059,5,-2,-1
13,1,168584,7887,-11151,-9053,2,-2,-3
13,2,168589,7940,-11148,-9066,0,-12,-2
13,3,168594,7958,-11085,-9088,1,-21,-4
13,4,168599,7935,-11097,-9072,0,-23,-5
13,5,168604,7941,-11126,-9072,-1,-25,-4
13,6,168609,7916,-11161,-9066,1,-21,-4
13,7,168614,7883,-11160,-9103,4,-15,-5
13,8,168619,7910,-11154,-9106,2,-10,-5
13,9,168624,7971,-11166,-9100,1,-7,-3
13,10,168629,7928,-11139,-9053,0,-7,-4
13,11,168634,7948,-11120,-9047,0,-14,-2
13,12,168639,7944,-11126,-9081,2,-14,-4
13,13,168644,7893,-11072,-9087,1,-13,-4
13,14,168649,7887,-11070,-9074,0,-14,-2
13,15,168654,7970,-11144,-9104,3,-12,-2
13,16,168659,7963,-11175,-9146,1,-8,-4
13,17,168664,7908,-11122,-9136,2,-9,-2
13,18,168669,7936,-11133,-9161,2,-14,0
13,19,168674,7941,-11133,-9151,2,-13,-1
13,20,168679,7918,-11116,-9162,4,-8,-2
13,21,168684,7930,-11129,-9191,3,-3,-3
13,22,168689,7909,-11141,-9145,4,-2,-3
13,23,168694,7902,-11155,-9115,2,-4,-1
13,24,168699,7956,-11144,-9183,2,-4,-2
13,25,168704,7954,-11151,-9183,5,-5,-1
13,26,168709,7982,-11139,-9140,8,-7,1
13,27,168714,7970,-11158,-9172,7,-7,0
13,28,168719,7954,-11135,-9159,7,-7,2
13,29,168724,7941,-11149,-9204,8,-5,1
13,30,168729,7964,-11172,-9192,7,-2,1
13,31,168734,7937,-11162,-9221,7,5,1
13,32,168739,7974,-11165,-9220,8,6,-2
13,33,168744,7976,-11115,-9211,12,6,0
13,34,168749,7989,-11126,-9199,9,6,4
13,35,168754,8034,-11104,-9164,10,8,2
13,36,168759,8000,-11114,-9134,11,12,4
13,37,168764,8001,-11104,-9098,9,8,3
13,38,168769,8001,-11145,-9102,12,3,5
13,39,168774,7982,-11147,-9079,13,1,7
13,40,168779,7986,-11138,-9035,12,-1,5
13,41,168784,7988,-11138,-9041,13,1,7
13,42,168789,7961,-11123,-9047,11,0,9
13,43,168794,7938,-11116,-9000,10,0,5
13,44,168799,7891,-11102,-9047,8,0,6
13,45,168804,7864,-11073,-9090,8,-4,7
13,46,168809,7873,-11069,-9115,8,-6,7
13,47,168814,7893,-11092,-9174,9,-4,8
13,48,168819,7916,-11074,-9143,9,-5,10
13,49,168824,7945,-11060,-9125,10,-7,10
13,50,168829,7984,-11062,-9146,14,-11,11
13,51,168834,7985,-11078,-9143,12,-9,10
13,52,168839,7951,-11080,-9132,11,-3,9
13,53,168844,7888,-11094,-9184,10,5,9
13,54,168849,7855,-11118,-9132,9,9,9
13,55,168854,7917,-11109,-9096,10,14,8
13,56,168859,7954,-11137,-9121,11,18,9
13,57,168864,7937,-11106,-9102,11,22,11
13,58,168869,7936,-11100,-9093,11,26,12
13,59,168874,7923,-11108,-9052,10,27,13
13,60,168879,7864,-11115,-9105,9,27,11
13,61,168884,7854,-11102,-9103,9,25,9
13,62,168889,7877,-11124,-9135,11,25,12
13,63,168894,7906,-11117,-9145,12,27,11
13,64,168899,7915,-11100,-9125,12,24,10
13,65,168904,7942,-11129,-9113,10,18,12
13,66,168909,7871,-11119,-9149,9,15,12
13,67,168914,7852,-11078,-9124,10,9,12
13,68,168919,7887,-11127,-9108,10,7,12
13,69,168924,7937,-11103,-9106,11,9,11
13,70,168929,7940,-11059,-9117,13,9,12
13,71,168934,7967,-11100,-9145,10,7,12
13,72,168939,7981,-11127,-9120,11,9,15
13,73,168944,7963,-11129,-9118,10,11,16
13,74,168949,7947,-11167,-9116,10,14,14
13,75,168954,7907,-11164,-9096,12,20,12
13,76,168959,7874,-11170,-9104,14,24,12
13,77,168964,7901,-11152,-9131,12,28,10
13,78,168969,7943,-11162,-9109,10,30,13
13,79,168974,7948,-11162,-9054,10,31,11
13,80,168979,7967,-11135,-9049,13,25,13
13,81,168984,7982,-11148,-9067,15,25,13
13,82,168989,7947,-11140,-9054,12,24,14
13,83,168994,7940,-11120,-9098,13,24,14
13,84,168999,7984,-11131,-9124,15,26,15
13,85,169004,7941,-11145,-9124,18,28,15
13,86,169009,7947,-11151,-9146,15,23,14
13,87,169014,7956,-11176,-9118,15,23,18
13,88,169019,7987,-11178,-9147,15,20,17
13,89,169024,8009,-11197,-9136,17,17,17
13,90,169029,8013,-11199,-9137,17,18,18
13,91,169034,7954,-11200,-9102,19,24,17
13,92,169039,7944,-11214,-9089,17,25,17
13,93,169044,7940,-11223,-9087,19,28,17
13,94,169049,7995,-11230,-9065,20,32,18
13,95,169054,8001,-11237,-9052,21,39,19
13,96,169059,7938,-11204,-9057,23,46,20
13,97,169064,7976,-11172,-9023,24,44,18
13,98,169069,8021,-11205,-8984,22,43,18
13,99,169074,7969,-11216,-8968,23,40,21
13,100,169079,7949,-11209,-8977,22,39,19
13,101,169084,7962,-11178,-9000,22,34,18
13,102,169089,7978,-11201,-8972,21,31,18
13,103,169094,7955,-11206,-8969,22,28,21
13,104,169099,7952,-11195,-8971,24,30,22
13,105,169104,7954,-11195,-8976,25,31,22
13,106,169109,8016,-11194,-8945,25,33,21
13,107,169114,7986,-11240,-8931,23,37,20
13,108,169119,7983,-11209,-8913,25,37,24
13,109,169124,7983,-11203,-8900,25,38,24
13,110,169129,7926,-11218,-8895,22,39,20
13,111,169134,7949,-11189,-8890,21,38,23
13,112,169139,7935,-11209,-8913,22,40,23
13,113,169144,7935,-11246,-8922,23,40,22
13,114,169149,7933,-11231,-8878,21,39,24
13,115,169154,7928,-11219,-8920,19,43,21
13,116,169159,7886,-11251,-8867,18,45,19
13,117,169164,7907,-11296,-8827,22,40,23
13,118,169169,7927,-11262,-8873,20,39,24
13,119,169174,7933,-11303,-8795,16,39,24
13,120,169179,7946,-11267,-8791,19,34,24
13,121,169184,7947,-11236,-8792,20,28,22
13,122,169189,7955,-11263,-8829,20,21,23
13,123,169194,7920,-11280,-8849,18,22,22
13,124,169199,7937,-11253,-8795,19,23,23
13,125,169204,7946,-11246,-8808,21,23,23
13,126,169209,7955,-11246,-8772,20,18,22
13,127,169214,7965,-11267,-8762,17,17,25
13,128,169219,7951,-11276,-8717,19,16,27
13,129,169224,7957,-11253,-8727,17,13,27
13,130,169229,7968,-11285,-8745,14,13,26
13,131,169234,7975,-11332,-8776,13,9,27
13,132,169239,7954,-11365,-8778,14,12,28
13,133,169244,7887,-11365,-8810,13,14,26
13,134,169249,7880,-11383,-8835,13,11,25
13,135,169254,7905,-11385,-8856,13,12,26
13,136,169259,7879,-11355,-8837,15,15,26
13,137,169264,7869,-11398,-8857,15,16,26
13,138,169269,7872,-11371,-8796,14,15,29
13,139,169274,7865,-11387,-8818,13,18,27
13,140,169279,7924,-11386,-8882,12,23,26
13,141,169284,7894,-11353,-8870,10,26,26
13,142,169289,7846,-11359,-8814,11,32,27
13,143,169294,7886,-11322,-8820,9,35,28
13,144,169299,7895,-11331,-8791,11,43,26
13,145,169304,7868,-11337,-8793,14,48,23
13,146,169309,7872,-11313,-8787,12,49,25
13,147,169314,7903,-11294,-8769,10,45,24
13,148,169319,7973,-11319,-8774,11,40,26
13,149,169324,7947,-11336,-8715,13,30,25
13,150,169329,7919,-11324,-8769,12,21,25
13,151,169334,7923,-11365,-8792,11,10,25
13,152,169339,7921,-11377,-8792,10,3,25
13,153,169344,7937,-11385,-8758,12,2,25
13,154,169349,7894,-11392,-8805,12,2,24
13,155,169354,7908,-11350,-8817,11,3,21
13,156,169359,7892,-11343,-8813,13,8,21
13,157,169364,7902,-11362,-8800,12,9,23
13,158,169369,7900,-11327,-8766,10,14,20
13,159,169374,7900,-11323,-8742,10,16,21
13,160,169379,7963,-11326,-8753,10,16,19
13,161,169384,7924,-11300,-8738,9,16,17
13,162,169389,7939,-11324,-8770,9,18,18
13,163,169394,7954,-11341,-8743,7,16,17
13,164,169399,7973,-11345,-8724,7,13,18
13,165,169404,7981,-11324,-8753,5,13,18
13,166,169409,7981,-11317,-8749,7,13,18
13,167,169414,7977,-11310,-8741,5,12,18
13,168,169419,7957,-11338,-8727,5,8,19
13,169,169424,7952,-11303,-8784,6,7,20
13,170,169429,7908,-11325,-8785,5,10,18
13,171,169434,7909,-11317,-8748,3,12,21
13,172,169439,7924,-11274,-8779,6,9,20
13,173,169444,7979,-11285,-8797,5,7,22
13,174,169449,7961,-11265,-8761,3,8,21
13,175,169454,7929,-11265,-8767,2,6,21
13,176,169459,7940,-11296,-8790,1,1,24
13,177,169464,7951,-11296,-8758,4,0,26
13,178,169469,7960,-11283,-8736,1,0,26
13,179,169474,7966,-11310,-8711,2,-2,25
13,180,169479,7970,-11316,-8725,5,-7,27
13,181,169484,7922,-11308,-8628,1,-11,27
13,182,169489,7890,-11343,-8580,-2,-14,27
13,183,169494,7907,-11303,-8589,-4,-29,25
13,184,169499,7936,-11282,-8673,-3,-35,26
13,185,169504,7948,-11306,-8726,-4,-42,28
13,186,169509,7961,-11316,-8713,-5,-46,29
13,187,169514,7914,-11301,-8715,-7,-49,30
13,188,169519,7883,-11294,-8745,-7,-56,29
13,189,169524,7880,-11306,-8751,-10,-63,27
13,190,169529,7868,-11333,-8709,-11,-70,30
13,191,169534,7973,-11377,-8764,-10,-75,32
13,192,169539,7972,-11351,-8724,-12,-76,30
13,193,169544,7819,-11395,-8735,-15,-88,27
13,194,169549,7846,-11371,-8699,-16,-109,30
13,195,169554,8000,-11299,-8833,-17,-130,29
13,196,169559,8039,-11317,-8895,-18,-138,33
13,197,169564,8064,-11318,-8862,-18,-145,33
13,198,169569,8013,-11330,-8733,-18,-147,34
13,199,169574,8014,-11342,-8549,-22,-158,33
13,200,169579,7904,-11343,-8554,-27,-179,34
13,201,169584,7806,-11331,-8469,-31,-208,34
13,202,169589,7804,-11251,-8444,-35,-240,35
13,203,169594,7799,-11203,-8550,-38,-281,34
13,204,169599,7830,-11155,-8756,-40,-311,36
13,205,169604,7929,-11183,-8737,-43,-327,40
13,206,169609,7969,-11233,-8854,-46,-344,38
13,207,169614,7963,-11227,-8897,-49,-362,42
13,208,169619,8078,-11162,-8962,-51,-383,43
13,209,169624,8268,-11180,-9026,-52,-410,46
13,210,169629,8262,-11241,-8981,-56,-438,51
13,211,169634,8304,-11211,-9105,-60,-471,53
13,212,169639,8370,-11140,-9271,-62,-503,60
13,213,169644,8540,-11097,-9375,-62,-519,65
13,214,169649,8699,-11087,-9370,-57,-535,74
13,215,169654,8653,-11001,-9398,-62,-550,81
13,216,169659,8483,-10844,-9459,-63,-568,89
13,217,169664,8308,-10765,-9448,-60,-595,93
13,218,169669,8246,-10755,-9510,-60,-616,98
13,219,169674,8125,-10862,-9516,-60,-619,109
13,220,169679,7869,-10922,-9599,-61,-622,109
13,221,169684,7640,-10885,-9667,-62,-628,114
13,222,169689,7489,-10950,-9684,-60,-642,120
13,223,169694,7359,-11082,-9930,-57,-642,125
13,224,169699,7016,-11221,-9913,-59,-624,125
13,225,169704,6728,-11304,-9987,-58,-606,119
13,226,169709,6711,-11313,-10215,-58,-583,116
13,227,169714,6765,-11392,-10424,-54,-545,113
13,228,169719,6790,-11417,-10589,-50,-497,110
13,229,169724,6823,-11428,-10709,-45,-449,111
13,230,169729,6848,-11389,-10692,-41,-401,105
13,231,169734,7001,-11439,-10714,-33,-356,104
13,232,169739,7116,-11445,-10465,-27,-305,105
13,233,169744,7093,-11444,-10236,-28,-263,97
13,234,169749,7411,-11443,-9957,-27,-233,93
13,235,169754,7474,-11367,-10019,-26,-221,99
13,236,169759,7487,-11320,-10324,-22,-220,106
13,237,169764,7414,-11207,-10253,-18,-219,105
13,238,169769,7521,-11223,-10286,-12,-240,108
13,239,169774,7636,-11242,-10229,-5,-250,115
13,240,169779,7519,-11308,-10034,1,-246,124
13,241,169784,7474,-11265,-9940,-1,-258,127
13,242,169789,7211,-11184,-9774,-1,-292,138
13,243,169794,7063,-11135,-9732,-1,-344,145
13,244,169799,7161,-11132,-9889,3,-401,150
13,245,169804,7510,-11163,-10108,6,-443,158
13,246,169809,6876,-11090,-9410,7,-488,171
13,247,169814,6299,-11070,-8925,5,-605,176
13,248,169819,7139,-11003,-9902,8,-752,179
13,249,169824,6845,-11310,-9848,7,-766,200
13,250,169829,6788,-11313,-9781,1,-770,202
13,251,169834,6701,-11278,-9184,-2,-764,205
13,252,169839,6910,-11463,-10271,0,-801,209
13,253,169844,6879,-11644,-10669,2,-779,216
13,254,169849,6737,-11699,-11122,9,-765,215
13,255,169854,6433,-11716,-10952,16,-752,220
13,256,169859,6211,-11833,-10921,20,-780,227
13,257,169864,5623,-12037,-10933,24,-822,228
13,258,169869,5570,-12078,-11051,26,-812,228
13,259,169874,5610,-12046,-11267,29,-779,226
13,260,169879,5570,-11997,-11240,42,-717,225
13,261,169884,5519,-11947,-11094,48,-652,221
13,262,169889,5483,-11992,-11090,52,-602,216
13,263,169894,5436,-11966,-10853,57,-563,213
13,264,169899,5535,-12116,-10900,62,-540,207
13,265,169904,5614,-12194,-10627,71,-508,201
13,266,169909,5675,-12126,-10638,76,-493,199
13,267,169915,5626,-11968,-10406,79,-487,196
13,268,169921,5518,-11829,-10279,80,-507,193
13,269,169927,5350,-11672,-10153,85,-535,193
13,270,169933,5460,-11629,-10476,101,-575,198
13,271,169939,5544,-11622,-10589,111,-592,197
13,272,169945,5413,-11670,-10427,117,-622,197
13,273,169951,5109,-11638,-10349,122,-685,197
13,274,169957,4816,-11714,-10373,127,-752,198
13,275,169963,4540,-11590,-10350,130,-796,202
13,276,169969,4816,-11532,-10354,125,-799,201
13,277,169975,4795,-11828,-10107,123,-774,193
13,278,169981,4859,-11937,-10344,126,-754,184
13,279,169987,4682,-11695,-10380,139,-639,177
13,280,169993,4622,-11567,-10219,139,-582,179
13,281,169999,4565,-11532,-9978,139,-555,176
13,282,170005,4544,-11541,-9808,135,-566,175
13,283,170011,4531,-11597,-9841,133,-596,174
13,284,170017,4532,-11485,-10099,123,-642,177
13,285,170023,4585,-11434,-10148,123,-629,177
13,286,170029,4511,-11351,-10183,124,-600,177
13,287,170035,4611,-11235,-10232,126,-568,183
13,288,170042,4681,-11247,-9871,121,-538,180
13,289,170048,4717,-11179,-9938,119,-538,181
13,290,170054,4816,-11033,-10173,116,-534,184
13,291,170060,4925,-10984,-10851,112,-523,186
13,292,170066,4246,-11100,-10294,110,-491,183
13,293,170072,4283,-11357,-10536,131,-494,197
13,294,170078,4343,-11351,-10142,126,-463,186
13,295,170084,4391,-11509,-9839,119,-454,188
13,296,170090,4432,-11583,-10207,114,-482,189
13,297,170096,3986,-11639,-10668,112,-506,187
13,298,170102,4716,-11311,-9829,112,-468,185
13,299,170108,4858,-11379,-9681,92,-413,194
13,300,170114,4428,-11960,-10856,97,-373,208
13,301,170120,4603,-12072,-10465,102,-282,189
13,302,170126,4448,-12335,-10368,97,-307,203
13,303,170132,4157,-12242,-10359,97,-375,206
13,304,170138,4151,-12199,-10285,96,-489,218
13,305,170144,4336,-12141,-10171,98,-619,227
13,306,170150,4435,-12075,-10059,97,-946,250
13,307,170156,4345,-12080,-9958,98,-1144,265
13,308,170162,4158,-12009,-10099,99,-1363,279
13,309,170168,3923,-11977,-10370,104,-1591,301
13,310,170174,3660,-11918,-10333,106,-1803,312
13,311,170180,2563,-11844,-10376,115,-2218,336
13,312,170186,1996,-11850,-10207,118,-2404,338
13,313,170192,1814,-11970,-10074,124,-2569,342
13,314,170198,1851,-12108,-10572,123,-2686,342
13,315,170204,1897,-12162,-10859,119,-2745,333
13,316,170210,1419,-12167,-10560,109,-2828,320
13,317,170216,1324,-12136,-10874,104,-2851,319
13,318,170222,1242,-11895,-11077,101,-2802,318
13,319,170228,729,-11569,-10487,96,-2706,308
13,320,170234,1273,-11253,-11475,97,-2467,311
13,321,170240,2497,-11908,-10171,64,-2362,284
13,322,170246,2098,-11619,-9668,53,-2410,259
13,323,170252,1258,-12045,-12356,69,-2470,278
13,324,170259,121,-11401,-11631,48,-2057,250
13,325,170265,244,-11225,-10879,53,-1930,265
13,326,170271,10,-11044,-11719,61,-1877,264
13,327,170277,-204,-11177,-12044,53,-1728,265
13,328,170283,48,-11179,-11570,53,-1537,257
13,329,170289,-64,-11555,-11091,44,-1256,240
13,330,170295,-16,-11678,-11593,43,-1200,238
13,331,170301,16,-11724,-11791,45,-1113,231
13,332,170307,-268,-11695,-11820,48,-1004,223
13,333,170313,-789,-11652,-11413,47,-870,223
13,334,170319,-1006,-11530,-11108,43,-860,233
13,335,170326,-1287,-11394,-10891,42,-846,237
13,336,170332,-1249,-11331,-11170,49,-819,243
13,337,170338,-1290,-11107,-10877,62,-709,249
13,338,170344,-1172,-11091,-10691,60,-709,254
13,339,170350,-1242,-11103,-10578,64,-742,266
13,340,170356,-959,-11159,-10995,66,-790,279
13,341,170363,-1232,-11162,-11037,63,-872,286
13,342,170369,-1293,-11219,-10923,65,-940,295
13,343,170375,-1348,-11195,-11033,67,-998,305
13,344,170381,-1660,-11269,-11229,68,-1018,313
13,345,170387,-1840,-11243,-11012,72,-1036,336
13,346,170393,-1387,-11362,-10568,74,-1052,346
13,347,170399,-1290,-11265,-10343,69,-1084,359
13,348,170405,-1330,-11049,-10664,65,-1136,379
13,349,170412,-1466,-10888,-10527,67,-1237,401
13,350,170418,-1615,-10636,-10155,70,-1314,412
13,351,170424,-1604,-10418,-10911,80,-1395,428
13,352,170430,-1542,-10264,-10746,83,-1416,440
13,353,170436,-2133,-10269,-9228,69,-1466,463
13,354,170442,-2439,-10420,-9446,62,-1621,484
13,355,170448,-2582,-10528,-10019,60,-1729,510
13,356,170455,-2357,-10522,-10549,53,-1753,521
13,357,170461,-1882,-10076,-10616,52,-1801,549
13,358,170467,-2289,-9842,-10402,54,-1854,561
13,359,170473,-2920,-9531,-11008,53,-1902,574
13,360,170479,-2047,-9045,-13308,60,-1918,586
13,361,170485,-2771,-9453,-10787,76,-1758,581
13,362,170491,-3746,-10096,-9986,48,-1789,606
13,363,170497,-3985,-10107,-10747,52,-1791,623
13,364,170503,-4704,-9564,-10695,51,-1769,629
13,365,170509,-4585,-9401,-10535,55,-1752,632
13,366,170516,-4075,-9339,-10236,54,-1750,655
13,367,170522,-3925,-9336,-9884,41,-1762,666
13,368,170528,-3819,-9140,-10241,36,-1824,682
13,369,170534,-3727,-8925,-10122,39,-1864,705
13,370,170540,-3852,-8907,-10048,46,-1931,728
13,371,170546,-3742,-9047,-9971,44,-1976,738
13,372,170552,-3934,-9037,-9374,38,-2030,758
13,373,170558,-4384,-9147,-8701,38,-2104,783
13,374,170564,-5021,-9689,-8731,33,-2206,823
13,375,170570,-5154,-9975,-8103,32,-2217,844
13,376,170576,-5555,-9972,-7755,32,-2274,866
13,377,170583,-6041,-9935,-7622,26,-2357,893
13,378,170594,-6801,-9630,-7697,18,-2674,951
13,379,170600,-6936,-9690,-7737,21,-2795,977
13,380,170606,-7179,-9940,-7667,20,-2915,1010
13,381,170612,-7492,-10025,-7692,14,-3020,1033
13,382,170618,-7827,-10194,-8153,15,-3085,1058
13,383,170624,-9161,-10177,-8318,21,-2996,1083
13,384,170630,-9658,-10173,-10603,32,-2951,1104
13,385,170636,-9072,-10166,-8850,51,-2757,1098
13,386,170642,-8977,-10472,-7006,37,-2621,1103
13,387,170648,-9348,-11211,-9159,27,-2425,1170
13,388,170654,-9865,-11057,-9448,29,-2229,1182
13,389,170660,-9938,-10670,-9334,28,-2015,1192
13,390,170666,-9844,-10319,-8967,28,-1759,1202
13,391,170672,-9659,-10078,-8588,33,-1509,1216
13,392,170678,-9769,-10104,-7994,25,-1066,1245
13,393,170684,-10100,-10296,-7723,19,-884,1268
13,394,170685,-10100,-10296,-7723,19,-884,1268
13,395,170686,-10100,-10296,-7723,19,-884,1268
13,396,170687,-10100,-10296,-7723,19,-884,1268
13,397,170687,-10100,-10296,-7723,19,-884,1268
13,398,170688,-10555,-10307,-7435,8,-712,1285
13,399,170689,-10555,-10307,-7435,8,-712,1285
13,400,170690,-10555,-10307,-7435,8,-712,1285
13,401,170690,-10555,-10307,-7435,8,-712,1285
13,402,170691,-10555,-10307,-7435,8,-712,1285
13,403,170692,-10555,-10307,-7435,8,-712,1285
13,404,170693,-10885,-10394,-7200,-2,-581,1306
13,405,170693,-10885,-10394,-7200,-2,-581,1306
13,406,170694,-10885,-10394,-7200,-2,-581,1306
13,407,170695,-10885,-10394,-7200,-2,-581,1306
13,408,170695,-10885,-10394,-7200,-2,-581,1306
13,409,170696,-10885,-10394,-7200,-2,-581,1306
13,410,170697,-10885,-10394,-7200,-2,-581,1306
13,411,170698,-11031,-10403,-7028,-5,-500,1323
13,412,170698,-11031,-10403,-7028,-5,-500,1323
13,413,170699,-11031,-10403,-7028,-5,-500,1323
13,414,170700,-11031,-10403,-7028,-5,-500,1323
13,415,170701,-11031,-10403,-7028,-5,-500,1323
13,416,170701,-11031,-10403,-7028,-5,-500,1323
13,417,170702,-11031,-10403,-7028,-5,-500,1323
13,418,170703,-11113,-10424,-5716,-19,-439,1339
13,419,170704,-11113,-10424,-5716,-19,-439,1339
13,420,170704,-11113,-10424,-5716,-19,-439,1339
13,421,170705,-11113,-10424,-5716,-19,-439,1339
13,422,170706,-11113,-10424,-5716,-19,-439,1339
13,423,170707,-11113,-10424,-5716,-19,-439,1339
13,424,170707,-11378,-10603,-5143,-33,-447,1366
13,425,170708,-11378,-10603,-5143,-33,-447,1366
13,426,170709,-11378,-10603,-5143,-33,-447,1366
13,427,170714,-11647,-10796,-4897,-46,-463,1391
13,428,170719,-11730,-10802,-4705,-56,-485,1411
13,429,170724,-11760,-10690,-4254,-72,-532,1429
13,430,170729,-11749,-10565,-4360,-85,-629,1456
13,431,170734,-11345,-10354,-4124,-99,-747,1484
13,432,170739,-11187,-10188,-4408,-108,-865,1506
13,433,170744,-11199,-10187,-4547,-118,-964,1531
13,434,170749,-11283,-10021,-4484,-131,-1050,1562
13,435,170754,-11440,-9741,-4015,-140,-1137,1591
13,436,170759,-11576,-9576,-4320,-139,-1218,1618
13,437,170764,-11827,-9465,-4483,-145,-1250,1633
13,438,170769,-11819,-9443,-4311,-149,-1283,1649
13,439,170774,-11966,-9521,-4188,-150,-1354,1670
13,440,170779,-12328,-9559,-4450,-158,-1449,1689
13,441,170784,-12481,-9448,-4533,-167,-1509,1704
13,442,170789,-12603,-9403,-4788,-166,-1535,1712
13,443,170794,-12814,-9359,-4597,-165,-1512,1717
13,444,170799,-12989,-9302,-4533,-161,-1498,1728
13,445,170804,-13090,-9209,-4530,-161,-1472,1739
13,446,170809,-12868,-9109,-4584,-163,-1428,1744
13,447,170814,-13004,-8937,-4710,-167,-1343,1749
13,448,170819,-13237,-8733,-4538,-169,-1267,1757
13,449,170824,-13382,-8481,-4207,-170,-1217,1760
13,450,170829,-13630,-8318,-4357,-173,-1182,1761
13,451,170834,-13848,-8185,-4608,-174,-1126,1765
13,452,170839,-14203,-8018,-4027,-177,-1046,1759
13,453,170844,-14300,-7955,-3636,-182,-1006,1749
13,454,170849,-14235,-7990,-3694,-183,-986,1740
13,455,170854,-14229,-8070,-3441,-185,-965,1725
13,456,170859,-13981,-8198,-3315,-188,-968,1726
13,457,170864,-13757,-8388,-2987,-197,-982,1732
13,458,170869,-13638,-8531,-2790,-199,-1011,1731
13,459,170874,-13740,-8530,-2611,-205,-1040,1729
13,460,170879,-14005,-8477,-2490,-212,-1063,1726
13,461,170885,-14597,-8052,-1981,-222,-1052,1705
13,462,170891,-14967,-7921,-1849,-223,-1029,1690
13,463,170897,-15377,-7839,-2060,-228,-1004,1671
13,464,170903,-15636,-7734,-2164,-233,-977,1654
13,465,170909,-15553,-7606,-2289,-239,-972,1640
13,466,170915,-15760,-7461,-2094,-244,-985,1593
13,467,170921,-16033,-7501,-2299,-250,-1001,1568
13,468,170928,-16062,-7500,-2685,-250,-992,1540
13,469,170934,-16020,-7431,-2830,-253,-961,1513
13,470,170940,-15180,-7237,-2624,-249,-926,1472
13,471,170946,-14984,-7192,-2394,-253,-940,1449
13,472,170952,-15147,-7124,-2243,-253,-967,1423
13,473,170958,-15251,-7057,-2319,-256,-977,1397
13,474,170964,-15593,-7249,-1902,-257,-914,1321
13,475,170970,-15816,-7322,-2025,-259,-894,1288
13,476,170976,-16090,-7357,-1931,-254,-880,1254
13,477,170982,-16385,-7504,-1567,-257,-874,1220
13,478,170989,-16736,-7840,-1632,-270,-881,1140
13,479,170995,-16745,-7924,-1584,-274,-888,1095
13,480,171001,-16810,-7975,-1544,-277,-901,1052
13,481,171007,-16797,-8001,-1639,-278,-906,1004
13,482,171013,-16907,-7950,-1592,-282,-889,953
13,483,171019,-17139,-7612,-1582,-287,-868,855
13,484,171025,-17091,-7425,-1974,-294,-854,802
13,485,171031,-16874,-7231,-2225,-300,-816,744
13,486,171037,-16923,-6992,-2078,-305,-777,684
13,487,171043,-16836,-6634,-2047,-315,-732,578
13,488,171049,-17051,-6576,-1953,-321,-697,515
13,489,171055,-17309,-6548,-1987,-327,-663,454
13,490,171062,-17359,-6493,-2179,-332,-634,387
13,491,171068,-17404,-6390,-2209,-341,-554,256
13,492,171074,-17353,-6334,-2247,-345,-522,186
13,493,171080,-17249,-6261,-2119,-349,-492,123
13,494,171086,-17269,-6180,-2053,-355,-468,59
13,495,171092,-17375,-6084,-1856,-373,-434,-70
13,496,171098,-17296,-6122,-1426,-380,-432,-137
13,497,171104,-17294,-6173,-1139,-390,-436,-202
13,498,171110,-16984,-6283,-2130,-392,-468,-263
13,499,171116,-17138,-6418,-1316,-393,-438,-337
13,500,171122,-17299,-6454,-1123,-416,-512,-459
13,501,171128,-17284,-6504,-1133,-421,-511,-523
13,502,171135,-17243,-6515,-945,-431,-496,-582
13,503,171141,-17238,-6429,-947,-440,-487,-649
13,504,171147,-17364,-6442,-1042,-450,-542,-774
13,505,171153,-17463,-6423,-1018,-465,-571,-831
13,506,171159,-17622,-6560,-991,-474,-585,-892
13,507,171165,-17654,-6550,-1181,-483,-593,-952
13,508,171171,-17620,-6560,-1428,-501,-523,-1082
13,509,171177,-17638,-6424,-1481,-507,-473,-1145
13,510,171183,-17432,-6193,-1790,-515,-415,-1208
13,511,171189,-17416,-5959,-1551,-524,-326,-1271
13,512,171196,-17150,-5694,-1242,-531,-156,-1399
13,513,171202,-17158,-5586,-1299,-539,-64,-1463
13,514,171208,-17127,-5556,-1551,-544,17,-1516
13,515,171214,-17036,-5437,-1650,-547,90,-1571
13,516,171220,-16487,-5352,-1685,-557,190,-1684
13,517,171226,-16354,-5288,-1109,-560,248,-1747
13,518,171233,-16183,-5273,-1246,-570,275,-1808
13,519,171239,-15721,-5627,-2116,-568,290,-1853
13,520,171245,-15703,-5882,-2019,-563,357,-1906
13,521,171251,-15264,-6109,-2161,-559,422,-1994
13,522,171257,-15598,-6163,-1755,-559,468,-2044
13,523,171263,-15464,-6517,-1803,-557,488,-2083
13,524,171270,-15544,-7025,-1757,-556,619,-2182
13,525,171276,-15565,-7198,-1785,-555,665,-2232
13,526,171282,-15822,-7308,-2044,-549,698,-2280
13,527,171288,-16142,-7483,-2208,-545,743,-2327
13,528,171294,-16362,-7480,-2434,-534,872,-2415
13,529,171300,-16397,-7266,-2377,-523,930,-2462
13,530,171306,-16249,-7091,-2301,-511,966,-2507
13,531,171313,-16098,-6820,-2096,-497,1000,-2558
13,532,171319,-15968,-6781,-2066,-484,1008,-2603
13,533,171325,-15652,-7182,-2833,-468,959,-2686
13,534,171331,-15495,-7298,-3146,-460,928,-2722
13,535,171337,-15293,-7396,-3564,-451,903,-2762
13,536,171343,-15174,-7579,-4008,-437,906,-2799
13,537,171349,-14693,-7684,-4570,-403,1027,-2889
13,538,171356,-14455,-7777,-4592,-382,1132,-2929
13,539,171362,-14247,-7890,-4613,-364,1248,-2970
13,540,171368,-14089,-8067,-4782,-335,1381,-3005
13,541,171374,-14389,-8394,-4345,-290,1667,-3073
13,542,171380,-14149,-8475,-4143,-265,1733,-3097
13,543,171386,-13750,-8502,-3906,-237,1768,-3131
13,544,171392,-13419,-8533,-4066,-210,1748,-3166
13,545,171398,-13551,-8335,-4717,-170,1622,-3217
13,546,171404,-13501,-8266,-4470,-145,1562,-3237
13,547,171411,-12999,-8273,-3843,-117,1519,-3257
13,548,171417,-12481,-8411,-3930,-90,1481,-3272
13,549,171423,-12148,-9215,-4286,-57,1469,-3305
13,550,171429,-11816,-9731,-4575,-31,1470,-3320
13,551,171435,-11347,-10098,-4854,-9,1507,-3340
13,552,171441,-10890,-10457,-5251,12,1578,-3350
13,553,171447,-10688,-10642,-5392,25,1668,-3361
13,554,171448,-10596,-10709,-5346,41,1762,-3359
13,555,171449,-10596,-10709,-5346,41,1762,-3359
13,556,171449,-10596,-10709,-5346,41,1762,-3359
13,557,171450,-10596,-10709,-5346,41,1762,-3359
13,558,171451,-10596,-10709,-5346,41,1762,-3359
13,559,171451,-10596,-10709,-5346,41,1762,-3359
13,560,171452,-10110,-10788,-4987,70,1871,-3356
13,561,171453,-10110,-10788,-4987,70,1871,-3356
13,562,171454,-10110,-10788,-4987,70,1871,-3356
13,563,171454,-10110,-10788,-4987,70,1871,-3356
13,564,171455,-10110,-10788,-4987,70,1871,-3356
13,565,171456,-10110,-10788,-4987,70,1871,-3356
13,566,171457,-10110,-10788,-4987,70,1871,-3356
13,567,171457,-8881,-10768,-4587,102,1997,-3357
13,568,171458,-8881,-10768,-4587,102,1997,-3357
13,569,171459,-8881,-10768,-4587,102,1997,-3357
13,570,171460,-8881,-10768,-4587,102,1997,-3357
13,571,171460,-8881,-10768,-4587,102,1997,-3357
13,572,171461,-8881,-10768,-4587,102,1997,-3357
13,573,171462,-8881,-10768,-4587,102,1997,-3357
13,574,171463,-8697,-11095,-4770,134,2113,-3361
13,575,171463,-8697,-11095,-4770,134,2113,-3361
13,576,171464,-8697,-11095,-4770,134,2113,-3361
13,577,171465,-8697,-11095,-4770,134,2113,-3361
13,578,171469,-8615,-11641,-4366,161,2164,-3356
13,579,171474,-8249,-11614,-4376,187,2116,-3352
13,580,171479,-7511,-12112,-4364,212,2068,-3328
13,581,171484,-7434,-12412,-4030,226,2048,-3303
13,582,171489,-7421,-12605,-3741,241,2001,-3279
13,583,171494,-7245,-12784,-3518,266,1929,-3242
13,584,171499,-6979,-12823,-3573,286,1854,-3203
13,585,171504,-6731,-13136,-3534,307,1788,-3163
13,586,171509,-6311,-13288,-3149,320,1706,-3130
13,587,171514,-5547,-13504,-3275,331,1585,-3087
13,588,171519,-4755,-13668,-3513,341,1472,-3042
13,589,171524,-4201,-13813,-3665,347,1379,-2994
13,590,171529,-3720,-14045,-3714,356,1285,-2932
13,591,171534,-3180,-14326,-4035,365,1201,-2865
13,592,171539,-2657,-14652,-4278,369,1145,-2803
13,593,171544,-2393,-14687,-3807,367,1100,-2746
13,594,171549,-2227,-14958,-3608,372,1019,-2669
13,595,171554,-1951,-15177,-4227,387,933,-2583
13,596,171559,-2085,-15489,-5652,401,956,-2499
13,597,171564,-1874,-15500,-5889,389,1107,-2408
13,598,171569,-408,-15760,-4521,376,1232,-2322
13,599,171574,66,-14982,1746,344,1091,-2226
13,600,171579,-817,-14102,6960,333,224,-2038
13,601,171584,-1213,-13962,3179,350,-1224,-1712
13,602,171589,263,-14902,-8000,337,-2165,-1303
13,603,171594,1618,-16155,-15307,247,-1577,-1077
13,604,171599,780,-16340,-16375,226,-161,-989
13,605,171604,1791,-16782,-13930,251,1016,-844
13,606,171609,1565,-16195,-12128,251,1654,-726
13,607,171614,2179,-15665,-12773,269,1934,-610
13,608,171619,2445,-15511,-11399,259,2365,-486
13,609,171624,3040,-14682,-9755,226,2702,-397
13,610,171629,3645,-14291,-7106,203,2859,-290
13,611,171634,4066,-13628,-6246,190,2771,-185
13,612,171639,4089,-13160,-5922,181,2632,-95
13,613,171644,3251,-13280,-4298,184,2462,-12
13,614,171649,1538,-12828,-2648,154,2227,37
13,615,171654,406,-12714,-1823,113,1859,115
13,616,171659,-748,-12904,-1856,74,1450,181
13,617,171664,-1496,-12900,-1918,45,1059,220
13,618,171669,-1873,-12966,-2490,25,723,247
13,619,171674,-2361,-12857,-2405,3,490,254
13,620,171679,-2604,-12831,-1796,-17,240,263
13,621,171684,-2789,-12885,-1668,-37,-56,279
13,622,171689,-2515,-13486,-2979,-73,-627,314
13,623,171694,-2471,-13625,-3257,-94,-843,321
13,624,171699,-2183,-13940,-3314,-101,-1065,348
13,625,171704,-1964,-14170,-3857,-115,-1273,362
13,626,171709,-1824,-14359,-4876,-128,-1409,373
13,627,171714,-1837,-14569,-5404,-141,-1425,379
13,628,171719,-1723,-14682,-5890,-149,-1408,385
13,629,171724,-1631,-14654,-6034,-155,-1364,398
13,630,171729,-1609,-14616,-6497,-156,-1311,404
13,631,171734,-1801,-14648,-7048,-163,-1236,407
13,632,171739,-1701,-14672,-7602,-167,-1133,412
13,633,171744,-1765,-14897,-7678,-167,-964,411
13,634,171749,-2736,-15301,-7417,-175,-860,416
13,635,171754,-2830,-15306,-5198,-182,-824,444
13,636,171759,-2881,-15742,-5618,-155,-880,464
13,637,171764,-3477,-16121,-5398,-153,-833,463
13,638,171769,-3678,-16381,-4866,-169,-812,468
13,639,171774,-3466,-16503,-4583,-163,-883,466
13,640,171779,-3399,-16750,-4811,-160,-949,463
13,641,171784,-3587,-16820,-4895,-169,-977,453
13,642,171789,-3740,-16861,-4716,-182,-988,447
13,643,171794,-3897,-16934,-4696,-194,-1009,443
13,644,171799,-3987,-16952,-4740,-201,-1046,444
13,645,171804,-4026,-16952,-5153,-206,-1066,441
13,646,171809,-4003,-16824,-5438,-209,-1043,436
13,647,171814,-3756,-16667,-5506,-217,-1005,430
13,648,171819,-3409,-16368,-5828,-217,-977,423
13,649,171824,-3115,-16107,-6007,-223,-951,421
13,650,171829,-2740,-15859,-6305,-223,-924,417
13,651,171834,-2471,-15617,-6421,-227,-881,413
13,652,171839,-2249,-15354,-6365,-223,-838,410
13,653,171844,-2211,-15104,-6421,-220,-805,402
13,654,171849,-2131,-14894,-6405,-217,-773,397
13,655,171854,-2085,-14768,-6475,-211,-749,392
13,656,171859,-2048,-14672,-6527,-206,-729,387
13,657,171864,-2080,-14576,-6486,-202,-723,383
13,658,171869,-2209,-14523,-6609,-196,-740,380
13,659,171874,-2343,-14457,-6799,-188,-756,373
13,660,171879,-2324,-14341,-6954,-180,-764,364
13,661,171884,-2329,-14195,-6892,-175,-762,354
13,662,171889,-2474,-14177,-6829,-163,-762,344
13,663,171894,-2801,-14201,-6853,-153,-753,335
13,664,171899,-3151,-14302,-7052,-147,-736,329
13,665,171904,-3487,-14497,-7119,-140,-690,314
13,666,171909,-3755,-14651,-7037,-131,-610,298
13,667,171914,-3902,-14849,-6896,-120,-523,283
13,668,171919,-4073,-14976,-6821,-113,-441,265
13,669,171924,-4184,-15015,-6765,-104,-347,245
13,670,171929,-4218,-15029,-6724,-101,-250,225
13,671,171934,-4265,-14999,-6548,-96,-146,207
13,672,171939,-4240,-14965,-6225,-92,-62,188
13,673,171944,-4169,-14967,-5915,-86,-4,177
13,674,171949,-4055,-14940,-5720,-81,36,165
13,675,171954,-3938,-14907,-5610,-82,57,149
13,676,171959,-3801,-14869,-5512,-80,60,136
13,677,171964,-3731,-14790,-5552,-79,41,122
13,678,171969,-3679,-14679,-5564,-80,12,113
13,679,171974,-3629,-14606,-5552,-75,-12,112
13,680,171979,-3573,-14581,-5738,-72,-36,109
13,681,171984,-3420,-14555,-5926,-67,-54,103
13,682,171989,-3248,-14547,-6125,-62,-70,100
13,683,171994,-3249,-14568,-6229,-60,-81,95
13,684,171999,-3356,-14554,-6218,-56,-96,93
13,685,172004,-3389,-14504,-6289,-53,-103,92
13,686,172009,-3391,-14518,-6313,-53,-89,88
13,687,172014,-3403,-14471,-6216,-48,-70,86
13,688,172019,-3377,-14481,-6195,-44,-50,78
13,689,172024,-3412,-14565,-6063,-46,-21,68
13,690,172029,-3458,-14530,-6009,-41,-8,65
13,691,172034,-3501,-14540,-5869,-36,3,63
13,692,172039,-3454,-14576,-5757,-37,6,60
13,693,172044,-3360,-14605,-5664,-39,3,57
13,694,172049,-3364,-14635,-5410,-39,-18,53
13,695,172054,-3462,-14679,-5263,-40,-56,55
13,696,172059,-3711,-14797,-5127,-36,-153,60
13,697,172064,-3817,-14815,-5073,-37,-209,63
13,698,172069,-3891,-14762,-5032,-39,-269,65
13,699,172074,-3910,-14718,-5057,-36,-332,70
13,700,172079,-3892,-14699,-5123,-37,-394,72
13,701,172084,-3902,-14661,-5206,-39,-451,77
13,702,172089,-3905,-14683,-5201,-40,-497,83
13,703,172094,-3933,-14717,-5305,-37,-540,87
13,704,172099,-3963,-14721,-5386,-33,-572,88
13,705,172104,-3923,-14696,-5579,-31,-594,87
13,706,172109,-3877,-14684,-5682,-34,-607,88
13,707,172114,-3824,-14678,-5802,-34,-613,94
13,708,172119,-3765,-14716,-6004,-32,-613,94
13,709,172124,-3724,-14732,-6203,-28,-601,97
13,710,172129,-3743,-14736,-6454,-27,-578,101
13,711,172134,-3661,-14747,-6544,-24,-545,106
13,712,172139,-3635,-14674,-6511,-21,-510,108
13,713,172144,-3690,-14606,-6542,-16,-477,111
13,714,172149,-3751,-14608,-6583,-12,-435,113
13,715,172154,-3778,-14597,-6491,-11,-379,117
13,716,172159,-3786,-14649,-6307,-6,-323,120
13,717,172164,-3851,-14723,-6123,-2,-267,118
13,718,172169,-3919,-14765,-6065,-2,-222,119
13,719,172174,-3934,-14838,-5916,0,-187,125
13,720,172179,-4017,-14835,-5725,-2,-163,129
13,721,172184,-4079,-14863,-5624,-7,-148,131
13,722,172189,-4111,-14883,-5547,-6,-142,137
13,723,172194,-4238,-14853,-5457,-6,-145,142
13,724,172199,-4286,-14830,-5505,-9,-156,144
13,725,172204,-4264,-14765,-5521,-10,-163,147
13,726,172209,-4262,-14719,-5492,-11,-171,151
13,727,172214,-4274,-14677,-5443,-12,-180,156
13,728,172219,-4265,-14628,-5517,-16,-194,159
13,729,172224,-4317,-14603,-5538,-16,-207,163
13,730,172229,-4382,-14615,-5640,-14,-210,168
13,731,172234,-4504,-14552,-5638,-19,-210,170
13,732,172239,-4522,-14493,-5687,-18,-205,172
13,733,172244,-4518,-14408,-5721,-18,-196,172
13,734,172249,-4646,-14311,-5708,-22,-185,171
13,735,172254,-4641,-14251,-5901,-25,-178,174
13,736,172259,-4659,-14190,-6031,-28,-163,176
13,737,172264,-4668,-14104,-6032,-29,-151,177
13,738,172269,-4674,-14071,-5980,-30,-142,176
13,739,172274,-4602,-14048,-5911,-32,-140,174
13,740,172279,-4561,-14007,-5873,-32,-142,173
13,741,172284,-4512,-14009,-5758,-31,-143,172
13,742,172289,-4552,-14033,-5741,-34,-150,174
13,743,172294,-4555,-14080,-5721,-35,-160,175
13,744,172299,-4572,-14140,-5658,-37,-175,177
13,745,172304,-4583,-14138,-5604,-37,-187,178
13,746,172309,-4565,-14137,-5585,-37,-208,175
13,747,172314,-4646,-14195,-5611,-41,-234,178
13,748,172319,-4732,-14208,-5729,-40,-259,176
13,749,172324,-4824,-14227,-5788,-40,-286,177
13,750,172329,-4913,-14222,-5928,-41,-305,178
13,751,172334,-5001,-14234,-5928,-43,-316,173
13,752,172339,-5169,-14216,-5870,-45,-322,168
13,753,172344,-5342,-14286,-5941,-44,-318,164
13,754,172349,-5454,-14366,-6087,-41,-298,157
13,755,172354,-5550,-14442,-6164,-41,-259,150
13,756,172359,-5633,-14465,-6089,-40,-214,143
13,757,172364,-5687,-14508,-6034,-37,-177,138
13,758,172369,-5751,-14545,-6001,-37,-144,124
13,759,172374,-5810,-14542,-5977,-41,-106,114
13,760,172379,-5745,-14527,-5945,-41,-70,109
13,761,172384,-5628,-14500,-5881,-42,-40,99
13,762,172389,-5579,-14496,-5830,-41,-18,85
13,763,172394,-5538,-14473,-5781,-42,-6,80
13,764,172399,-5471,-14494,-5781,-41,-1,71
13,765,172404,-5391,-14508,-5712,-42,7,64
13,766,172409,-5260,-14534,-5678,-42,10,60
13,767,172414,-5078,-14563,-5712,-42,15,54
13,768,172419,-4948,-14575,-5685,-42,12,54
13,769,172424,-4919,-14581,-5765,-40,-16,51
13,770,172429,-5009,-14596,-5815,-39,-25,50
13,771,172434,-5020,-14565,-5887,-38,-27,46
13,772,172439,-4994,-14550,-5864,-40,-12,39
13,773,172444,-5033,-14484,-5813,-39,-3,36
13,774,172449,-5104,-14453,-5727,-35,1,37
13,775,172454,-5198,-14466,-5733,-33,13,34
13,776,172459,-5236,-14442,-5838,-35,22,27
13,777,172464,-5266,-14439,-5811,-33,27,23
13,778,172469,-5359,-14427,-5759,-33,27,20
13,779,172474,-5335,-14431,-5806,-29,16,19
13,780,172479,-5308,-14473,-5774,-26,6,16
13,781,172484,-5302,-14459,-5698,-26,-3,13
13,782,172489,-5275,-14421,-5699,-24,-15,15
13,783,172494,-5194,-14437,-5683,-20,-21,11
13,784,172499,-5251,-14467,-5644,-20,-22,9
13,785,172504,-5273,-14515,-5624,-21,-21,8
13,786,172509,-5135,-14544,-5655,-20,-21,11
13,787,172514,-5061,-14637,-5677,-20,-10,8
13,788,172519,-5040,-14665,-5654,-17,-2,6
13,789,172524,-5029,-14682,-5859,-15,3,8
13,790,172529,-5194,-14646,-5919,-13,17,8
13,791,172534,-5179,-14552,-5510,-11,31,1
13,792,172539,-5098,-14523,-5662,-11,37,-1
13,793,172544,-5072,-14556,-5771,-13,67,1
13,794,172549,-5099,-14591,-5749,-14,92,0
13,795,172554,-5096,-14609,-5716,-12,104,-1
13,796,172559,-5094,-14604,-5698,-13,119,0
13,797,172564,-5064,-14592,-5791,-12,129,-1
13,798,172569,-5081,-14549,-5749,-8,139,-4
13,799,172574,-5025,-14507,-5732,-7,135,-3
13,800,172579,-4980,-14490,-5643,-6,126,-1
13,801,172584,-4998,-14470,-5709,-7,116,0
13,802,172589,-4958,-14481,-5732,-7,105,-3
13,803,172594,-4968,-14470,-5711,-4,91,0
13,804,172599,-4989,-14506,-5741,-3,76,3
13,805,172604,-4956,-14482,-5695,-5,61,3
13,806,172609,-4986,-14485,-5722,-6,51,3
13,807,172614,-5020,-14482,-5762,-5,45,6
13,808,172619,-4995,-14507,-5760,-3,42,10
13,809,172624,-4996,-14523,-5811,-3,44,12
13,810,172629,-4995,-14528,-5877,-4,54,12
13,811,172634,-4952,-14545,-5825,-5,73,9
13,812,172639,-4904,-14562,-5772,-6,90,5
13,813,172644,-4916,-14508,-5790,-6,99,4
13,814,172649,-4883,-14495,-5802,-4,113,6
13,815,172654,-4869,-14469,-5788,-4,126,9
13,816,172659,-4865,-14454,-5712,-4,136,10
13,817,172664,-4850,-14454,-5653,-4,131,10
13,818,172669,-4860,-14435,-5588,-8,119,8
13,819,172674,-4815,-14394,-5656,-12,105,11
13,820,172679,-4770,-14333,-5666,-13,89,14
13,821,172684,-4839,-14301,-5641,-11,68,17
13,822,172689,-4879,-14327,-5656,-12,43,15
13,823,172694,-4937,-14335,-5753,-11,17,18
13,824,172699,-4910,-14343,-5827,-14,-7,22
13,825,172704,-4933,-14339,-5843,-15,-23,18
13,826,172709,-4995,-14362,-5827,-15,-36,19
13,827,172714,-4974,-14329,-5781,-13,-47,20
13,828,172719,-4955,-14324,-5844,-12,-53,22
13,829,172724,-4936,-14317,-5928,-14,-47,20
13,830,172729,-4948,-14273,-5893,-12,-47,20
13,831,172734,-4927,-14209,-5854,-10,-50,21
13,832,172739,-4931,-14207,-5853,-13,-56,19
13,833,172744,-4938,-14232,-5844,-9,-61,19
13,834,172749,-4950,-14280,-5820,-12,-57,15
13,835,172755,-5004,-14327,-5873,-17,-49,14
13,836,172761,-5013,-14350,-5874,-14,-44,14
13,837,172767,-4978,-14341,-5876,-14,-39,16
13,838,172773,-5019,-14304,-5850,-13,-33,15
13,839,172779,-5029,-14335,-5751,-11,-28,12
13,840,172785,-5022,-14420,-5750,-15,-32,12
13,841,172791,-5008,-14418,-5807,-15,-28,11
13,842,172797,-5000,-14449,-5771,-14,-21,11
13,843,172803,-5042,-14418,-5790,-11,-18,9
13,844,172809,-5021,-14321,-5798,-13,-20,2
13,845,172815,-5000,-14297,-5843,-13,-21,5
13,846,172821,-4951,-14310,-5805,-11,-20,3
13,847,172827,-4986,-14306,-5838,-9,-21,4
13,848,172833,-5040,-14390,-5931,-11,-27,1
13,849,172839,-5047,-14383,-5898,-8,-24,-1
13,850,172845,-5028,-14374,-5870,-4,-19,-1
13,851,172851,-5064,-14323,-5891,-2,-16,-4
13,852,172857,-5050,-14328,-5914,-3,-16,-10
13,853,172863,-5047,-14387,-6013,2,-23,-10
13,854,172869,-5099,-14374,-6015,4,-36,-9
13,855,172875,-5155,-14375,-5953,6,-44,-9
13,856,172881,-5242,-14385,-5883,9,-54,-9
13,857,172887,-5259,-14445,-5933,11,-56,-11
13,858,172893,-5213,-14425,-5853,13,-41,-17
13,859,172899,-5150,-14472,-5802,15,-33,-16
13,860,172905,-5221,-14499,-5741,18,-25,-20
13,861,172911,-5247,-14508,-5758,17,-14,-24
13,862,172918,-5273,-14589,-5743,20,16,-28
13,863,172924,-5291,-14626,-5741,19,29,-29
13,864,172930,-5271,-14643,-5751,19,33,-29
13,865,172936,-5243,-14670,-5809,18,36,-33
13,866,172937,-5243,-14670,-5809,18,36,-33
13,867,172937,-5202,-14639,-5735,19,38,-35
13,868,172938,-5202,-14639,-5735,19,38,-35
13,869,172939,-5202,-14639,-5735,19,38,-35
13,870,172939,-5202,-14639,-5735,19,38,-35
13,871,172940,-5202,-14639,-5735,19,38,-35
13,872,172941,-5202,-14639,-5735,19,38,-35
13,873,172944,-5138,-14607,-5728,21,42,-38
13,874,172949,-5106,-14581,-5669,19,46,-39
13,875,172954,-5083,-14584,-5682,20,48,-38
13,876,172959,-5077,-14571,-5684,20,49,-36
13,877,172964,-5055,-14575,-5606,21,44,-37
13,878,172969,-5080,-14604,-5668,23,32,-35
13,879,172974,-5063,-14611,-5776,22,17,-35
13,880,172979,-4946,-14616,-5823,22,7,-38
13,881,172984,-4922,-14628,-5790,24,-1,-32
13,882,172989,-4913,-14622,-5751,23,-6,-32
13,883,172994,-4953,-14625,-5688,22,-11,-32
13,884,172999,-4913,-14564,-5695,22,-9,-31
13,885,173004,-4887,-14580,-5707,23,-1,-30
13,886,173009,-4899,-14598,-5741,23,2,-31
13,887,173014,-4884,-14659,-5757,21,3,-26
13,888,173019,-4880,-14653,-5791,20,3,-25
13,889,173024,-4958,-14616,-5799,22,5,-25
13,890,173029,-5002,-14636,-5709,20,4,-23
13,891,173034,-5055,-14574,-5739,18,3,-22
13,892,173039,-5067,-14496,-5779,19,10,-23
13,893,173044,-5090,-14452,-5778,17,24,-21
13,894,173049,-4961,-14397,-5744,20,30,-22
13,895,173054,-4885,-14354,-5761,16,39,-23
13,896,173060,-4836,-14366,-5725,14,41,-20
13,897,173066,-4865,-14395,-5798,14,22,-19
13,898,173072,-4865,-14372,-5771,13,15,-17
13,899,173078,-4854,-14390,-5764,12,6,-14
13,900,173084,-4897,-14437,-5755,11,-2,-10
13,901,173090,-4857,-14366,-5781,13,-16,-8
13,902,173096,-4869,-14354,-5792,13,-19,-5
13,903,173102,-4861,-14334,-5814,7,-15,-1
13,904,173108,-4872,-14377,-5814,7,-14,-1
13,905,173114,-4838,-14365,-5824,5,-11,0
13,906,173120,-4941,-14366,-5788,6,-1,0
13,907,173126,-4946,-14367,-5762,4,8,1
13,908,173132,-4942,-14357,-5767,5,13,3
13,909,173138,-4947,-14293,-5771,1,20,3
13,910,173144,-4854,-14187,-5700,1,27,5
13,911,173150,-4867,-14177,-5710,-6,23,5
13,912,173156,-4849,-14159,-5720,-4,17,6
13,913,173162,-4902,-14155,-5745,-4,7,8
13,914,173163,-4902,-14155,-5745,-4,7,8
13,915,173164,-4960,-14140,-5726,-7,-1,11
13,916,173165,-4960,-14140,-5726,-7,-1,11
13,917,173165,-4960,-14140,-5726,-7,-1,11
13,918,173169,-4935,-14137,-5748,-8,-12,12
13,919,173174,-4949,-14137,-5788,-8,-26,13
13,920,173179,-5019,-14168,-5790,-8,-38,12
13,921,173184,-5077,-14234,-5861,-9,-50,15
13,922,173189,-5130,-14282,-5927,-7,-55,17
13,923,173194,-5193,-14351,-5913,-9,-54,15
13,924,173199,-5177,-14444,-5973,-12,-48,16
13,925,173204,-5131,-14529,-6017,-11,-41,18
13,926,173209,-5092,-14587,-5984,-12,-21,14
13,927,173214,-5136,-14585,-5873,-15,-2,14
13,928,173219,-5101,-14641,-5862,-12,10,15
13,929,173224,-5060,-14666,-5947,-15,27,15
13,930,173229,-5070,-14677,-5876,-15,43,15
13,931,173234,-5086,-14639,-5787,-18,46,13
13,932,173239,-5092,-14649,-5800,-17,47,11
13,933,173245,-5074,-14615,-5806,-18,43,12
13,934,173251,-5067,-14622,-5795,-20,48,13
13,935,173257,-5091,-14645,-5727,-18,43,12
13,936,173263,-5063,-14663,-5742,-20,24,16
13,937,173269,-5076,-14647,-5689,-20,13,17
13,938,173275,-5131,-14609,-5669,-22,-2,20
13,939,173281,-5191,-14563,-5731,-22,-19,20
13,940,173282,-5138,-14551,-5777,-21,-30,21
13,941,173284,-5138,-14551,-5777,-21,-30,21
13,942,173289,-5119,-14537,-5771,-24,-37,20
13,943,173294,-5095,-14534,-5803,-24,-40,17
13,944,173299,-5144,-14497,-5808,-27,-45,17
13,945,173304,-5139,-14498,-5865,-21,-50,17
13,946,173309,-5038,-14504,-5911,-22,-46,15
13,947,173314,-5014,-14532,-5914,-21,-35,17
13,948,173319,-5085,-14514,-5920,-23,-28,14
13,949,173324,-5102,-14527,-5981,-19,-24,13
13,950,173329,-5044,-14513,-5977,-18,-17,12
13,951,173334,-4999,-14509,-5971,-19,-5,11
13,952,173339,-4976,-14497,-5884,-18,4,9
13,953,173344,-4995,-14468,-5827,-18,10,8
13,954,173349,-5037,-14489,-5920,-19,13,8
13,955,173354,-4984,-14529,-5915,-19,22,8
13,956,173360,-4948,-14510,-5855,-19,37,7
13,957,173366,-4909,-14481,-5817,-19,47,8
13,958,173372,-4904,-14417,-5836,-15,53,3
13,959,173378,-5002,-14420,-5815,-16,55,4
13,960,173384,-5037,-14423,-5775,-17,55,1
13,961,173390,-5017,-14400,-5763,-15,53,2
13,962,173396,-4923,-14340,-5726,-19,42,-3
13,963,173402,-4883,-14310,-5730,-18,29,-2
13,964,173408,-4878,-14257,-5783,-17,21,-2
13,965,173414,-4899,-14274,-5857,-15,14,-4
13,966,173420,-5015,-14372,-5872,-12,8,-1
13,967,173426,-5042,-14408,-5887,-12,4,1
13,968,173432,-4983,-14417,-5905,-15,-2,-1
13,969,173438,-4980,-14404,-5885,-11,-6,-4
13,970,173444,-5003,-14411,-5811,-12,-6,-6
13,971,173450,-4979,-14474,-5819,-7,1,-6
13,972,173456,-5048,-14500,-5779,-7,6,-9
13,973,173462,-5085,-14499,-5782,-8,11,-10
13,974,173468,-5137,-14459,-5805,-5,11,-12
13,975,173474,-5144,-14458,-5874,-7,-3,-10
13,976,173481,-5048,-14483,-5840,-7,-9,-9
13,977,173487,-4926,-14496,-5796,-7,-13,-9
13,978,173498,-4727,-14432,-5753,-6,-16,-11
13,979,173504,-4752,-14389,-5790,-7,-14,-11
13,980,173510,-4755,-14375,-5815,-3,-2,-11
13,981,173516,-4795,-14449,-5808,-2,4,-12
13,982,173522,-4882,-14487,-5849,-1,7,-13
13,983,173528,-4875,-14498,-5919,0,1,-10
13,984,173534,-4936,-14476,-5923,3,5,-6
13,985,173540,-4972,-14427,-5881,-1,3,-8
13,986,173546,-4989,-14409,-5806,2,-6,-5
13,987,173552,-5015,-14403,-5879,2,-11,-7
13,988,173558,-4965,-14419,-5907,3,-14,-7
13,989,173564,-4965,-14369,-5887,1,-9,-7
13,990,173570,-4985,-14341,-5878,4,-5,-7
13,991,173576,-4997,-14416,-5807,3,3,-9
13,992,173582,-5006,-14498,-5792,6,15,-9
13,993,163544,7727,-10898,-9450,20,50,1
13,994,163549,7780,-10874,-9493,22,48,4
13,995,163554,7737,-10892,-9540,19,49,3
13,996,163559,7719,-10939,-9513,21,49,1
13,997,163564,7799,-10993,-9475,24,48,1
13,998,163569,7788,-11014,-9500,24,46,1
13,999,163574,7761,-10992,-9455,25,47,2
