event_id,seq,ts_ms,ax,ay,az,gx,gy,gz
1,0,69030,-2302,-16115,-2098,2,-9,-4
1,1,69035,-2288,-16171,-2082,4,-7,-2
1,2,69040,-2253,-16131,-2024,4,-7,-2
1,3,69045,-2236,-16154,-2042,1,-8,-3
1,4,69050,-2238,-16181,-2071,1,-9,-3
1,5,69055,-2196,-16154,-2066,2,-10,-4
1,6,69060,-2238,-16145,-2093,3,-7,-4
1,7,69065,-2232,-16141,-2080,1,-6,-5
1,8,69070,-2204,-16137,-2066,1,-7,-3
1,9,69075,-2198,-16135,-2057,2,-7,-4
1,10,69080,-2231,-16107,-2082,0,-7,-1
1,11,69085,-2244,-16145,-2103,1,-9,0
1,12,69090,-2246,-16164,-2070,4,-8,-4
1,13,69095,-2279,-16148,-2044,6,-10,-3
1,14,69100,-2274,-16129,-2080,6,-11,-2
1,15,69105,-2227,-16106,-2058,2,-9,-4
1,16,69110,-2253,-16133,-2062,1,-9,-4
1,17,69115,-2236,-16153,-2100,3,-4,-3
1,18,69120,-2260,-16130,-2038,0,-8,-2
1,19,69125,-2272,-16144,-2063,-1,-10,-3
1,20,69130,-2261,-16137,-2081,2,-7,-2
1,21,69135,-2272,-16132,-2060,1,-8,-2
1,22,69140,-2272,-16134,-2072,4,-10,-4
1,23,69145,-2254,-16104,-2090,1,-7,-4
1,24,69150,-2259,-16125,-2096,-2,-7,-4
1,25,69155,-2259,-16161,-2102,2,-7,-5
1,26,69160,-2235,-16151,-2084,2,-7,-5
1,27,69165,-2231,-16131,-2072,1,-7,-5
1,28,69170,-2237,-16131,-2069,1,-9,-3
1,29,69175,-2220,-16127,-2070,2,-8,-3
1,30,69180,-2205,-16168,-2092,1,-6,-4
1,31,69185,-2249,-16115,-2089,1,-6,-2
1,32,69190,-2201,-16107,-2060,-1,-5,-2
1,33,69195,-2221,-16174,-2026,1,-7,-3
1,34,69200,-2225,-16126,-2045,1,-9,-4
1,35,69205,-2231,-16107,-2101,2,-9,-3
1,36,69210,-2233,-16129,-2045,0,-9,-5
1,37,69215,-2221,-16134,-2047,3,-7,-5
1,38,69220,-2300,-16132,-2079,3,-5,-1
1,39,69225,-2253,-16093,-2059,1,-8,-4
1,40,69230,-2256,-16116,-2106,0,-9,-3
1,41,69235,-2274,-16145,-2049,-1,-7,-6
1,42,69240,-2272,-16124,-2071,-1,-7,-8
1,43,69245,-2296,-16145,-2094,1,-9,-5
1,44,69250,-2280,-16139,-2043,2,-7,-4
1,45,69255,-2269,-16104,-2038,2,-8,-4
1,46,69260,-2244,-16107,-2081,1,-9,-3
1,47,69265,-2247,-16115,-2078,1,-9,-2
1,48,69270,-2225,-16123,-2075,1,-8,-4
1,49,69275,-2233,-16175,-2072,3,-8,-5
1,50,69280,-2227,-16141,-2065,1,-6,-4
1,51,69285,-2225,-16118,-2092,-1,-7,-5
1,52,69290,-2208,-16129,-2092,1,-9,-6
1,53,69295,-2247,-16118,-2084,0,-8,-3
1,54,69300,-2231,-16114,-2115,-1,-9,-3
1,55,69305,-2252,-16148,-2060,2,-10,-3
1,56,69310,-2208,-16130,-2058,0,-10,-2
1,57,69315,-2221,-16145,-2090,1,-9,-2
1,58,69320,-2228,-16124,-2073,2,-7,-5
1,59,69325,-2221,-16156,-2057,2,-6,-4
1,60,69330,-2261,-16170,-2050,1,-6,-2
1,61,69335,-2254,-16136,-2024,-2,-5,-5
1,62,69340,-2252,-16155,-2116,2,-6,-3
1,63,69345,-2243,-16151,-2083,1,-9,-2
1,64,69350,-2228,-16156,-2056,2,-6,-6
1,65,69355,-2236,-16119,-2070,1,-7,-6
1,66,69360,-2242,-16120,-2068,1,-7,-5
1,67,69365,-2241,-16128,-2048,0,-8,-4
1,68,69370,-2232,-16140,-2040,2,-10,-1
1,69,69375,-2243,-16163,-2063,-1,-8,-6
1,70,69380,-2242,-16141,-2041,2,-8,-3
1,71,69385,-2229,-16119,-2065,3,-8,-4
1,72,69390,-2195,-16143,-2089,3,-7,-4
1,73,69395,-2222,-16151,-2067,2,-10,-4
1,74,69400,-2258,-16144,-2097,2,-6,-4
1,75,69405,-2272,-16142,-2108,3,-7,-4
1,76,69410,-2266,-16170,-2065,2,-9,-3
1,77,69415,-2241,-16125,-2065,2,-10,-3
1,78,69420,-2249,-16128,-2068,2,-9,-2
1,79,69425,-2246,-16149,-2122,3,-8,-3
1,80,69430,-2236,-16127,-2100,1,-8,-5
1,81,69435,-2258,-16128,-2067,0,-6,-3
1,82,69440,-2225,-16156,-2077,1,-8,-6
1,83,69445,-2263,-16164,-2094,1,-8,-2
1,84,69450,-2276,-16161,-2073,4,-9,-1
1,85,69455,-2254,-16158,-2061,3,-9,-4
1,86,69460,-2249,-16142,-2089,2,-7,-6
1,87,69465,-2225,-16128,-2060,0,-7,-5
1,88,69470,-2209,-16112,-2083,0,-7,-3
1,89,69475,-2246,-16143,-2056,2,-9,-3
1,90,69480,-2281,-16149,-2059,3,-9,-3
1,91,69485,-2256,-16159,-2056,2,-9,-2
1,92,69490,-2231,-16120,-2072,2,-9,0
1,93,69495,-2246,-16102,-2030,1,-4,-1
1,94,69500,-2263,-16138,-2036,0,-5,-2
1,95,69505,-2240,-16114,-2041,1,-7,-6
1,96,69510,-2257,-16134,-2084,-1,-7,-2
1,97,69515,-2256,-16123,-2089,1,-6,-4
1,98,69520,-2222,-16134,-2077,1,-7,-4
1,99,69525,-2266,-16112,-2064,-2,-5,-1
1,100,69530,-2248,-16152,-2032,1,-9,-3
1,101,69535,-2247,-16187,-2042,3,-11,-2
1,102,69540,-2208,-16120,-2088,3,-7,-4
1,103,69545,-2244,-16120,-2078,5,-9,-3
1,104,69550,-2248,-16165,-2058,2,-8,-3
1,105,69555,-2242,-16134,-2102,-1,-4,-5
1,106,69560,-2237,-16121,-2069,0,-8,-2
1,107,69565,-2264,-16143,-2023,2,-8,-2
1,108,69570,-2268,-16134,-2064,2,-8,-3
1,109,69575,-2288,-16136,-2084,1,-8,-3
1,110,69580,-2249,-16141,-2051,-2,-9,-3
1,111,69585,-2240,-16141,-2039,-1,-7,-5
1,112,69590,-2236,-16119,-2088,0,-8,-4
1,113,69595,-2256,-16143,-2067,-1,-6,-5
1,114,69600,-2265,-16140,-2073,2,-7,0
1,115,69605,-2255,-16117,-2060,2,-8,-3
1,116,69610,-2204,-16135,-2054,0,-8,-4
1,117,69615,-2230,-16113,-2027,0,-9,-2
1,118,69620,-2246,-16103,-2077,1,-9,-2
1,119,69625,-2245,-16136,-2103,1,-9,-3
1,120,69630,-2224,-16138,-2056,0,-10,-3
1,121,69635,-2246,-16117,-2082,3,-9,-2
1,122,69640,-2247,-16131,-2050,2,-7,-2
1,123,69645,-2220,-16139,-2073,1,-9,-2
1,124,69650,-2217,-16139,-2025,1,-8,-2
1,125,69655,-2227,-16156,-2072,2,-6,-5
1,126,69660,-2226,-16148,-2108,2,-6,-3
1,127,69665,-2221,-16106,-2069,2,-8,-1
1,128,69670,-2249,-16129,-2113,2,-8,-3
1,129,69675,-2231,-16122,-2088,2,-7,-4
1,130,69680,-2239,-16159,-2084,1,-7,-5
1,131,69685,-2246,-16122,-2068,1,-7,-4
1,132,69690,-2227,-16158,-2068,0,-9,-2
1,133,69695,-2275,-16163,-2062,2,-10,-1
1,134,69700,-2281,-16154,-2051,2,-8,-4
1,135,69705,-2249,-16178,-2069,0,-8,-6
1,136,69710,-2258,-16174,-2058,1,-7,-4
1,137,69715,-2220,-16117,-2021,-1,-8,-5
1,138,69720,-2241,-16138,-2086,1,-8,-3
1,139,69725,-2259,-16144,-2103,3,-7,-3
1,140,69730,-2234,-16103,-2059,1,-8,-3
1,141,69735,-2262,-16128,-2017,1,-9,-2
1,142,69740,-2276,-16163,-2052,0,-7,-6
1,143,69745,-2236,-16150,-2067,1,-5,-4
1,144,69750,-2265,-16127,-2054,2,-7,-4
1,145,69755,-2276,-16104,-2081,1,-7,-3
1,146,69760,-2240,-16139,-2104,2,-9,-4
1,147,69765,-2224,-16165,-2066,4,-9,-2
1,148,69770,-2245,-16146,-2083,3,-8,0
1,149,69775,-2225,-16166,-2077,-1,-7,-5
1,150,69780,-2231,-16134,-2060,1,-10,-4
1,151,69785,-2253,-16119,-2084,1,-8,-3
1,152,69790,-2225,-16117,-2096,1,-7,-1
1,153,69795,-2230,-16143,-2057,1,-6,-5
1,154,69800,-2242,-16124,-2034,0,-8,-4
1,155,69805,-2225,-16119,-2089,0,-6,-2
1,156,69810,-2232,-16122,-2071,2,-7,0
1,157,69815,-2246,-16124,-2026,2,-7,-2
1,158,69820,-2252,-16149,-2088,0,-8,-5
1,159,69825,-2264,-16130,-2135,0,-9,-3
1,160,69830,-2232,-16119,-2095,3,-10,-3
1,161,69835,-2230,-16143,-2058,1,-11,-3
1,162,69840,-2237,-16153,-2076,-1,-8,-2
1,163,69845,-2251,-16119,-2060,1,-8,-3
1,164,69850,-2274,-16158,-2081,3,-6,-5
1,165,69855,-2273,-16152,-2122,2,-7,-6
1,166,69860,-2261,-16139,-2082,3,-8,-4
1,167,69865,-2273,-16120,-2037,2,-9,-3
1,168,69870,-2294,-16120,-2067,-1,-8,-4
1,169,69875,-2247,-16138,-2032,3,-8,-3
1,170,69880,-2257,-16147,-2049,2,-6,-3
1,171,69885,-2269,-16144,-2017,2,-7,0
1,172,69890,-2251,-16123,-2049,2,-9,-3
1,173,69895,-2257,-16138,-2059,0,-6,-5
1,174,69900,-2227,-16192,-2038,2,-8,-1
1,175,69905,-2192,-16147,-2051,1,-6,-4
1,176,69910,-2234,-16118,-2091,1,-6,-4
1,177,69915,-2251,-16146,-2052,2,-8,-1
1,178,69920,-2223,-16139,-2054,3,-8,-4
1,179,69925,-2217,-16170,-2050,1,-7,-4
1,180,69930,-2237,-16123,-2064,2,-8,-7
1,181,69935,-2233,-16156,-2054,0,-7,-7
1,182,69940,-2251,-16139,-2076,1,-8,-5
1,183,69945,-2275,-16128,-2102,0,-8,-5
1,184,69950,-2259,-16151,-2080,0,-5,-3
1,185,69955,-2257,-16135,-2069,1,-6,-3
1,186,69960,-2238,-16141,-2067,0,-8,-5
1,187,69965,-2229,-16176,-2048,1,-8,-4
1,188,69970,-2259,-16157,-2058,2,-9,-2
1,189,69975,-2263,-16134,-2074,0,-10,-3
1,190,69980,-2225,-16142,-2045,2,-5,-5
1,191,69985,-2256,-16140,-2049,2,-8,-3
1,192,69990,-2221,-16121,-2058,1,-7,-1
1,193,69995,-2212,-16152,-2033,1,-7,-3
1,194,70000,-2248,-16146,-2076,1,-8,-4
1,195,70005,-2237,-16136,-2134,2,-9,-3
1,196,70010,-2251,-16139,-2081,1,-7,-4
1,197,70015,-2284,-16119,-2060,3,-6,-5
1,198,70020,-2198,-16123,-2042,1,-9,-4
1,199,70025,-2214,-16125,-2081,1,-8,-4
1,200,70030,-2238,-16130,-2078,1,-6,-6
1,201,70035,-2288,-16149,-2068,1,-8,-2
1,202,70040,-2270,-16104,-2057,0,-8,-4
1,203,70045,-2251,-16144,-2075,1,-8,-4
1,204,70050,-2247,-16143,-2082,-2,-10,-1
1,205,70055,-2248,-16165,-2099,0,-9,-2
1,206,70060,-2259,-16124,-2065,2,-7,-4
1,207,70065,-2264,-16141,-2036,-2,-2,-3
1,208,70070,-2250,-16135,-2075,3,-7,-1
1,209,70075,-2238,-16151,-2055,2,-9,-2
1,210,70080,-2270,-16167,-2051,-2,-10,0
1,211,70085,-2237,-16111,-2081,1,-8,-1
1,212,70090,-2227,-16111,-2062,4,-8,-4
1,213,70095,-2218,-16154,-2032,1,-9,-3
1,214,70100,-2234,-16124,-2050,0,-10,-2
1,215,70105,-2236,-16132,-2060,1,-7,-4
1,216,70110,-2240,-16129,-2014,2,-7,-4
1,217,70115,-2246,-16135,-2098,0,-7,-3
1,218,70120,-2274,-16158,-2070,2,-7,-3
1,219,70125,-2227,-16145,-2040,1,-8,-5
1,220,70130,-2226,-16102,-2112,2,-11,-3
1,221,70135,-2233,-16122,-2054,3,-10,0
1,222,70140,-2270,-16164,-2049,0,-8,-6
1,223,70145,-2271,-16142,-2069,2,-9,-5
1,224,70150,-2251,-16140,-2067,1,-7,-3
1,225,70155,-2222,-16152,-2033,1,-7,-6
1,226,70160,-2226,-16128,-2035,3,-8,-4
1,227,70165,-2231,-16112,-2077,2,-7,-2
1,228,70170,-2241,-16152,-2076,3,-9,-1
1,229,70175,-2238,-16151,-2045,2,-6,-4
1,230,70180,-2278,-16151,-2084,0,-7,-6
1,231,70185,-2248,-16142,-2085,0,-8,-2
1,232,70190,-2280,-16132,-2052,0,-10,-2
1,233,70195,-2235,-16137,-2067,0,-8,-3
1,234,70200,-2258,-16128,-2106,0,-7,-5
1,235,70205,-2258,-16164,-2072,2,-10,-3
1,236,70210,-2259,-16157,-2070,4,-8,-2
1,237,70215,-2236,-16124,-2076,0,-8,-5
1,238,70220,-2249,-16127,-2065,-1,-10,-5
1,239,70225,-2236,-16156,-2110,0,-10,-4
1,240,70230,-2222,-16138,-2024,-1,-9,-4
1,241,70235,-2220,-16099,-2067,1,-7,-5
1,242,70240,-2268,-16135,-2059,0,-6,-6
1,243,70245,-2252,-16102,-2002,1,-9,-1
1,244,70250,-2219,-16123,-2029,3,-9,2
1,245,70255,-2240,-16122,-2109,-1,-5,-3
1,246,70260,-2243,-16126,-2082,-1,-6,-3
1,247,70265,-2234,-16125,-2040,1,-6,-4
1,248,70270,-2281,-16105,-2039,1,-8,-2
1,249,70275,-2244,-16137,-2050,-2,-5,-2
1,250,70280,-2243,-16137,-2031,-2,-6,-4
1,251,70285,-2233,-16136,-2078,1,-6,-3
1,252,70290,-2214,-16176,-2061,2,-7,-3
1,253,70295,-2226,-16150,-2098,3,-7,-4
1,254,70300,-2228,-16124,-2060,0,-8,-2
1,255,70305,-2209,-16159,-2064,0,-10,-2
1,256,70310,-2221,-16160,-2037,0,-6,-4
1,257,70315,-2218,-16129,-2050,1,-6,-6
1,258,70320,-2246,-16159,-2074,-1,-4,-3
1,259,70325,-2234,-16108,-2093,1,-5,-5
1,260,70330,-2217,-16139,-2088,-1,-7,-3
1,261,70335,-2235,-16165,-2050,3,-8,-1
1,262,70340,-2206,-16160,-2061,3,-7,-5
1,263,70345,-2248,-16147,-2078,1,-8,-4
1,264,70350,-2246,-16129,-2067,3,-9,-5
1,265,70355,-2218,-16170,-2084,1,-8,-1
1,266,70360,-2200,-16139,-2061,-1,-7,-3
1,267,70365,-2223,-16122,-2102,2,-6,-4
1,268,70370,-2268,-16125,-2078,2,-9,-2
1,269,70375,-2219,-16125,-2090,2,-8,-2
1,270,70380,-2222,-16136,-2066,2,-8,-3
1,271,70385,-2241,-16131,-2038,1,-7,-4
1,272,70390,-2255,-16137,-2056,1,-6,-3
1,273,70395,-2254,-16148,-2091,-2,-6,-5
1,274,70400,-2260,-16117,-2060,0,-5,-5
1,275,70405,-2250,-16154,-2055,3,-5,-3
1,276,70410,-2233,-16154,-2067,0,-8,-2
1,277,70415,-2261,-16123,-2065,0,-9,-3
1,278,70420,-2263,-16149,-2084,0,-4,-5
1,279,70425,-2236,-16128,-2087,2,-9,-2
1,280,70430,-2233,-16123,-2046,3,-10,-1
1,281,70435,-2262,-16142,-2038,0,-8,-2
1,282,70440,-2253,-16132,-2052,-4,-10,-5
1,283,70445,-2234,-16142,-2053,0,-10,-4
1,284,70450,-2273,-16119,-2021,1,-7,-4
1,285,70455,-2251,-16159,-2076,1,-10,-2
1,286,70460,-2257,-16155,-2067,1,-8,-5
1,287,70465,-2242,-16105,-2098,2,-8,-6
1,288,70470,-2265,-16135,-2064,2,-7,-6
1,289,70475,-2244,-16116,-2057,4,-8,-1
1,290,70480,-2260,-16131,-2058,5,-8,-2
1,291,70485,-1327,-16136,-2456,3,-10,-2
1,292,70490,2526,-16038,-4936,11,25,12
1,293,70495,5546,-16133,-6361,27,179,51
1,294,70500,102,-16266,-1734,19,274,38
1,295,70505,-3931,-16008,-1625,26,-131,34
1,296,70510,-1340,-16291,-5783,66,-435,103
1,297,70515,850,-16528,-5876,42,22,100
1,298,70520,2,-15870,-2461,13,532,41
1,299,70525,-393,-16060,-646,34,532,27
1,300,70530,-715,-15947,-2575,79,225,75
1,301,70535,750,-16444,-6925,101,60,146
1,302,70540,1878,-16838,-6715,86,365,111
1,303,70545,153,-15948,-3750,48,670,54
1,304,70550,-1189,-16023,-2120,57,618,91
1,305,70555,-5665,-16188,338,89,490,95
1,306,70560,-9697,-16144,1006,81,388,59
1,307,70565,-7103,-15585,-3298,65,432,55
1,308,70570,-4870,-15516,-2626,84,967,92
1,309,70575,-1485,-17322,-1247,71,1240,54
1,310,70580,-5130,-16292,2185,5,1003,-129
1,311,70585,-6824,-14126,2881,19,306,-39
1,312,70590,-1832,-17113,-4685,102,-298,195
1,313,70595,-3211,-16996,-4508,52,147,26
1,314,70600,-5616,-15274,-871,44,406,-42
1,315,70605,-3408,-16736,-5233,106,-89,120
1,316,70610,-4214,-16976,-9292,117,-220,56
1,317,70615,-5943,-16967,-10142,145,-118,-45
1,318,70620,-6650,-16760,-7173,138,48,-24
1,319,70625,-5202,-16558,-4831,109,9,5
1,320,70630,-4624,-15949,-3601,150,-47,-54
1,321,70635,-4571,-16400,-3615,223,-124,-72
1,322,70640,-4005,-16952,-3556,215,-147,-44
1,323,70645,-3944,-16047,-1702,170,-68,-45
1,324,70650,-4050,-15495,-277,174,-73,-56
1,325,70655,-4364,-16127,604,207,-121,-84
1,326,70660,-4458,-16430,-253,207,-203,-100
1,327,70665,-3999,-16095,206,165,-201,-81
1,328,70670,-3289,-15628,730,143,-131,-68
1,329,70675,-2915,-15681,1079,160,-55,-100
1,330,70680,-2801,-16249,755,172,-51,-135
1,331,70685,-2856,-15881,508,107,-162,-94
1,332,70690,-2479,-15597,-184,102,-125,-99
1,333,70695,-1874,-16094,-1438,127,-29,-132
1,334,70700,-1448,-16583,-1862,124,52,-146
1,335,70705,-478,-16338,-1649,93,37,-126
1,336,70710,490,-15605,-1446,75,16,-101
1,337,70715,1203,-15746,-1621,99,42,-102
1,338,70720,1567,-16248,-2420,118,102,-123
1,339,70725,743,-16400,-1474,91,133,-123
1,340,70730,-1199,-15761,-799,71,14,-78
1,341,70735,-1843,-16058,-1388,105,-162,-25
1,342,70740,-3293,-16308,-3100,121,-188,-47
1,343,70745,-4542,-16806,-2580,113,-82,-82
1,344,70750,-5535,-16424,-1203,85,-10,-84
1,345,70755,-7135,-15924,1088,63,-10,-83
1,346,70760,-5209,-16116,-421,95,-133,-110
1,347,70765,-2910,-16559,-1543,113,-31,-131
1,348,70770,-1476,-16345,-976,83,115,-139
1,349,70775,-265,-15886,-410,71,51,-110
1,350,70780,2081,-15803,-2322,102,-144,-96
1,351,70785,3238,-15883,-4045,117,-214,-98
1,352,70790,2418,-16350,-3907,104,-193,-89
1,353,70795,-1183,-16846,-1048,92,-203,-74
1,354,70800,-6695,-15335,2618,67,-343,-43
1,355,70805,-3785,-16192,-2557,89,-559,4
1,356,70810,-876,-16334,-3404,133,-75,-51
1,357,70815,469,-16562,338,67,443,-123
1,358,70820,76,-15214,3614,22,342,-104
1,359,70825,2196,-15377,-557,94,-183,-10
1,360,70830,4043,-16188,-7361,149,-352,16
1,361,70835,2802,-17662,-8815,122,-53,-35
1,362,70840,-2557,-16194,-4086,83,91,-64
1,363,70845,-3094,-16707,-4598,119,-333,75
1,364,70850,-1954,-16689,-4806,130,-398,78
1,365,70855,-2931,-15917,-1926,110,-3,-26
1,366,70860,-3523,-15923,87,126,223,-25
1,367,70865,-2289,-16526,-1204,149,161,15
1,368,70870,-846,-16486,-2073,137,101,11
1,369,70875,-290,-15982,-909,123,78,3
1,370,70880,-908,-15905,189,112,14,14
1,371,70885,-2313,-16005,410,122,-69,4
1,372,70890,-3324,-16304,-157,127,-140,9
1,373,70895,-3840,-16318,-180,112,-126,36
1,374,70900,-4207,-16009,171,102,-74,34
1,375,70905,-4306,-16067,417,106,-35,5
1,376,70910,-5031,-16097,-1043,116,-66,-8
1,377,70915,-5732,-16935,-1703,122,-92,-10
1,378,70920,-5742,-16812,-2330,104,-141,-21
1,379,70925,-5130,-16325,-1010,79,-137,-16
1,380,70930,-4155,-16032,728,76,-145,-28
1,381,70935,-3844,-15842,2068,87,-186,-47
1,382,70940,-3905,-15964,1360,97,-322,-41
1,383,70945,-3827,-16434,28,106,-479,-26
1,384,70950,-3417,-16498,-739,98,-632,-29
1,385,70955,-2505,-16464,-341,79,-795,-21
1,386,70960,-2017,-16138,677,72,-977,-2
1,387,70965,-1481,-16425,1563,88,-1189,4
1,388,70970,-1535,-17013,1277,103,-1377,0
1,389,70975,-1935,-17461,-1087,116,-1450,11
1,390,70980,-2542,-17521,-2965,111,-1312,18
1,391,70985,-2569,-17335,-4007,107,-1074,12
1,392,70990,-2693,-17076,-4023,100,-809,-2
1,393,70995,-2906,-17431,-4201,108,-582,-7
1,394,71000,-3311,-18133,-4090,113,-310,-14
1,395,71005,-3453,-18467,-3689,113,-15,-27
1,396,71010,-2994,-18674,-2597,114,255,-31
1,397,71015,-2744,-18746,-1120,114,420,-32
1,398,71020,-2675,-18860,-134,126,406,-29
1,399,71025,-2443,-18836,614,136,248,-6
1,400,71030,-1931,-18817,1485,144,7,29
1,401,71035,-1286,-18533,1659,138,-264,64
1,402,71040,-1360,-18492,2095,135,-423,84
1,403,71045,-2344,-18169,1097,141,-578,94
1,404,71050,-2258,-18447,-1816,150,-745,183
1,405,71055,-1876,-18308,-1597,142,-678,185
1,406,71060,-2022,-18284,-1478,145,-588,199
1,407,71065,-2817,-18427,-1817,150,-438,215
1,408,71070,-3125,-18372,-2258,156,-284,234
1,409,71075,-2827,-18032,-1338,148,-112,248
1,410,71080,-2299,-17666,130,146,-50,272
1,411,71085,-2232,-17348,1386,149,-91,294
1,412,71090,-2578,-17134,1427,159,-228,321
1,413,71095,-2979,-17060,1027,166,-384,361
1,414,71100,-2946,-16810,1055,160,-516,395
1,415,71105,-2853,-16470,1518,153,-636,423
1,416,71110,-3060,-16365,1900,161,-763,451
1,417,71115,-3500,-16187,1311,172,-877,477
1,418,71120,-3780,-16010,354,175,-922,499
1,419,71125,-3705,-15792,-240,174,-900,526
1,420,71130,-3134,-15641,-241,172,-843,553
1,421,71135,-2595,-15465,-26,174,-784,574
1,422,71140,-2522,-15306,-83,177,-724,590
1,423,71145,-2781,-15192,-244,180,-631,610
1,424,71150,-2961,-15098,-443,181,-513,630
1,425,71155,-2818,-14952,-339,180,-385,650
1,426,71160,-2615,-14763,65,179,-280,668
1,427,71165,-2706,-14628,564,183,-223,685
1,428,71170,-3062,-14504,917,181,-210,705
1,429,71175,-3214,-14549,735,185,-238,732
1,430,71180,-3191,-14646,506,191,-244,759
1,431,71185,-3195,-14686,470,190,-233,779
1,432,71190,-3446,-14651,797,188,-245,794
1,433,71195,-3830,-14547,833,197,-295,814
1,434,71200,-4016,-14539,673,203,-347,836
1,435,71205,-3817,-14608,495,203,-359,853
1,436,71210,-3516,-14698,530,206,-340,863
1,437,71215,-3537,-14776,746,210,-334,872
1,438,71220,-3977,-14706,596,213,-349,880
1,439,71225,-4496,-14601,89,219,-356,889
1,440,71230,-4621,-14546,-126,219,-319,902
1,441,71235,-4439,-14598,122,218,-259,910
1,442,71240,-4133,-14698,496,220,-206,909
1,443,71245,-4105,-14702,550,224,-193,907
1,444,71250,-4398,-14566,273,228,-195,911
1,445,71255,-4850,-14363,196,226,-193,917
1,446,71260,-5036,-14285,327,223,-190,917
1,447,71265,-5027,-14289,688,221,-186,919
1,448,71270,-4681,-14459,928,222,-196,922
1,449,71275,-4458,-14594,1118,223,-231,921
1,450,71280,-4402,-14803,1292,228,-311,922
1,451,71285,-4553,-14899,1366,231,-421,924
1,452,71290,-4783,-14980,1087,232,-533,920
1,453,71295,-5010,-15026,794,232,-596,915
1,454,71300,-5008,-15083,320,235,-611,910
1,455,71305,-5025,-15093,-55,235,-579,900
1,456,71310,-5071,-15140,-171,237,-547,887
1,457,71315,-5121,-15150,-191,234,-518,874
1,458,71320,-4999,-15141,-330,239,-473,861
1,459,71325,-4820,-15065,-297,237,-400,848
1,460,71330,-4598,-14998,-111,230,-317,833
1,461,71335,-4549,-14938,-54,224,-252,819
1,462,71340,-4594,-14977,-110,224,-209,807
1,463,71345,-4612,-15067,-181,223,-170,799
1,464,71350,-4491,-15126,-47,216,-123,787
1,465,71355,-4509,-15234,151,211,-67,769
1,466,71360,-4847,-15443,194,209,-40,754
1,467,71365,-5244,-15663,54,210,-50,742
1,468,71370,-5348,-15667,309,202,-78,725
1,469,71375,-5175,-15629,830,199,-129,713
1,470,71380,-5172,-15581,1261,196,-208,700
1,471,71385,-5303,-15633,1057,196,-305,687
1,472,71390,-5463,-15640,449,195,-381,677
1,473,71395,-5611,-15601,42,190,-423,663
1,474,71400,-5669,-15528,8,181,-443,639
1,475,71405,-5564,-15481,93,175,-449,619
1,476,71410,-5421,-15450,-23,174,-424,600
1,477,71415,-5206,-15535,-295,162,-269,556
1,478,71420,-5173,-15655,-232,154,-190,533
1,479,71425,-5200,-15727,-115,143,-131,511
1,480,71430,-5314,-15753,-114,139,-75,492
1,481,71435,-5385,-15705,-159,128,-1,466
1,482,71440,-5476,-15596,50,117,77,440
1,483,71445,-5539,-15616,354,109,113,422
1,484,71450,-5631,-15730,502,101,108,402
1,485,71455,-5843,-15945,404,100,75,380
1,486,71460,-6110,-15958,348,95,41,358
1,487,71465,-6150,-15916,479,85,-5,337
1,488,71470,-6262,-15768,1144,73,-71,316
1,489,71475,-6414,-15682,1183,72,-192,295
1,490,71480,-6517,-15729,740,70,-292,276
1,491,71485,-6518,-15740,374,64,-351,252
1,492,71490,-6429,-15820,472,54,-384,226
1,493,71495,-6216,-15939,601,47,-431,203
1,494,71500,-6051,-16069,244,43,-467,178
1,495,71505,-6085,-16125,-265,37,-448,146
1,496,71510,-6170,-16157,-423,26,-387,117
1,497,71515,-6139,-16102,-257,15,-320,87
1,498,71520,-6031,-16052,6,7,-277,59
1,499,71525,-5840,-16081,29,2,-242,29
1,500,71530,-5871,-15943,123,-9,-197,2
1,501,71535,-6121,-15791,276,-19,-159,-34
1,502,71540,-6497,-15685,391,-28,-147,-65
1,503,71545,-6536,-15698,481,-35,-169,-83
1,504,71550,-6193,-15672,580,-40,-209,-107
1,505,71555,-5750,-15620,837,-47,-255,-132
1,506,71560,-5570,-15542,1138,-56,-314,-160
1,507,71565,-5667,-15501,1087,-67,-391,-182
1,508,71570,-5874,-15549,699,-72,-455,-205
1,509,71575,-5824,-15631,180,-80,-474,-228
1,510,71580,-5564,-15751,-114,-90,-447,-256
1,511,71585,-5498,-15797,-59,-101,-400,-285
1,512,71590,-5519,-15851,75,-109,-367,-319
1,513,71595,-5526,-15759,57,-116,-351,-348
1,514,71600,-5485,-15568,74,-127,-324,-372
1,515,71605,-5619,-15380,325,-141,-280,-405
1,516,71610,-5666,-15382,574,-149,-248,-431
1,517,71615,-5536,-15411,547,-156,-233,-456
1,518,71620,-5368,-15361,479,-164,-223,-483
1,519,71625,-5497,-15271,597,-173,-222,-510
1,520,71630,-5620,-15225,836,-185,-247,-536
1,521,71635,-5331,-15172,842,-192,-289,-558
1,522,71640,-4652,-15221,623,-201,-309,-573
1,523,71645,-4395,-15299,384,-212,-293,-598
1,524,71650,-4685,-15409,109,-214,-263,-628
1,525,71655,-5018,-15403,-212,-223,-238,-654
1,526,71660,-5101,-15394,-422,-234,-197,-674
1,527,71665,-4924,-15434,-255,-245,-124,-697
1,528,71670,-4764,-15510,29,-250,-42,-723
1,529,71675,-4757,-15623,133,-254,19,-755
1,530,71680,-4838,-15652,97,-258,41,-780
1,531,71685,-4925,-15585,263,-262,40,-801
1,532,71690,-4894,-15489,535,-263,17,-816
1,533,71695,-4917,-15265,590,-270,-11,-838
1,534,71700,-5097,-15214,590,-275,-29,-860
1,535,71705,-4957,-15166,755,-279,-57,-874
1,536,71710,-4332,-15235,949,-284,-99,-886
1,537,71715,-3740,-15335,1129,-286,-160,-901
1,538,71720,-3683,-15417,957,-289,-231,-917
1,539,71725,-4011,-15528,490,-292,-284,-932
1,540,71730,-4301,-15542,-92,-301,-300,-941
1,541,71735,-4114,-15524,-418,-307,-263,-954
1,542,71740,-3788,-15623,-372,-312,-185,-972
1,543,71745,-3537,-15699,-262,-314,-109,-988
1,544,71750,-3570,-15686,-251,-317,-46,-1006
1,545,71755,-3684,-15720,-380,-318,6,-1022
1,546,71760,-3655,-15779,-486,-324,65,-1033
1,547,71765,-3483,-15823,-379,-329,137,-1047
1,548,71770,-3386,-15802,-50,-330,201,-1061
1,549,71775,-3575,-15767,221,-326,234,-1078
1,550,71780,-3595,-15729,415,-324,188,-1092
1,551,71785,-3468,-15743,484,-324,145,-1097
1,552,71790,-3498,-15779,532,-322,92,-1106
1,553,71795,-3390,-15739,477,-319,25,-1112
1,554,71800,-3059,-15780,388,-320,-38,-1110
1,555,71805,-2758,-15864,457,-317,-93,-1114
1,556,71810,-2692,-15923,408,-318,-135,-1121
1,557,71815,-2887,-16024,70,-317,-167,-1125
1,558,71820,-3004,-16036,-363,-319,-169,-1129
1,559,71825,-2853,-16041,-514,-318,-145,-1134
1,560,71830,-2577,-16003,-537,-318,-96,-1138
1,561,71835,-2581,-16038,-250,-318,-44,-1146
1,562,71840,-2682,-16085,-306,-317,-7,-1154
1,563,71845,-2839,-16057,-402,-316,40,-1159
1,564,71850,-2784,-16142,-463,-317,89,-1166
1,565,71855,-2745,-16148,-255,-319,145,-1175
1,566,71860,-2714,-16117,-29,-319,175,-1181
1,567,71865,-2772,-16105,209,-314,186,-1184
1,568,71870,-2678,-16108,294,-311,178,-1189
1,569,71875,-2507,-16134,359,-311,160,-1188
1,570,71880,-2325,-16181,314,-311,135,-1193
1,571,71885,-2386,-16167,162,-309,99,-1193
1,572,71890,-2643,-16236,-88,-307,71,-1196
1,573,71895,-2701,-16277,-293,-307,74,-1199
1,574,71900,-2575,-16364,-354,-307,97,-1198
1,575,71905,-2310,-16450,-194,-305,124,-1205
1,576,71910,-2178,-16506,-66,-303,135,-1212
1,577,71915,-2139,-16566,-21,-301,122,-1212
1,578,71920,-2334,-16571,12,-301,104,-1214
1,579,71925,-2584,-16565,47,-299,82,-1216
1,580,71930,-2373,-16700,158,-296,52,-1209
1,581,71935,-1686,-16873,257,-295,5,-1201
1,582,71940,-996,-16954,476,-296,-56,-1199
1,583,71945,-1012,-17044,541,-292,-145,-1197
1,584,71950,-1440,-17090,-22,-286,-251,-1190
1,585,71955,-1654,-17118,-950,-286,-301,-1181
1,586,71960,-1354,-17210,-1423,-290,-267,-1171
1,587,71965,-867,-17215,-1248,-292,-182,-1167
1,588,71970,-533,-17161,-1005,-294,-116,-1167
1,589,71975,-569,-17147,-927,-288,-72,-1164
1,590,71980,-810,-17065,-1140,-287,-14,-1162
1,591,71985,-792,-16935,-1177,-287,65,-1153
1,592,71990,-479,-16855,-956,-288,143,-1146
1,593,71995,-49,-16841,-666,-287,192,-1141
1,594,72000,77,-16854,-533,-282,210,-1131
1,595,72005,-56,-16761,-652,-277,213,-1125
1,596,72010,-257,-16663,-706,-275,220,-1112
1,597,72015,-339,-16595,-694,-278,241,-1102
1,598,72020,-1122,-15839,-815,-277,261,-1091
1,599,72025,-1812,-24044,-7584,-174,368,-1065
1,600,72030,-20048,-28755,-32768,23,1125,-1267
1,601,72035,-32768,-18839,-29328,-303,6697,-876
1,602,72040,-13937,-11850,15317,-35,16616,-513
1,603,72045,2091,-5170,32767,30,16892,-829
1,604,72050,32767,-14654,32767,565,6003,-332
1,605,72055,11661,-18629,32251,550,415,-316
1,606,72060,-32768,-12349,16619,399,-5700,-78
1,607,72065,-32768,-10574,-14417,627,-10978,748
1,608,72070,-24001,-12945,-32768,192,-10151,1040
1,609,72075,21335,-24626,-22487,-40,-1063,900
1,610,72080,24094,-15571,21301,-121,7602,-660
1,611,72085,2583,-10592,32767,44,4963,-884
1,612,72090,-13456,-13172,10401,746,-5602,525
1,613,72095,-19036,-18454,-22693,918,-9360,1423
1,614,72100,-7497,-15998,-28021,153,-7058,880
1,615,72105,5861,-16259,-8925,14,-2550,299
1,616,72110,4048,-18003,10904,85,371,-43
1,617,72115,-3582,-17506,4950,164,-347,-51
1,618,72120,-6632,-14613,-14224,431,-2206,253
1,619,72125,-1961,-17243,-20587,313,-2409,514
1,620,72130,1725,-15586,-3552,126,-244,105
1,621,72135,3605,-16361,8033,146,1396,-50
1,622,72140,3052,-17040,5855,204,1645,3
1,623,72145,80,-15425,-5900,205,254,132
1,624,72150,-356,-14991,2350,141,-116,178
1,625,72155,654,-15752,7662,187,-100,201
1,626,72160,2719,-16661,632,252,168,189
1,627,72165,1923,-16744,-5421,234,705,146
1,628,72170,-204,-15862,-2937,168,722,117
1,629,72175,-1419,-14919,3448,139,-10,159
1,630,72180,18,-15463,2862,192,-788,242
1,631,72185,1087,-16458,-1909,219,-584,241
1,632,72190,317,-16830,-3827,189,315,153
1,633,72195,-1465,-15935,638,139,786,86
1,634,72200,-851,-15378,2705,145,144,137
1,635,72205,778,-15728,1879,177,-646,213
1,636,72210,1573,-16415,-473,181,-810,210
1,637,72215,196,-16643,-1123,161,-339,147
1,638,72220,-1350,-16212,-362,128,17,114
1,639,72225,-813,-15967,-408,130,-116,143
1,640,72230,674,-16006,-1098,139,-409,171
1,641,72235,1359,-16309,-1166,135,-448,157
1,642,72240,407,-16386,-665,124,-194,117
1,643,72245,-521,-16246,-736,107,61,96
1,644,72250,-161,-16066,-1245,98,145,109
1,645,72255,1112,-16108,-1297,90,119,122
1,646,72260,1833,-16243,-312,84,98,110
1,647,72265,1357,-16339,267,84,105,90
1,648,72270,143,-16357,-171,75,153,86
1,649,72275,-302,-16419,-1259,69,208,89
1,650,72280,39,-16481,-1166,54,280,88
1,651,72285,727,-16516,-189,45,271,87
1,652,72290,950,-16461,407,46,192,83
1,653,72295,161,-16547,23,46,119,79
1,654,72300,-410,-16275,-545,40,95,62
1,655,72305,-673,-16278,-337,24,100,73
1,656,72310,-232,-16519,171,11,58,80
1,657,72315,372,-16480,317,9,-13,62
1,658,72320,269,-16472,-117,9,-63,54
1,659,72325,-255,-16525,-567,4,-84,56
1,660,72330,-667,-16431,-691,-7,-74,50
1,661,72335,-409,-16405,-570,-16,-65,47
1,662,72340,160,-16542,-445,-22,-43,48
1,663,72345,374,-16583,-491,-27,-4,36
1,664,72350,140,-16510,-654,-33,36,24
1,665,72355,-172,-16501,-535,-40,69,21
1,666,72360,-41,-16453,-436,-45,75,20
1,667,72365,349,-16435,-438,-52,87,21
1,668,72370,542,-16476,-358,-58,119,17
1,669,72375,411,-16507,-355,-66,142,9
1,670,72380,123,-16428,-356,-67,141,6
1,671,72385,-37,-16373,-440,-70,134,6
1,672,72390,-53,-16348,-494,-75,141,7
1,673,72395,-6,-16392,-439,-78,163,3
1,674,72400,62,-16380,-300,-84,178,-2
1,675,72405,-116,-16328,-184,-89,173,-8
1,676,72410,-282,-16292,2,-94,149,-7
1,677,72415,-202,-16307,64,-96,118,-5
1,678,72420,-64,-16297,61,-99,108,-7
1,679,72425,36,-16310,-26,-104,103,-10
1,680,72430,-53,-16324,-35,-107,94,-12
1,681,72435,-197,-16324,-214,-113,70,-11
1,682,72440,-215,-16277,-309,-115,54,-13
1,683,72445,-94,-16256,-439,-117,60,-15
1,684,72450,-29,-16250,-432,-119,86,-21
1,685,72455,-76,-16265,-354,-122,107,-22
1,686,72460,-50,-16287,-316,-122,114,-22
1,687,72465,-73,-16297,-285,-127,118,-28
1,688,72470,-38,-16367,-349,-128,112,-27
1,689,72475,20,-16413,-286,-129,118,-28
1,690,72480,-57,-16400,-241,-132,128,-31
1,691,72485,-139,-16401,-234,-133,132,-29
1,692,72490,-232,-16487,-289,-132,133,-31
1,693,72495,-164,-16541,-457,-133,128,-30
1,694,72500,-89,-16471,-288,-134,143,-36
1,695,72505,-39,-16456,-172,-133,141,-37
1,696,72510,-100,-16509,-280,-133,104,-35
1,697,72515,-79,-16445,-338,-134,85,-33
1,698,72520,2,-16369,-325,-131,68,-31
1,699,72525,66,-16343,-149,-131,40,-29
1,700,72530,97,-16327,-120,-131,8,-27
1,701,72535,154,-16334,-321,-131,-16,-24
1,702,72540,194,-16390,-458,-127,-22,-25
1,703,72545,182,-16430,-474,-129,-19,-25
1,704,72550,167,-16466,-410,-129,-9,-22
1,705,72555,275,-16479,-385,-125,-2,-20
1,706,72560,285,-16474,-474,-124,0,-16
1,707,72565,294,-16501,-633,-122,18,-15
1,708,72570,245,-16454,-592,-122,40,-18
1,709,72575,268,-16465,-558,-124,60,-15
1,710,72580,269,-16508,-517,-123,73,-14
1,711,72585,239,-16577,-574,-118,89,-12
1,712,72590,39,-16627,-563,-119,114,-12
1,713,72595,-140,-16607,-509,-114,134,-13
1,714,72600,-148,-16586,-386,-113,143,-11
1,715,72605,-86,-16496,-310,-112,134,-8
1,716,72610,-49,-16463,-235,-109,123,-6
1,717,72615,-176,-16459,-111,-107,105,-7
1,718,72620,-293,-16449,-23,-107,80,-7
1,719,72625,-376,-16481,-72,-105,54,-3
1,720,72630,-326,-16494,-68,-104,38,2
1,721,72635,-197,-16451,-147,-105,23,-4
1,722,72640,-97,-16537,-123,-103,1,-6
1,723,72645,-67,-16497,-159,-99,-25,-5
1,724,72650,-41,-16462,-243,-97,-48,-2
1,725,72655,-88,-16467,-381,-95,-65,2
1,726,72660,-133,-16509,-529,-91,-68,2
1,727,72665,-19,-16444,-685,-92,-49,0
1,728,72670,110,-16490,-697,-89,-17,3
1,729,72675,170,-16470,-648,-88,9,1
1,730,72680,168,-16410,-545,-86,20,0
1,731,72685,133,-16460,-558,-81,25,5
1,732,72690,204,-16431,-701,-79,41,5
1,733,72695,273,-16372,-711,-78,70,2
1,734,72700,158,-16418,-553,-79,91,6
1,735,72705,155,-16432,-422,-75,98,9
1,736,72710,202,-16389,-434,-72,98,10
1,737,72715,178,-16403,-474,-71,105,10
1,738,72720,96,-16412,-437,-71,117,9
1,739,72725,-8,-16432,-410,-68,114,12
1,740,72730,-94,-16527,-367,-62,98,15
1,741,72735,-150,-16583,-358,-56,86,17
1,742,72740,-177,-16536,-318,-56,74,12
1,743,72745,-227,-16469,-209,-58,53,13
1,744,72750,-183,-16447,-128,-55,8,17
1,745,72755,-139,-16391,-67,-51,-44,21
1,746,72760,-95,-16417,-214,-47,-93,26
1,747,72765,-86,-16437,-352,-44,-120,25
1,748,72770,-217,-16474,-519,-43,-128,25
1,749,72775,-232,-16472,-659,-41,-126,28
1,750,72780,-110,-16444,-824,-39,-108,28
1,751,72785,42,-16459,-856,-37,-81,27
1,752,72790,54,-16454,-687,-37,-54,24
1,753,72795,71,-16409,-643,-36,-31,24
1,754,72800,89,-16427,-740,-31,-6,24
1,755,72805,137,-16431,-810,-28,22,28
1,756,72810,179,-16401,-725,-28,51,29
1,757,72815,176,-16450,-648,-25,73,30
1,758,72820,41,-16448,-570,-20,84,34
1,759,72825,-71,-16458,-602,-18,83,34
1,760,72830,-107,-16476,-608,-16,87,34
1,761,72835,-89,-16496,-508,-16,97,37
1,762,72840,-76,-16588,-350,-16,98,39
1,763,72845,-139,-16640,-289,-12,84,38
1,764,72850,-267,-16642,-303,-8,62,38
1,765,72855,-305,-16622,-309,-8,47,42
1,766,72860,-318,-16624,-277,-9,29,43
1,767,72865,-327,-16612,-225,-5,7,46
1,768,72870,-322,-16648,-326,0,-21,48
1,769,72875,-363,-16642,-604,4,-46,49
1,770,72880,-354,-16645,-550,2,-44,46
1,771,72885,-330,-16644,-553,4,-42,47
1,772,72890,-230,-16594,-590,10,-42,50
1,773,72895,-117,-16536,-599,13,-35,48
1,774,72900,-95,-16531,-587,11,-29,48
1,775,72905,-162,-16489,-514,17,-27,51
1,776,72910,-112,-16527,-571,16,-32,53
1,777,72915,-18,-16535,-699,16,-23,54
1,778,72920,25,-16534,-706,19,1,53
1,779,72925,-74,-16571,-634,19,23,51
1,780,72930,-184,-16626,-619,21,35,54
1,781,72935,-197,-16589,-746,24,43,55
1,782,72940,-144,-16645,-832,27,64,54
1,783,72945,-201,-16666,-679,27,86,53
1,784,72950,-270,-16709,-529,26,95,51
1,785,72955,-371,-16654,-484,32,87,54
1,786,72960,-402,-16618,-448,37,67,55
1,787,72965,-272,-16550,-263,34,47,51
1,788,72970,-229,-16465,-74,34,15,56
1,789,72975,-199,-16461,-76,41,-36,60
1,790,72980,-233,-16437,-194,42,-83,59
1,791,72985,-307,-16437,-299,42,-110,60
1,792,72990,-366,-16432,-442,44,-124,64
1,793,72995,-343,-16456,-588,46,-120,66
1,794,73000,-187,-16474,-695,46,-107,63
1,795,73005,-64,-16470,-705,46,-85,61
1,796,73010,-93,-16438,-637,46,-71,59
1,797,73015,-37,-16443,-739,50,-63,62
1,798,73020,-11,-16522,-781,50,-50,65
1,799,73025,-60,-16536,-801,50,-26,64
1,800,73030,-76,-16534,-779,49,-3,63
1,801,73035,-79,-16526,-766,52,10,62
1,802,73040,-145,-16480,-716,57,21,61
1,803,73045,-178,-16516,-667,59,26,62
1,804,73050,-145,-16536,-607,55,29,63
1,805,73055,-182,-16546,-624,56,26,67
1,806,73060,-204,-16552,-539,61,23,65
1,807,73065,-226,-16550,-477,65,17,66
1,808,73070,-219,-16480,-440,64,8,68
1,809,73075,-210,-16447,-401,62,1,69
1,810,73080,-269,-16418,-370,63,-7,71
1,811,73085,-348,-16435,-402,65,-16,72
1,812,73090,-341,-16423,-401,65,-27,73
1,813,73095,-304,-16404,-415,65,-36,71
1,814,73100,-294,-16381,-411,64,-47,71
1,815,73105,-341,-16399,-472,65,-63,70
1,816,73110,-356,-16424,-591,64,-75,71
1,817,73115,-349,-16487,-718,66,-73,69
1,818,73120,-306,-16474,-724,67,-57,70
1,819,73125,-344,-16458,-687,69,-42,68
1,820,73130,-374,-16424,-633,68,-34,68
1,821,73135,-368,-16446,-662,67,-26,67
1,822,73140,-351,-16449,-674,67,-18,65
1,823,73145,-350,-16467,-588,64,-4,66
1,824,73150,-378,-16479,-544,67,6,66
1,825,73155,-377,-16454,-532,70,9,64
1,826,73160,-351,-16407,-542,69,6,67
1,827,73165,-302,-16362,-466,63,8,65
1,828,73170,-277,-16338,-411,66,-4,64
1,829,73175,-291,-16355,-497,67,-12,63
1,830,73180,-379,-16432,-588,67,-13,64
1,831,73185,-425,-16358,-645,66,-13,64
1,832,73190,-473,-16306,-562,65,-14,64
1,833,73195,-454,-16272,-436,66,-15,64
1,834,73200,-344,-16294,-402,65,-24,65
1,835,73205,-287,-16294,-415,64,-34,64
1,836,73210,-318,-16339,-450,66,-38,65
1,837,73215,-439,-16368,-469,66,-40,62
1,838,73220,-466,-16411,-567,64,-35,62
1,839,73225,-455,-16407,-628,61,-26,64
1,840,73230,-326,-16372,-611,60,-17,64
1,841,73235,-308,-16361,-586,59,-7,61
1,842,73240,-431,-16424,-610,58,-1,61
1,843,73245,-403,-16470,-673,56,8,60
1,844,73250,-338,-16494,-697,54,22,60
1,845,73255,-413,-16517,-685,55,35,58
1,846,73260,-487,-16512,-653,55,38,58
1,847,73265,-528,-16492,-610,52,35,56
1,848,73270,-458,-16452,-374,49,30,56
1,849,73275,-430,-16394,-242,53,21,57
1,850,73280,-452,-16438,-147,48,7,56
1,851,73285,-521,-16444,-223,50,-11,58
1,852,73290,-528,-16411,-307,49,-27,57
1,853,73295,-611,-16378,-283,46,-42,55
1,854,73300,-614,-16376,-245,44,-58,56
1,855,73305,-637,-16325,-277,42,-64,57
1,856,73310,-602,-16342,-358,39,-62,56
1,857,73315,-615,-16364,-464,39,-58,55
1,858,73320,-680,-16353,-543,36,-49,52
1,859,73325,-661,-16397,-598,36,-38,52
1,860,73330,-654,-16430,-654,31,-30,48
1,861,73335,-670,-16440,-681,30,-16,46
1,862,73340,-584,-16517,-612,31,1,41
1,863,73345,-577,-16464,-502,29,14,40
1,864,73350,-572,-16450,-500,28,20,38
1,865,73355,-585,-16453,-554,29,23,37
1,866,73360,-558,-16475,-598,25,32,37
1,867,73365,-542,-16482,-548,23,36,38
1,868,73370,-559,-16454,-458,22,39,34
1,869,73375,-614,-16476,-369,19,34,34
1,870,73380,-644,-16488,-350,19,30,32
1,871,73385,-650,-16503,-390,19,24,35
1,872,73390,-591,-16550,-376,16,22,34
1,873,73395,-608,-16519,-304,16,9,30
1,874,73400,-627,-16550,-187,13,-11,28
1,875,73405,-669,-16532,-236,8,-31,32
1,876,73410,-666,-16550,-379,13,-43,30
1,877,73415,-693,-16590,-493,9,-40,26
1,878,73420,-737,-16541,-473,5,-27,25
1,879,73425,-753,-16568,-417,4,-24,22
1,880,73430,-776,-16592,-440,6,-26,24
1,881,73435,-724,-16608,-453,1,-12,18
1,882,73440,-703,-16616,-468,-1,4,15
1,883,73445,-618,-16584,-341,-5,17,12
1,884,73450,-658,-16539,-255,-6,17,12
1,885,73455,-658,-16576,-292,-7,9,11
1,886,73460,-628,-16613,-336,-8,4,12
1,887,73465,-638,-16623,-368,-10,8,10
1,888,73470,-647,-16661,-391,-14,14,6
1,889,73475,-666,-16641,-326,-16,17,5
1,890,73480,-633,-16641,-286,-17,13,6
1,891,73485,-577,-16663,-257,-19,11,3
1,892,73490,-580,-16671,-212,-22,11,0
1,893,73495,-621,-16704,-260,-22,10,-1
1,894,73500,-703,-16706,-335,-22,9,-1
1,895,73505,-707,-16756,-342,-24,13,-1
1,896,73510,-674,-16728,-337,-26,15,-2
1,897,73515,-670,-16750,-281,-27,23,-5
1,898,73520,-644,-16712,-280,-31,23,-9
1,899,73525,-638,-16678,-296,-33,28,-11
1,900,73530,-694,-16736,-323,-33,30,-12
1,901,73535,-669,-16728,-289,-35,26,-11
1,902,73540,-647,-16671,-260,-35,13,-15
1,903,73545,-577,-16685,-271,-35,-2,-15
1,904,73550,-591,-16647,-306,-36,-12,-15
1,905,73555,-597,-16645,-335,-36,-21,-14
1,906,73560,-588,-16621,-385,-38,-33,-16
1,907,73565,-525,-16673,-490,-36,-40,-16
1,908,73570,-484,-16695,-556,-37,-41,-18
1,909,73575,-481,-16690,-589,-36,-39,-19
1,910,73580,-476,-16655,-568,-37,-37,-20
1,911,73585,-449,-16633,-550,-35,-34,-17
1,912,73590,-384,-16586,-557,-36,-29,-18
1,913,73595,-366,-16494,-556,-35,-19,-21
1,914,73600,-306,-16475,-552,-35,-11,-22
1,915,73605,-247,-16445,-485,-36,-8,-23
1,916,73610,-212,-16338,-369,-37,-3,-17
1,917,73615,-119,-16301,-442,-37,5,-20
1,918,73620,-116,-16279,-389,-35,16,-17
1,919,73625,-192,-16241,-395,-33,22,-14
1,920,73630,-252,-16232,-418,-35,25,-13
1,921,73635,-297,-16185,-404,-33,35,-15
1,922,73640,-304,-16198,-394,-33,42,-15
1,923,73645,-286,-16238,-413,-34,54,-14
1,924,73650,-313,-16211,-414,-34,58,-12
1,925,73655,-296,-16247,-415,-34,56,-12
1,926,73660,-328,-16259,-354,-33,50,-10
1,927,73665,-362,-16213,-356,-33,41,-11
1,928,73670,-398,-16210,-352,-31,30,-8
1,929,73675,-404,-16248,-382,-29,24,-8
1,930,73680,-432,-16254,-444,-28,25,-10
1,931,73685,-409,-16256,-428,-28,25,-7
1,932,73690,-406,-16203,-443,-27,27,-8
1,933,73695,-424,-16187,-389,-25,27,-8
1,934,73700,-422,-16195,-395,-24,28,-8
1,935,73705,-391,-16170,-436,-24,32,-6
1,936,73710,-377,-16168,-423,-22,38,-7
1,937,73715,-378,-16149,-451,-23,43,-6
1,938,73720,-362,-16161,-426,-21,41,-6
1,939,73725,-421,-16188,-457,-19,39,-4
1,940,73730,-407,-16195,-597,-20,42,-3
1,941,73735,-504,-16203,-643,-20,54,-1
1,942,73740,-578,-16255,-660,-20,74,-2
1,943,73745,-609,-16262,-599,-19,90,-5
1,944,73750,-566,-16303,-541,-18,101,-4
1,945,73755,-606,-16297,-564,-15,108,-5
1,946,73760,-652,-16330,-438,-15,116,-6
1,947,73765,-689,-16371,-300,-15,109,-5
1,948,73770,-744,-16387,-226,-16,94,-5
1,949,73775,-739,-16393,-228,-12,75,-4
1,950,73780,-707,-16373,-245,-11,54,-4
1,951,73785,-747,-16363,-256,-13,35,-4
1,952,73790,-784,-16331,-209,-10,7,-5
1,953,73795,-784,-16344,-180,-6,-21,-5
1,954,73800,-699,-16371,-301,-9,-43,-2
1,955,73805,-716,-16387,-462,-10,-52,-4
1,956,73810,-730,-16385,-496,-7,-49,-6
1,957,73815,-795,-16405,-499,-4,-42,-7
1,958,73820,-791,-16379,-514,-4,-38,-7
1,959,73825,-705,-16413,-543,-5,-35,-7
1,960,73830,-633,-16373,-497,-7,-26,-8
1,961,73835,-610,-16345,-397,-5,-21,-9
1,962,73840,-592,-16360,-432,-1,-22,-8
1,963,73845,-604,-16359,-443,-4,-29,-7
1,964,73850,-560,-16379,-383,-3,-29,-6
1,965,73855,-509,-16329,-349,-1,-26,-5
1,966,73860,-445,-16336,-370,-1,-18,-7
1,967,73865,-452,-16321,-424,-3,-14,-4
1,968,73870,-498,-16327,-465,-1,-12,-4
1,969,73875,-483,-16335,-485,-1,-13,-2
1,970,73880,-501,-16357,-420,0,-12,-2
1,971,73885,-500,-16416,-539,2,-9,-2
1,972,73890,-507,-16467,-623,2,-1,0
1,973,73895,-509,-16462,-646,2,11,-3
1,974,73900,-570,-16403,-497,2,21,-4
1,975,73905,-570,-16334,-270,1,21,-4
1,976,73910,-549,-16348,-272,0,9,-2
1,977,73915,-481,-16386,-278,5,0,3
1,978,73920,-423,-16382,-297,6,0,2
1,979,73925,-442,-16340,-173,3,-6,2
1,980,73930,-483,-16320,-217,1,-27,6
1,981,73935,-422,-16338,-382,5,-42,9
1,982,73940,-400,-16335,-522,7,-37,8
1,983,73945,-340,-16342,-507,1,-21,7
1,984,73950,-425,-16349,-426,0,-6,8
1,985,73955,-425,-16380,-396,1,0,9
1,986,73960,-422,-16423,-546,1,8,10
1,987,73965,-423,-16444,-619,0,24,10
1,988,73970,-464,-16493,-538,2,33,9
1,989,73975,-418,-16502,-508,2,30,13
1,990,73980,-426,-16548,-561,3,29,12
1,991,73985,-414,-16570,-574,3,31,14
1,992,73990,-495,-16590,-515,5,33,17
1,993,73995,-518,-16616,-454,4,31,18
1,994,74000,-524,-16623,-483,4,28,19
1,995,74005,-468,-16628,-553,5,29,20
1,996,74010,-554,-16674,-618,6,36,20
1,997,74015,-585,-16614,-598,7,40,22
1,998,74020,-601,-16550,-439,7,42,18
1,999,74025,-601,-16519,-293,5,37,20
2,0,76755,-642,-16298,-534,-31,34,47
2,1,76760,-645,-16379,-580,-31,37,51
2,2,76765,-627,-16378,-614,-29,34,49
2,3,76770,-603,-16367,-689,-31,34,48
2,4,76775,-626,-16409,-632,-34,43,50
2,5,76780,-722,-16384,-567,-35,46,52
2,6,76785,-699,-16375,-586,-32,50,52
2,7,76790,-654,-16381,-689,-34,55,56
2,8,76795,-727,-16423,-715,-32,64,55
2,9,76800,-805,-16475,-693,-30,68,55
2,10,76805,-953,-16524,-623,-31,63,55
2,11,76810,-947,-16500,-578,-33,50,55
2,12,76815,-946,-16447,-571,-31,42,56
2,13,76820,-1006,-16448,-495,-29,31,57
2,14,76825,-921,-16367,-468,-33,15,54
2,15,76830,-900,-16352,-430,-30,-9,56
2,16,76835,-913,-16336,-432,-27,-29,57
2,17,76840,-915,-16289,-428,-28,-35,57
2,18,76845,-928,-16265,-522,-31,-33,54
2,19,76850,-893,-16260,-595,-35,-23,54
2,20,76855,-861,-16243,-639,-33,-13,55
2,21,76860,-771,-16234,-658,-32,-9,54
2,22,76865,-736,-16238,-666,-33,-5,53
2,23,76870,-722,-16292,-737,-33,-1,55
2,24,76875,-712,-16301,-760,-31,8,52
2,25,76880,-793,-16343,-826,-30,20,55
2,26,76885,-803,-16376,-783,-30,34,51
2,27,76890,-804,-16402,-727,-29,46,52
2,28,76895,-842,-16447,-692,-27,47,53
2,29,76900,-875,-16453,-680,-26,43,53
2,30,76905,-979,-16450,-577,-26,39,53
2,31,76910,-1066,-16394,-587,-26,30,51
2,32,76915,-1088,-16385,-551,-26,18,49
2,33,76920,-1090,-16373,-510,-24,6,53
2,34,76925,-1087,-16354,-505,-22,-3,51
2,35,76930,-1137,-16332,-508,-24,-7,49
2,36,76935,-1158,-16275,-542,-22,-16,47
2,37,76940,-1209,-16269,-604,-22,-26,49
2,38,76945,-1209,-16274,-706,-23,-36,44
2,39,76950,-1143,-16226,-756,-22,-40,40
2,40,76955,-1067,-16204,-725,-18,-45,42
2,41,76960,-1102,-16192,-810,-17,-45,41
2,42,76965,-1072,-16169,-923,-20,-46,39
2,43,76970,-1040,-16204,-974,-17,-41,37
2,44,76975,-1009,-16229,-945,-16,-42,34
2,45,76980,-935,-16290,-875,-14,-47,35
2,46,76985,-793,-16277,-796,-11,-57,34
2,47,76990,-743,-16334,-757,-6,-67,35
2,48,76995,-789,-16338,-755,-7,-77,35
2,49,77000,-743,-16298,-851,-2,-92,38
2,50,77005,-722,-16291,-910,-1,-102,38
2,51,77010,-685,-16275,-918,0,-103,35
2,52,77015,-696,-16269,-797,2,-103,36
2,53,77020,-704,-16307,-761,3,-96,38
2,54,77025,-715,-16273,-759,4,-85,40
2,55,77030,-685,-16268,-718,6,-72,40
2,56,77035,-602,-16239,-650,4,-59,37
2,57,77040,-614,-16266,-548,5,-51,39
2,58,77045,-654,-16257,-439,3,-51,41
2,59,77050,-708,-16283,-454,4,-52,38
2,60,77055,-703,-16308,-471,6,-48,42
2,61,77060,-752,-16335,-486,5,-42,44
2,62,77065,-787,-16380,-472,6,-39,43
2,63,77070,-814,-16394,-517,7,-39,43
2,64,77075,-837,-16441,-546,5,-39,41
2,65,77080,-885,-16475,-525,5,-33,39
2,66,77085,-911,-16498,-471,4,-30,41
2,67,77090,-957,-16471,-413,1,-30,40
2,68,77095,-911,-16466,-420,2,-32,37
2,69,77100,-925,-16504,-506,4,-28,37
2,70,77105,-930,-16532,-534,5,-22,37
2,71,77110,-1023,-16548,-568,3,-16,34
2,72,77115,-1077,-16575,-590,1,-6,34
2,73,77120,-1135,-16584,-604,4,9,33
2,74,77125,-1203,-16608,-612,2,31,29
2,75,77130,-1242,-16673,-621,2,49,29
2,76,77135,-1329,-16650,-609,4,59,25
2,77,77140,-1360,-16701,-584,2,63,24
2,78,77145,-1384,-16730,-539,3,64,21
2,79,77150,-1447,-16710,-575,5,63,17
2,80,77155,-1506,-16764,-565,4,60,16
2,81,77160,-1534,-16810,-615,7,55,15
2,82,77165,-1468,-16778,-608,5,50,10
2,83,77170,-1491,-16735,-468,5,45,9
2,84,77175,-1522,-16764,-436,6,34,8
2,85,77180,-1513,-16721,-454,7,22,2
2,86,77185,-1492,-16671,-513,5,14,1
2,87,77190,-1466,-16675,-511,6,9,1
2,88,77195,-1420,-16665,-472,4,-4,-3
2,89,77200,-1358,-16677,-463,8,-24,-4
2,90,77205,-1281,-16663,-545,8,-40,-1
2,91,77210,-1259,-16672,-591,3,-49,-5
2,92,77215,-1244,-16685,-610,7,-50,-6
2,93,77220,-1192,-16724,-641,8,-48,-8
2,94,77225,-1138,-16672,-741,7,-49,-8
2,95,77230,-1092,-16706,-761,8,-47,-7
2,96,77235,-1085,-16688,-672,6,-39,-9
2,97,77240,-1118,-16688,-678,5,-34,-11
2,98,77245,-1054,-16687,-774,7,-27,-11
2,99,77250,-1036,-16702,-837,8,-13,-10
2,100,77255,-1099,-16694,-742,8,-1,-15
2,101,77260,-1036,-16592,-496,9,-26,-9
2,102,77265,-948,-16588,-461,10,-37,-11
2,103,77270,-966,-16589,-500,11,-47,-11
2,104,77275,-1077,-16545,-536,11,-50,-9
2,105,77280,-1164,-16486,-576,10,-53,-8
2,106,77285,-1105,-16420,-559,13,-64,-4
2,107,77290,-1014,-16362,-568,13,-61,-9
2,108,77295,-975,-16393,-601,11,-54,-9
2,109,77300,-1052,-16347,-656,10,-44,-10
2,110,77305,-1109,-16333,-767,10,-32,-10
2,111,77310,-1049,-16283,-828,10,-18,-10
2,112,77315,-1031,-16275,-774,9,-5,-8
2,113,77320,-1087,-16310,-657,14,-2,-7
2,114,77325,-1120,-16287,-653,11,6,-10
2,115,77330,-1110,-16246,-672,11,16,-10
2,116,77335,-1097,-16230,-628,12,21,-10
2,117,77340,-1118,-16242,-578,15,15,-7
2,118,77345,-1093,-16259,-572,14,7,-8
2,119,77350,-1042,-16271,-564,12,-4,-5
2,120,77355,-964,-16286,-516,12,-10,-5
2,121,77360,-1002,-16293,-462,15,-11,-6
2,122,77365,-1065,-16221,-516,14,-10,-3
2,123,77370,-1078,-16203,-597,17,-14,2
2,124,77375,-1072,-16217,-590,16,-17,1
2,125,77380,-1031,-16180,-538,14,-19,2
2,126,77385,-1069,-16147,-568,15,-16,3
2,127,77390,-1158,-16153,-591,15,-12,1
2,128,77395,-1170,-16161,-624,17,-5,2
2,129,77400,-1137,-16157,-655,18,-1,2
2,130,77405,-1055,-16161,-625,17,-4,4
2,131,77410,-1042,-16127,-535,18,-13,7
2,132,77415,-1105,-16198,-541,19,-19,8
2,133,77420,-1068,-16256,-633,21,-22,10
2,134,77425,-1063,-16280,-644,15,-15,8
2,135,77430,-1058,-16363,-598,15,-3,10
2,136,77435,-1072,-16323,-614,18,3,13
2,137,77440,-1141,-16350,-670,18,6,14
2,138,77445,-1065,-16348,-751,19,12,17
2,139,77450,-999,-16332,-687,21,20,19
2,140,77455,-987,-16354,-585,20,28,19
2,141,77460,-1018,-16328,-547,20,22,19
2,142,77465,-1060,-16379,-635,23,14,21
2,143,77470,-1064,-16382,-764,25,12,25
2,144,77475,-1046,-16348,-680,23,16,29
2,145,77480,-1013,-16382,-631,24,13,31
2,146,77485,-1021,-16372,-622,24,8,32
2,147,77490,-1105,-16364,-681,23,7,33
2,148,77495,-1184,-16421,-790,23,15,35
2,149,77500,-1271,-16410,-731,23,23,35
2,150,77505,-1311,-16438,-677,22,24,37
2,151,77510,-1281,-16443,-650,25,27,39
2,152,77515,-1206,-16454,-601,24,25,41
2,153,77520,-1250,-16448,-528,23,23,41
2,154,77525,-1285,-16413,-529,23,16,43
2,155,77530,-1278,-16412,-489,22,5,43
2,156,77535,-1297,-16404,-551,22,0,48
2,157,77540,-1311,-16356,-620,22,7,46
2,158,77545,-1366,-16388,-631,21,5,49
2,159,77550,-1341,-16383,-639,23,3,48
2,160,77555,-1305,-16345,-670,23,1,47
2,161,77560,-1280,-16329,-648,22,-3,50
2,162,77565,-1309,-16360,-585,21,-4,53
2,163,77570,-1300,-16373,-548,22,-1,53
2,164,77575,-1309,-16374,-559,21,2,55
2,165,77580,-1281,-16380,-546,22,7,54
2,166,77585,-1207,-16401,-584,20,9,56
2,167,77590,-1216,-16375,-527,20,10,58
2,168,77595,-1301,-16393,-532,19,4,59
2,169,77600,-1383,-16356,-559,20,0,60
2,170,77605,-1457,-16494,-607,22,2,62
2,171,77610,-1434,-16460,-711,19,9,60
2,172,77615,-1371,-16436,-658,18,17,61
2,173,77620,-1389,-16426,-526,19,20,65
2,174,77625,-1401,-16397,-459,17,11,62
2,175,77630,-1405,-16397,-441,15,-7,68
2,176,77635,-1321,-16390,-382,12,-9,67
2,177,77640,-1263,-16385,-319,13,-19,68
2,178,77645,-1341,-16362,-352,14,-42,69
2,179,77650,-1436,-16364,-527,14,-63,71
2,180,77655,-1475,-16395,-666,11,-62,73
2,181,77660,-1515,-16376,-604,10,-53,74
2,182,77665,-1400,-16371,-537,10,-47,78
2,183,77670,-1266,-16404,-422,10,-40,75
2,184,77675,-1185,-16424,-473,9,-46,76
2,185,77680,-1258,-16388,-451,8,-55,79
2,186,77685,-1343,-16316,-530,10,-64,81
2,187,77690,-1423,-16330,-504,6,-68,88
2,188,77695,-1341,-16349,-552,9,-66,88
2,189,77700,-1246,-16359,-664,10,-47,88
2,190,77705,-1262,-16425,-688,5,-25,88
2,191,77710,-1359,-16442,-728,4,-15,87
2,192,77715,-1399,-16462,-773,7,-6,91
2,193,77720,-1425,-16453,-807,7,11,90
2,194,77725,-1477,-16444,-856,6,35,91
2,195,77730,-1440,-16507,-715,4,62,90
2,196,77735,-1407,-16550,-620,4,77,92
2,197,77740,-1371,-16509,-589,5,81,93
2,198,77745,-1430,-16507,-518,4,78,96
2,199,77750,-1520,-16524,-442,4,72,96
2,200,77755,-1509,-16492,-410,2,63,98
2,201,77760,-1423,-16452,-380,3,48,100
2,202,77765,-1452,-16474,-401,3,32,102
2,203,77770,-1525,-16511,-408,5,13,107
2,204,77775,-1621,-16474,-487,3,2,104
2,205,77780,-1687,-16462,-534,8,-10,108
2,206,77785,-1670,-16418,-564,2,-15,107
2,207,77790,-1624,-16432,-531,2,-13,106
2,208,77795,-1619,-16430,-390,1,-12,107
2,209,77800,-1650,-16395,-402,1,-20,110
2,210,77805,-1622,-16413,-451,1,-26,110
2,211,77810,-1545,-16404,-497,0,-25,109
2,212,77815,-1478,-16398,-549,3,-26,110
2,213,77820,-1570,-16418,-495,-1,-27,111
2,214,77825,-1643,-16478,-474,1,-31,110
2,215,77830,-1625,-16444,-538,3,-32,112
2,216,77835,-1537,-16420,-657,3,-24,116
2,217,77840,-1457,-16511,-648,1,-13,115
2,218,77845,-1443,-16461,-589,-1,-8,109
2,219,77850,-1492,-16500,-562,1,-16,113
2,220,77855,-1473,-16481,-613,4,-24,115
2,221,77860,-1437,-16430,-602,3,-21,113
2,222,77865,-1436,-16360,-584,4,-11,116
2,223,77870,-1415,-16382,-548,4,-6,118
2,224,77875,-1440,-16361,-581,4,-6,116
2,225,77880,-1454,-16305,-642,6,-9,116
2,226,77885,-1446,-16285,-642,5,-3,117
2,227,77890,-1482,-16280,-643,6,4,116
2,228,77895,-1507,-16280,-623,8,11,116
2,229,77900,-1552,-16265,-633,5,22,115
2,230,77905,-1591,-16313,-599,5,31,116
2,231,77910,-1611,-16331,-583,7,40,118
2,232,77915,-1561,-16305,-510,6,44,114
2,233,77920,-1586,-16299,-434,6,44,114
2,234,77925,-1684,-16326,-352,1,49,113
2,235,77930,-1848,-16321,-361,4,54,110
2,236,77935,-1959,-16304,-288,2,53,109
2,237,77940,-1941,-16346,-132,3,37,114
2,238,77945,-1734,-16317,-59,4,4,114
2,239,77950,-1554,-16310,-132,5,-39,111
2,240,77955,-1637,-16367,-193,7,-83,110
2,241,77960,-1828,-16378,-406,5,-124,112
2,242,77965,-1944,-16350,-686,6,-142,110
2,243,77970,-1807,-16399,-990,6,-129,111
2,244,77975,-1655,-16389,-1009,6,-94,105
2,245,77980,-1584,-16356,-885,9,-59,102
2,246,77985,-1645,-16366,-751,9,-33,98
2,247,77990,-1658,-16326,-707,10,-19,96
2,248,77995,-1632,-16335,-544,9,37,95
2,249,78000,-1669,-16363,-344,7,57,92
2,250,78005,-1766,-16320,-260,7,57,90
2,251,78010,-1807,-16360,-302,9,42,92
2,252,78015,-1761,-16388,-383,7,31,92
2,253,78020,-1838,-16393,-441,4,27,87
2,254,78025,-1945,-16397,-445,7,15,86
2,255,78030,-2037,-16474,-577,12,4,82
2,256,78035,-2031,-16452,-665,10,-2,81
2,257,78040,-1970,-16453,-635,8,3,77
2,258,78045,-2031,-16459,-527,9,12,75
2,259,78050,-2049,-16464,-473,9,13,71
2,260,78055,-2015,-16389,-486,11,4,68
2,261,78060,-1944,-16334,-494,13,2,69
2,262,78065,-1895,-16294,-385,11,2,65
2,263,78070,-1925,-16269,-350,9,1,63
2,264,78075,-1936,-16262,-406,10,-3,59
2,265,78080,-1956,-16275,-429,11,-7,59
2,266,78085,-1984,-16274,-451,6,-5,55
2,267,78090,-1974,-16237,-400,6,4,49
2,268,78095,-1948,-16273,-387,10,1,52
2,269,78100,-1913,-16285,-410,12,-5,48
2,270,78105,-1963,-16280,-477,9,-17,44
2,271,78110,-1964,-16365,-445,11,-30,43
2,272,78115,-1971,-16358,-460,13,-41,41
2,273,78120,-1915,-16396,-586,15,-49,39
2,274,78125,-1879,-16376,-625,15,-45,38
2,275,78130,-1849,-16388,-588,13,-39,33
2,276,78135,-1851,-16359,-560,11,-30,31
2,277,78140,-1762,-16371,-536,11,-25,30
2,278,78145,-1737,-16364,-541,13,-19,27
2,279,78150,-1800,-16332,-604,15,-9,25
2,280,78155,-1864,-16302,-575,16,5,24
2,281,78160,-1896,-16325,-462,13,15,19
2,282,78165,-1874,-16314,-460,11,22,21
2,283,78170,-1825,-16333,-476,14,28,21
2,284,78175,-1845,-16381,-505,11,30,18
2,285,78180,-1878,-16370,-485,15,30,13
2,286,78185,-2013,-16359,-567,13,26,9
2,287,78190,-2116,-16361,-576,14,21,9
2,288,78195,-2099,-16398,-586,16,22,9
2,289,78200,-2017,-16338,-575,12,32,4
2,290,78205,-2008,-16302,-474,14,44,1
2,291,78210,-1990,-16316,-434,17,46,-2
2,292,78215,-1981,-16291,-482,16,43,-5
2,293,78220,-1966,-16314,-517,16,35,-5
2,294,78225,-1908,-16312,-441,16,29,-9
2,295,78230,-1877,-16266,-375,15,21,-10
2,296,78235,-1913,-16269,-414,17,15,-8
2,297,78240,-1939,-16273,-504,18,14,-12
2,298,78245,-1984,-16298,-480,17,11,-14
2,299,78250,-1913,-16247,-490,15,5,-13
2,300,78255,-1804,-16240,-510,14,0,-19
2,301,78260,-1846,-16283,-556,15,2,-19
2,302,78265,-1883,-16345,-579,19,3,-19
2,303,78270,-1919,-16367,-642,17,8,-22
2,304,78275,-1932,-16363,-596,19,23,-26
2,305,78280,-1868,-16363,-563,17,37,-27
2,306,78285,-1844,-16392,-496,20,43,-27
2,307,78290,-1880,-16425,-414,21,43,-30
2,308,78295,-1857,-16417,-415,19,40,-30
2,309,78300,-1957,-16373,-454,19,38,-32
2,310,78305,-2050,-16381,-450,17,39,-34
2,311,78310,-2051,-16376,-421,17,36,-35
2,312,78315,-1984,-16357,-441,18,33,-35
2,313,78320,-2002,-16421,-500,20,31,-36
2,314,78325,-2023,-16421,-535,17,30,-40
2,315,78330,-2069,-16441,-596,18,26,-41
2,316,78335,-2185,-16414,-479,16,24,-43
2,317,78340,-2159,-16334,-509,18,15,-40
2,318,78345,-2112,-16316,-544,20,16,-38
2,319,78350,-1927,-16296,-635,20,22,-44
2,320,78355,-1851,-16247,-547,18,29,-46
2,321,78360,-2041,-16215,-301,23,3,-45
2,322,78365,-2067,-16233,-444,23,-6,-42
2,323,78370,-2043,-16241,-574,20,8,-42
2,324,78375,-2014,-16272,-504,17,32,-45
2,325,78380,-1980,-16278,-462,19,39,-47
2,326,78385,-2041,-16273,-386,21,32,-45
2,327,78390,-2083,-16235,-413,17,20,-46
2,328,78395,-2144,-16226,-525,17,19,-44
2,329,78400,-2216,-16239,-508,17,28,-46
2,330,78405,-2197,-16245,-481,20,33,-44
2,331,78410,-2102,-16223,-329,20,27,-42
2,332,78415,-1980,-16188,-291,21,9,-38
2,333,78420,-1947,-16136,-309,20,-12,-38
2,334,78425,-2077,-16072,-374,18,-26,-39
2,335,78430,-2221,-16132,-487,20,-29,-37
2,336,78435,-2200,-16200,-634,21,-22,-29
2,337,78440,-2014,-16114,-619,20,-1,-30
2,338,78445,-2064,-16070,-471,19,20,-33
2,339,78450,-2198,-16063,-371,20,25,-31
2,340,78455,-2101,-15989,-357,21,5,-21
2,341,78460,-1885,-15996,-297,22,-7,-19
2,342,78465,-1749,-15938,-169,22,-21,-20
2,343,78470,-1877,-15932,-111,19,-43,-13
2,344,78475,-2113,-15957,-214,23,-68,-7
2,345,78480,-2182,-15983,-566,25,-77,-1
2,346,78485,-2141,-16037,-741,24,-56,0
2,347,78490,-2003,-16053,-578,22,-20,-1
2,348,78495,-2030,-16073,-477,24,8,1
2,349,78500,-2164,-16077,-611,27,19,5
2,350,78505,-2314,-16213,-772,28,39,7
2,351,78510,-2296,-16250,-651,26,65,10
2,352,78515,-2174,-16185,-313,23,82,14
2,353,78520,-2163,-16218,-54,24,70,18
2,354,78525,-2492,-16239,-77,30,34,24
2,355,78530,-2599,-16283,-335,35,-9,32
2,356,78535,-2417,-16320,-204,36,-57,45
2,357,78540,-2056,-16213,240,35,-117,45
2,358,78545,-2146,-16226,562,35,-202,52
2,359,78550,-2462,-16261,367,44,-303,60
2,360,78555,-2765,-16160,-99,47,-374,67
2,361,78560,-2775,-16215,-356,48,-405,80
2,362,78565,-2531,-16267,-351,49,-412,83
2,363,78570,-2399,-16254,-168,52,-428,87
2,364,78575,-2449,-16213,-100,56,-457,93
2,365,78580,-2529,-16149,-294,58,-473,98
2,366,78585,-2545,-16096,-489,59,-451,106
2,367,78590,-2496,-16032,-623,59,-404,112
2,368,78595,-2324,-16115,-592,59,-350,118
2,369,78600,-2184,-16122,-615,61,-299,121
2,370,78605,-2172,-16146,-683,65,-253,126
2,371,78610,-2366,-16214,-795,72,-207,133
2,372,78615,-2219,-16245,-794,72,-163,144
2,373,78620,-1817,-16258,-558,73,-122,156
2,374,78625,-1604,-16238,-130,76,-101,163
2,375,78630,-1857,-16335,-166,85,-109,174
2,376,78635,-2346,-16341,-287,92,-116,190
2,377,78640,-2268,-16428,-524,98,-131,207
2,378,78645,-2192,-16266,-35,99,-122,214
2,379,78650,-2091,-16170,344,101,-144,227
2,380,78655,-2464,-16106,622,104,-181,238
2,381,78660,-2745,-16061,200,114,-240,254
2,382,78665,-2985,-15969,-63,115,-251,272
2,383,78670,-2797,-15942,-188,118,-243,284
2,384,78675,-2659,-15948,-6,121,-218,293
2,385,78680,-2402,-15991,-230,127,-198,305
2,386,78685,-2341,-15918,-661,133,-134,314
2,387,78690,-2426,-15862,-1109,137,-9,325
2,388,78695,-2488,-15834,-1287,136,153,334
2,389,78700,-2518,-15732,-1225,134,318,339
2,390,78705,-2682,-15630,-824,136,474,345
2,391,78710,-2691,-15419,-392,133,599,354
2,392,78715,-2563,-15520,224,138,686,379
2,393,78720,-2379,-15333,722,135,725,382
2,394,78725,-3320,-15555,1223,141,640,425
2,395,78730,-3768,-15620,1296,140,542,439
2,396,78735,-3582,-15762,1205,146,426,466
2,397,78740,-3263,-15838,1516,143,328,484
2,398,78745,-3120,-15934,1596,150,206,499
2,399,78750,-3344,-15961,1270,154,89,513
2,400,78755,-3744,-16025,579,159,2,531
2,401,78760,-3864,-15868,-79,158,-29,543
2,402,78765,-3786,-15908,-187,157,9,564
2,403,78770,-3656,-15894,-16,158,72,566
2,404,78775,-3577,-15817,179,158,135,570
2,405,78780,-3707,-15860,55,162,181,585
2,406,78785,-3849,-15736,7,163,230,587
2,407,78790,-3848,-15780,-64,164,270,599
2,408,78795,-3687,-15826,78,164,313,609
2,409,78800,-3628,-15856,254,162,347,621
2,410,78805,-3726,-15904,396,166,368,632
2,411,78810,-3897,-15918,229,168,387,637
2,412,78815,-4145,-15926,165,169,410,642
2,413,78820,-4204,-15951,369,168,429,649
2,414,78825,-4326,-15899,626,168,432,655
2,415,78830,-4395,-15936,740,168,413,663
2,416,78835,-4570,-15915,724,170,378,672
2,417,78840,-4537,-15884,772,174,325,681
2,418,78845,-4482,-15811,1160,174,247,687
2,419,78850,-4498,-15886,1375,175,143,696
2,420,78855,-4657,-16058,1114,179,41,703
2,421,78860,-4712,-16150,690,184,-34,708
2,422,78865,-4665,-16106,465,185,-72,710
2,423,78870,-4606,-16013,641,184,-105,713
2,424,78875,-4711,-15983,686,186,-146,715
2,425,78880,-4897,-16003,405,193,-177,717
2,426,78885,-4972,-16061,57,196,-172,715
2,427,78890,-4771,-16110,-95,198,-135,715
2,428,78895,-4701,-16154,106,197,-91,712
2,429,78900,-4728,-16168,240,202,-66,705
2,430,78905,-4835,-16150,68,206,-47,699
2,431,78910,-4893,-16115,-145,208,-11,698
2,432,78915,-4756,-16005,-68,208,40,697
2,433,78920,-4733,-15860,321,206,87,693
2,434,78925,-4755,-15866,778,206,113,686
2,435,78930,-4812,-15865,749,208,107,682
2,436,78935,-4808,-15861,490,215,111,679
2,437,78940,-4113,-15616,857,211,138,674
2,438,78945,-4822,-15257,1142,206,165,667
2,439,78950,-5736,-16709,371,232,91,680
2,440,78955,-5817,-16051,497,218,23,668
2,441,78960,-4199,-15588,1242,202,-66,685
2,442,78965,-4807,-15457,2028,216,-83,659
2,443,78970,-5516,-15803,1214,225,-113,647
2,444,78975,-6143,-15672,55,222,-145,655
2,445,78980,-5457,-15751,-83,224,-146,652
2,446,78985,-4886,-15693,482,217,-152,641
2,447,78990,-4583,-15804,1016,223,-159,634
2,448,78995,-5198,-15716,624,231,-145,619
2,449,79000,-5650,-15607,-181,234,-93,608
2,450,79005,-5717,-15444,-325,229,-9,601
2,451,79010,-5180,-15364,134,221,61,596
2,452,79015,-4760,-15316,1028,219,106,585
2,453,79020,-4708,-15365,975,232,101,577
2,454,79025,-5013,-15419,471,229,119,566
2,455,79030,-5314,-15371,64,226,165,559
2,456,79035,-5338,-15384,333,219,215,552
2,457,79040,-5269,-15340,770,215,248,542
2,458,79045,-5353,-15242,941,218,269,534
2,459,79050,-5701,-15187,598,221,282,525
2,460,79055,-6042,-15227,780,217,300,520
2,461,79060,-5547,-15380,1188,211,266,518
2,462,79065,-4949,-15433,1632,209,183,512
2,463,79070,-4832,-15593,1642,212,79,506
2,464,79075,-5421,-15749,1112,215,2,496
2,465,79080,-6011,-15834,347,216,-28,491
2,466,79085,-6096,-15988,-96,211,-17,492
2,467,79090,-5347,-16056,322,212,66,464
2,468,79095,-5576,-15997,555,211,89,450
2,469,79100,-6043,-15919,403,216,105,436
2,470,79105,-6256,-15871,167,212,131,429
2,471,79110,-5935,-15749,271,203,178,421
2,472,79115,-5596,-15675,787,201,227,408
2,473,79120,-5586,-15645,1066,198,249,394
2,474,79125,-5983,-15604,888,199,254,380
2,475,79130,-6269,-15514,477,197,270,369
2,476,79135,-6315,-15471,375,188,308,356
2,477,79140,-6371,-15394,744,180,359,342
2,478,79145,-6272,-15445,1065,176,385,329
2,479,79150,-6381,-15439,1191,180,375,310
2,480,79155,-6460,-15472,1007,173,360,297
2,481,79160,-6736,-15423,1061,164,350,280
2,482,79165,-6900,-15380,1352,157,324,265
2,483,79170,-6986,-15319,1441,151,273,249
2,484,79175,-6956,-15293,1554,148,217,235
2,485,79180,-6932,-15402,1608,142,157,219
2,486,79185,-6929,-15461,1722,139,94,197
2,487,79190,-6881,-15618,1700,134,16,184
2,488,79195,-6857,-15646,1516,129,-76,165
2,489,79200,-6851,-15644,1375,125,-158,148
2,490,79205,-6805,-15633,1408,120,-232,132
2,491,79210,-6787,-15593,1276,114,-302,114
2,492,79215,-6671,-15598,969,111,-359,96
2,493,79220,-6578,-15610,751,107,-381,77
2,494,79225,-6565,-15692,694,98,-387,55
2,495,79230,-6534,-15645,743,92,-382,32
2,496,79235,-6438,-15711,689,87,-371,12
2,497,79240,-6367,-15738,659,81,-353,-12
2,498,79245,-6312,-15756,709,75,-331,-35
2,499,79250,-6252,-15780,754,64,-316,-61
2,500,79255,-6200,-15803,782,59,-310,-81
2,501,79260,-6158,-15784,913,54,-305,-99
2,502,79265,-6128,-15797,978,46,-303,-126
2,503,79270,-6171,-15794,1034,40,-310,-149
2,504,79275,-6119,-15816,1117,29,-323,-165
2,505,79280,-6104,-15762,1108,19,-343,-190
2,506,79285,-6148,-15790,1154,18,-371,-211
2,507,79290,-6139,-15780,1208,10,-413,-232
2,508,79295,-5998,-15680,1131,0,-467,-251
2,509,79300,-5829,-15599,978,-7,-504,-270
2,510,79305,-5768,-15589,934,-16,-523,-293
2,511,79310,-5805,-15539,880,-25,-524,-315
2,512,79315,-5761,-15564,595,-34,-517,-339
2,513,79320,-5693,-15523,243,-40,-482,-364
2,514,79325,-5547,-15497,176,-50,-428,-391
2,515,79330,-5393,-15479,382,-64,-375,-415
2,516,79335,-5205,-15490,621,-71,-338,-440
2,517,79340,-5081,-15558,665,-77,-300,-463
2,518,79345,-5107,-15530,682,-85,-253,-490
2,519,79350,-5171,-15434,761,-98,-213,-513
2,520,79355,-5125,-15407,933,-107,-189,-533
2,521,79360,-4939,-15414,1038,-116,-184,-554
2,522,79365,-4844,-15402,1123,-125,-188,-575
2,523,79370,-4923,-15427,1139,-131,-192,-596
2,524,79375,-5058,-15529,965,-139,-203,-617
2,525,79380,-5149,-15530,792,-150,-218,-636
2,526,79385,-5098,-15507,812,-161,-221,-659
2,527,79390,-4991,-15488,913,-167,-227,-676
2,528,79395,-4949,-15524,1088,-175,-236,-698
2,529,79400,-4783,-15559,1002,-182,-258,-718
2,530,79405,-4562,-15537,823,-190,-275,-738
2,531,79410,-4494,-15487,784,-200,-275,-758
2,532,79415,-4518,-15507,825,-207,-275,-775
2,533,79420,-4525,-15570,736,-212,-275,-792
2,534,79425,-4433,-15670,461,-220,-267,-811
2,535,79430,-4258,-15685,364,-230,-234,-831
2,536,79435,-4182,-15683,523,-240,-189,-853
2,537,79440,-4288,-15664,732,-247,-154,-874
2,538,79445,-4263,-15665,669,-252,-141,-891
2,539,79450,-4069,-15700,510,-258,-118,-903
2,540,79455,-3878,-15748,704,-272,-59,-937
2,541,79460,-3977,-15814,811,-277,-58,-953
2,542,79465,-3962,-15813,671,-280,-63,-966
2,543,79470,-3949,-15827,528,-285,-54,-977
2,544,79475,-3973,-15903,550,-290,-38,-990
2,545,79480,-3930,-15969,798,-295,-53,-1004
2,546,79485,-3630,-16114,966,-298,-94,-1010
2,547,79490,-3528,-16151,1110,-302,-146,-1021
2,548,79495,-3673,-16154,1082,-306,-192,-1034
2,549,79500,-3818,-16181,959,-311,-241,-1042
2,550,79505,-3687,-16251,700,-318,-282,-1047
2,551,79510,-3220,-16304,626,-319,-307,-1058
2,552,79515,-2996,-16433,711,-324,-318,-1067
2,553,79520,-3110,-16436,620,-327,-317,-1079
2,554,79525,-3418,-16473,195,-330,-301,-1086
2,555,79530,-3516,-16419,-376,-337,-247,-1097
2,556,79535,-3272,-16440,-344,-343,-152,-1106
2,557,79540,-2802,-16528,-94,-347,-80,-1119
2,558,79545,-2606,-16479,395,-351,-44,-1131
2,559,79550,-2658,-16515,383,-348,-51,-1136
2,560,79555,-2768,-16485,230,-350,-29,-1140
2,561,79560,-2786,-16468,208,-356,16,-1146
2,562,79565,-2604,-16404,325,-354,61,-1156
2,563,79570,-2318,-16374,439,-358,75,-1159
2,564,79575,-2246,-16374,494,-356,63,-1163
2,565,79580,-2370,-16421,481,-357,57,-1168
2,566,79585,-2410,-16410,456,-358,69,-1171
2,567,79590,-2338,-16412,432,-360,100,-1177
2,568,79595,-2185,-16392,416,-363,119,-1182
2,569,79600,-2160,-16409,491,-362,124,-1190
2,570,79605,-2197,-16429,435,-359,110,-1191
2,571,79610,-2095,-16432,348,-360,92,-1194
2,572,79615,-2160,-16420,514,-361,81,-1196
2,573,79620,-2208,-16382,554,-363,68,-1197
2,574,79625,-2210,-16352,558,-362,56,-1199
2,575,79630,-2035,-16318,479,-360,40,-1205
2,576,79635,-1809,-16312,606,-362,27,-1204
2,577,79640,-1659,-16281,724,-361,-1,-1208
2,578,79645,-1703,-16264,749,-360,-44,-1207
2,579,79650,-1514,-16349,322,-357,-81,-1206
2,580,79655,-1474,-16245,197,-363,-61,-1209
2,581,79660,-1164,-16308,104,-362,-38,-1207
2,582,79665,-1141,-16342,136,-365,-13,-1209
2,583,79670,-888,-16316,-186,-362,-14,-1206
2,584,79675,-855,-16352,-230,-362,18,-1208
2,585,79680,-787,-16342,-346,-360,61,-1208
2,586,79685,-738,-16295,-261,-359,111,-1209
2,587,79690,-581,-16331,-368,-356,147,-1201
2,588,79695,-288,-16371,-428,-349,181,-1196
2,589,79700,43,-16376,-353,-344,211,-1192
2,590,79705,85,-16377,-120,-344,244,-1192
2,591,79710,-27,-16389,-44,-340,258,-1183
2,592,79715,-102,-16412,-203,-333,274,-1175
2,593,79720,24,-16405,-262,-332,304,-1168
2,594,79725,272,-16395,-54,-331,332,-1161
2,595,79730,425,-16411,240,-325,333,-1151
2,596,79735,361,-16364,308,-320,309,-1144
2,597,79740,202,-16359,131,-314,273,-1135
2,598,79745,-882,-15241,-168,-315,256,-1123
2,599,79750,-5470,-23591,-8434,-202,422,-1100
2,600,79755,-23352,-23861,-32768,-9,1354,-1336
2,601,79760,-32768,-5294,-12445,-473,9606,-1075
2,602,79765,-16723,-12956,30288,180,22402,-600
2,603,79770,22254,-14437,32767,352,17725,-713
2,604,79775,31835,-19758,16233,877,3268,-929
2,605,79780,-20293,-13799,7236,691,-507,-515
2,606,79785,-32768,-13726,7442,356,-6903,976
2,607,79790,-19009,-6033,13583,301,-11473,1538
2,608,79795,27966,-16425,2160,187,-9640,1378
2,609,79800,32657,-25406,-23559,428,-4258,377
2,610,79805,-19415,-19370,-20296,247,-221,-432
2,611,79810,-32768,-14844,-1001,221,-1187,-51
2,612,79815,-21421,-8866,5565,320,-4127,659
2,613,79820,26067,-21951,-11296,413,-1113,206
2,614,79825,-5414,-21932,1457,212,2244,-451
2,615,79830,-26104,-15364,1280,162,942,-200
2,616,79835,-11585,-15040,-11819,307,-1400,474
2,617,79840,11917,-16404,-13854,321,-1074,526
2,618,79845,17996,-19472,-825,288,1509,79
2,619,79850,1011,-18805,13308,227,3242,-359
2,620,79855,-11476,-16101,9239,315,1999,-159
2,621,79860,-6173,-16209,-7385,366,-145,346
2,622,79865,5626,-16309,-8284,264,-406,395
2,623,79870,9584,-17298,4755,166,474,160
2,624,79875,2669,-17114,13336,209,760,-1
2,625,79880,-3949,-17177,3229,331,10,118
2,626,79885,-4618,-16635,-8407,349,-425,263
2,627,79890,506,-16381,-7396,248,-168,266
2,628,79895,3464,-16279,3832,155,204,157
2,629,79900,2777,-16821,7943,190,-19,111
2,630,79905,-270,-17268,1138,270,-390,151
2,631,79910,-2126,-17187,-6506,270,-295,176
2,632,79915,-2084,-16471,-3952,190,131,160
2,633,79920,415,-16200,3278,160,170,139
2,634,79925,1398,-16771,5341,178,-220,140
2,635,79930,1515,-16676,1136,219,-511,108
2,636,79935,-924,-16784,-1971,206,-349,128
2,637,79940,-1958,-16943,-961,160,-203,132
2,638,79945,-481,-15764,2235,129,-315,99
2,639,79950,1446,-16533,2147,149,-590,155
2,640,79955,1904,-17122,-34,163,-629,127
2,641,79960,372,-16858,-1342,147,-406,63
2,642,79965,-1250,-16605,-664,116,-259,66
2,643,79970,-586,-16517,246,95,-303,89
2,644,79975,1155,-16483,253,95,-343,88
2,645,79980,2158,-16848,-377,102,-249,72
2,646,79985,1271,-16999,-416,88,-69,44
2,647,79990,87,-16666,-315,72,9,24
2,648,79995,-35,-16461,-198,57,-16,42
2,649,80000,1051,-16574,-458,49,-25,52
2,650,80005,1679,-16705,-230,42,87,34
2,651,80010,1253,-16916,-215,32,209,16
2,652,80015,329,-16591,-145,20,287,-7
2,653,80020,-64,-16489,-297,17,279,11
2,654,80025,292,-16554,-18,8,266,20
2,655,80030,747,-16348,459,-2,280,2
2,656,80035,733,-16418,924,-13,289,-3
2,657,80040,350,-16380,917,-19,249,-6
2,658,80045,-56,-16241,739,-26,168,-7
2,659,80050,7,-16184,687,-31,78,1
2,660,80055,321,-16113,725,-40,13,3
2,661,80060,499,-16119,741,-49,-33,-3
2,662,80065,357,-16146,473,-57,-57,-9
2,663,80070,98,-16107,220,-64,-64,-12
2,664,80075,98,-16049,-9,-70,-62,-16
2,665,80080,218,-16053,-130,-77,-43,-18
2,666,80085,256,-16077,-158,-86,5,-21
2,667,80090,274,-16111,-100,-96,65,-31
2,668,80095,239,-16104,-34,-103,120,-40
2,669,80100,227,-16111,-75,-110,147,-42
2,670,80105,260,-16083,177,-115,169,-42
2,671,80110,390,-16092,398,-119,180,-41
2,672,80115,437,-16091,638,-124,187,-40
2,673,80120,424,-16107,678,-128,170,-39
2,674,80125,285,-16097,561,-136,140,-38
2,675,80130,142,-16132,359,-137,112,-34
2,676,80135,106,-16151,266,-141,101,-33
2,677,80140,216,-16126,234,-148,108,-34
2,678,80145,265,-16102,257,-152,116,-35
2,679,80150,253,-16114,213,-155,124,-40
2,680,80155,24,-16123,128,-159,132,-40
2,681,80160,-87,-16154,78,-160,130,-38
2,682,80165,-11,-16151,54,-162,134,-39
2,683,80170,175,-16159,199,-165,140,-39
2,684,80175,295,-16163,376,-168,142,-36
2,685,80180,146,-16182,505,-169,122,-39
2,686,80185,-64,-16156,303,-169,62,-34
2,687,80190,136,-16131,393,-173,50,-35
2,688,80195,261,-16073,574,-175,39,-34
2,689,80200,216,-16072,560,-174,14,-30
2,690,80205,136,-16074,440,-172,-15,-29
2,691,80210,208,-16079,262,-173,-28,-27
2,692,80215,268,-16142,162,-179,-13,-23
2,693,80220,226,-16180,175,-179,9,-26
2,694,80225,110,-16249,228,-179,24,-27
2,695,80230,66,-16322,85,-175,27,-25
2,696,80235,134,-16406,50,-174,44,-25
2,697,80240,205,-16427,165,-179,64,-26
2,698,80245,177,-16407,282,-176,73,-29
2,699,80250,166,-16384,300,-174,63,-26
2,700,80255,181,-16358,216,-174,47,-23
2,701,80260,189,-16327,207,-171,45,-24
2,702,80265,223,-16330,234,-170,44,-21
2,703,80270,226,-16386,263,-168,38,-21
2,704,80275,189,-16424,184,-164,28,-21
2,705,80280,120,-16382,141,-164,18,-21
2,706,80285,115,-16324,216,-162,8,-21
2,707,80290,153,-16281,212,-158,-7,-16
2,708,80295,260,-16260,291,-158,-19,-14
2,709,80300,315,-16266,385,-154,-38,-11
2,710,80305,278,-16208,308,-151,-51,-12
2,711,80310,205,-16239,155,-150,-60,-12
2,712,80315,215,-16192,4,-147,-58,-6
2,713,80320,270,-16225,40,-146,-46,-8
2,714,80325,349,-16287,53,-143,-33,-9
2,715,80330,358,-16346,-39,-139,-17,-7
2,716,80335,318,-16435,-185,-136,4,-9
2,717,80340,288,-16431,-178,-133,35,-11
2,718,80345,344,-16397,-53,-132,61,-9
2,719,80350,419,-16426,70,-128,72,-7
2,720,80355,486,-16446,109,-125,76,-3
2,721,80360,441,-16445,95,-121,78,-2
2,722,80365,328,-16489,71,-118,85,1
2,723,80370,238,-16518,79,-114,87,3
2,724,80375,173,-16540,50,-113,84,5
2,725,80380,159,-16512,127,-108,76,8
2,726,80385,233,-16506,172,-104,64,9
2,727,80390,260,-16514,243,-101,44,9
2,728,80395,183,-16541,172,-97,23,13
2,729,80400,139,-16522,163,-92,9,16
2,730,80405,157,-16527,89,-91,3,19
2,731,80410,145,-16507,87,-84,3,19
2,732,80415,156,-16485,97,-82,4,22
2,733,80420,118,-16436,69,-81,2,21
2,734,80425,42,-16477,41,-77,-1,22
2,735,80430,54,-16442,6,-74,-2,23
2,736,80435,143,-16469,-45,-69,6,23
2,737,80440,216,-16464,-92,-67,15,24
2,738,80445,202,-16468,-80,-62,23,26
2,739,80450,215,-16512,-87,-60,30,28
2,740,80455,142,-16597,-106,-54,38,32
2,741,80460,100,-16610,-115,-52,48,32
2,742,80465,121,-16550,-67,-51,60,31
2,743,80470,197,-16540,-28,-45,68,30
2,744,80475,210,-16534,-14,-40,68,36
2,745,80480,208,-16515,1,-40,58,37
2,746,80485,183,-16561,-49,-38,47,38
2,747,80490,160,-16554,-13,-32,42,40
2,748,80495,109,-16529,33,-29,49,41
2,749,80500,89,-16491,66,-24,53,44
2,750,80505,113,-16459,36,-22,49,48
2,751,80510,145,-16393,81,-20,42,48
2,752,80515,158,-16400,87,-16,25,50
2,753,80520,101,-16437,124,-13,7,55
2,754,80525,95,-16456,-10,-9,-8,58
2,755,80530,78,-16516,-132,-7,-10,57
2,756,80535,44,-16600,-57,-3,0,57
2,757,80540,16,-16609,-43,-3,2,60
2,758,80545,82,-16553,-81,1,2,61
2,759,80550,69,-16541,-14,6,-2,65
2,760,80555,25,-16572,-2,9,-1,65
2,761,80560,18,-16591,-29,9,-1,67
2,762,80565,36,-16640,-139,12,10,67
2,763,80570,4,-16674,-131,15,19,69
2,764,80575,30,-16644,-40,17,21,74
2,765,80580,73,-16623,75,17,16,73
2,766,80585,59,-16625,48,21,-3,73
2,767,80590,94,-16628,-16,24,-17,77
2,768,80595,109,-16643,-105,27,-21,76
2,769,80600,88,-16677,-61,24,-24,78
2,770,80605,1,-16688,-106,29,-23,80
2,771,80610,13,-16696,-181,32,-21,81
2,772,80615,82,-16646,-216,32,-12,84
2,773,80620,79,-16603,-84,32,-1,81
2,774,80625,-7,-16586,-7,33,3,80
2,775,80630,-51,-16634,-1,36,0,83
2,776,80635,-53,-16629,-78,39,-5,87
2,777,80640,-4,-16662,-97,37,1,84
2,778,80645,12,-16634,5,39,4,84
2,779,80650,-21,-16604,100,44,-3,85
2,780,80655,-17,-16579,58,43,-20,88
2,781,80660,-8,-16534,-18,42,-28,88
2,782,80665,-10,-16537,-31,43,-27,90
2,783,80670,14,-16526,-37,45,-22,93
2,784,80675,45,-16508,-33,44,-22,91
2,785,80680,51,-16521,-61,45,-23,87
2,786,80685,22,-16544,-181,46,-27,89
2,787,80690,54,-16581,-203,47,-26,92
2,788,80695,41,-16576,-164,46,-18,89
2,789,80700,70,-16555,-143,47,-13,91
2,790,80705,90,-16529,-95,49,-7,91
2,791,80710,108,-16516,-54,50,-9,92
2,792,80715,130,-16534,-58,48,-10,92
2,793,80720,108,-16570,-90,49,-9,92
2,794,80725,17,-16595,-138,47,-6,94
2,795,80730,-12,-16586,-140,50,-1,94
2,796,80735,3,-16532,-74,51,6,96
2,797,80740,35,-16492,-53,50,11,97
2,798,80745,69,-16528,-45,51,13,96
2,799,80750,11,-16534,-119,49,16,95
2,800,80755,-94,-16497,-132,49,14,97
2,801,80760,-126,-16556,-125,50,11,97
2,802,80765,-84,-16539,-128,49,12,97
2,803,80770,-63,-16513,-75,46,16,96
2,804,80775,-103,-16511,-96,48,17,92
2,805,80780,-260,-16533,-176,47,14,91
2,806,80785,-304,-16512,-188,45,8,93
2,807,80790,-215,-16463,-133,45,5,94
2,808,80795,-229,-16423,-13,44,5,91
2,809,80800,-196,-16495,-50,45,6,91
2,810,80805,-247,-16506,-70,42,7,91
2,811,80810,-345,-16527,-122,45,9,88
2,812,80815,-306,-16494,-104,40,4,88
2,813,80820,-235,-16416,-37,41,-11,85
2,814,80825,-190,-16476,-3,42,-23,84
2,815,80830,-252,-16512,-86,41,-33,84
2,816,80835,-285,-16507,-138,39,-36,82
2,817,80840,-351,-16512,-178,40,-36,79
2,818,80845,-285,-16483,-132,41,-39,80
2,819,80850,-183,-16503,-203,38,-45,79
2,820,80855,-165,-16505,-236,38,-44,78
2,821,80860,-203,-16535,-237,38,-42,74
2,822,80865,-308,-16477,-216,36,-35,77
2,823,80870,-228,-16439,-234,36,-24,74
2,824,80875,-193,-16416,-223,35,-13,74
2,825,80880,-121,-16440,-181,34,-4,71
2,826,80885,-190,-16425,-146,32,-1,71
2,827,80890,-225,-16439,-104,30,-3,69
2,828,80895,-245,-16430,-158,30,-2,68
2,829,80900,-278,-16423,-112,28,4,68
2,830,80905,-334,-16428,-118,28,12,68
2,831,80910,-334,-16444,-85,30,13,64
2,832,80915,-302,-16454,-64,25,7,65
2,833,80920,-300,-16432,-3,24,0,60
2,834,80925,-355,-16399,-30,22,-10,60
2,835,80930,-324,-16377,-150,25,-20,61
2,836,80935,-307,-16324,-216,24,-21,59
2,837,80940,-310,-16337,-89,20,-17,60
2,838,80945,-319,-16362,-38,19,-20,58
2,839,80950,-315,-16399,-86,21,-19,57
2,840,80955,-295,-16446,-176,18,-5,55
2,841,80960,-288,-16474,-143,16,14,50
2,842,80965,-304,-16400,-8,14,19,52
2,843,80970,-325,-16418,27,15,12,49
2,844,80975,-299,-16480,-5,13,5,50
2,845,80980,-219,-16446,-99,15,13,52
2,846,80985,-254,-16454,-114,11,25,52
2,847,80990,-280,-16466,-76,8,30,49
2,848,80995,-364,-16490,-90,9,29,45
2,849,81000,-429,-16470,-181,10,24,47
2,850,81005,-372,-16481,-223,9,23,50
2,851,81010,-314,-16470,-257,8,30,44
2,852,81015,-340,-16437,-105,5,32,41
2,853,81020,-414,-16459,32,6,19,41
2,854,81025,-426,-16411,19,9,1,43
2,855,81030,-372,-16467,-37,9,-3,41
2,856,81035,-371,-16504,-57,7,5,41
2,857,81040,-441,-16443,-52,2,12,40
2,858,81045,-477,-16447,-33,4,14,38
2,859,81050,-493,-16434,-23,2,9,37
2,860,81055,-463,-16446,-61,-2,7,37
2,861,81060,-399,-16441,-83,-1,10,37
2,862,81065,-382,-16446,-33,0,18,34
2,863,81070,-367,-16412,-21,-3,21,31
2,864,81075,-411,-16448,-70,-2,18,31
2,865,81080,-466,-16476,-151,-3,18,29
2,866,81085,-419,-16448,-179,-3,23,29
2,867,81090,-354,-16442,-144,-2,29,27
2,868,81095,-327,-16459,-154,-4,36,24
2,869,81100,-356,-16442,-145,-4,40,23
2,870,81105,-380,-16440,-178,-5,41,23
2,871,81110,-392,-16471,-136,-5,44,23
2,872,81115,-389,-16526,-28,-6,45,22
2,873,81120,-444,-16579,-10,-7,50,21
2,874,81125,-463,-16557,-100,-9,55,19
2,875,81130,-495,-16581,-52,-8,58,19
2,876,81135,-608,-16561,-18,-6,56,19
2,877,81140,-628,-16546,54,-9,42,19
2,878,81145,-532,-16466,56,-4,27,17
2,879,81150,-560,-16458,56,-6,15,16
2,880,81155,-566,-16389,38,-8,5,15
2,881,81160,-582,-16446,8,-11,-4,14
2,882,81165,-637,-16443,-86,-11,-11,11
2,883,81170,-633,-16430,-116,-10,-11,8
2,884,81175,-545,-16448,-117,-12,-5,8
2,885,81180,-572,-16455,-35,-10,1,5
2,886,81185,-530,-16416,19,-12,6,1
2,887,81190,-512,-16398,-13,-13,4,-1
2,888,81195,-532,-16410,-37,-12,3,-1
2,889,81200,-481,-16408,-98,-13,2,-2
2,890,81205,-468,-16473,-58,-13,2,1
2,891,81210,-432,-16495,-36,-13,1,-1
2,892,81215,-438,-16486,-96,-15,0,0
2,893,81220,-419,-16506,-156,-14,-2,0
2,894,81225,-489,-16488,-126,-13,3,-5
2,895,81230,-513,-16435,-137,-12,0,-7
2,896,81235,-437,-16383,-73,-13,-7,-9
2,897,81240,-462,-16337,-2,-15,-15,-7
2,898,81245,-486,-16357,14,-13,-21,-7
2,899,81250,-434,-16342,13,-13,-23,-6
2,900,81255,-427,-16330,37,-15,-27,-6
2,901,81260,-432,-16301,-14,-16,-25,-7
2,902,81265,-387,-16255,28,-15,-29,-9
2,903,81270,-407,-16241,-30,-17,-31,-9
2,904,81275,-402,-16224,-49,-15,-31,-8
2,905,81280,-403,-16331,-153,-16,-9,-11
2,906,81285,-463,-16396,-191,-17,7,-11
2,907,81290,-487,-16407,-164,-17,16,-13
2,908,81295,-474,-16408,-118,-16,25,-11
2,909,81300,-441,-16360,-26,-17,29,-13
2,910,81305,-417,-16366,-22,-17,31,-15
2,911,81310,-446,-16396,-34,-17,28,-16
2,912,81315,-475,-16448,-51,-17,22,-15
2,913,81320,-448,-16514,-104,-17,16,-16
2,914,81325,-469,-16549,-94,-16,9,-14
2,915,81330,-424,-16488,-7,-17,4,-16
2,916,81335,-423,-16444,16,-14,-8,-15
2,917,81340,-404,-16423,14,-14,-19,-11
2,918,81345,-389,-16425,-21,-16,-25,-12
2,919,81350,-419,-16379,-84,-16,-29,-14
2,920,81355,-409,-16399,-116,-15,-30,-13
2,921,81360,-446,-16428,-177,-15,-31,-12
2,922,81365,-453,-16438,-260,-15,-24,-14
2,923,81370,-448,-16424,-260,-16,-9,-16
2,924,81375,-474,-16390,-163,-13,5,-17
2,925,81380,-499,-16395,-104,-15,15,-16
2,926,81385,-452,-16387,-35,-15,20,-16
2,927,81390,-450,-16386,4,-12,23,-16
2,928,81395,-424,-16421,25,-16,24,-17
2,929,81400,-416,-16479,12,-15,16,-17
2,930,81405,-403,-16469,-11,-14,9,-14
2,931,81410,-366,-16425,-21,-14,3,-15
2,932,81415,-322,-16385,-31,-15,-2,-16
2,933,81420,-342,-16342,-24,-15,-7,-15
2,934,81425,-369,-16359,-36,-17,-15,-14
2,935,81430,-377,-16348,-102,-15,-21,-14
2,936,81435,-379,-16389,-194,-14,-14,-15
2,937,81440,-383,-16454,-207,-14,-3,-15
2,938,81445,-369,-16400,-171,-12,3,-15
2,939,81450,-383,-16372,-74,-14,4,-15
2,940,81455,-359,-16356,-9,-13,6,-12
2,941,81460,-366,-16345,-24,-11,3,-13
2,942,81465,-379,-16369,-101,-12,0,-12
2,943,81470,-443,-16441,-159,-12,8,-11
2,944,81475,-486,-16475,-263,-12,17,-13
2,945,81480,-474,-16556,-279,-10,25,-14
2,946,81485,-507,-16568,-286,-13,38,-13
2,947,81490,-498,-16572,-192,-13,49,-16
2,948,81495,-530,-16550,-91,-12,55,-18
2,949,81500,-529,-16536,-93,-12,48,-17
2,950,81505,-508,-16563,-152,-10,42,-18
2,951,81510,-497,-16569,-133,-10,39,-17
2,952,81515,-554,-16620,-84,-10,35,-17
2,953,81520,-582,-16607,-64,-8,28,-19
2,954,81525,-526,-16577,-76,-6,16,-16
2,955,81530,-509,-16551,-134,-6,11,-15
2,956,81535,-544,-16547,-39,-5,3,-16
2,957,81540,-556,-16490,31,-7,-8,-16
2,958,81545,-525,-16482,3,-5,-19,-14
2,959,81550,-492,-16534,2,-3,-23,-15
2,960,81555,-500,-16499,-39,-6,-24,-16
2,961,81560,-494,-16449,-152,-6,-23,-20
2,962,81565,-466,-16484,-254,-7,-24,-18
2,963,81570,-470,-16543,-272,-7,-18,-19
2,964,81575,-482,-16542,-261,-7,-8,-17
2,965,81580,-535,-16537,-229,-6,6,-19
2,966,81585,-520,-16533,-208,-6,23,-20
2,967,81590,-488,-16507,-121,-7,33,-18
2,968,81595,-488,-16506,-68,-8,33,-21
2,969,81600,-532,-16507,-73,-5,24,-21
2,970,81605,-600,-16519,-100,-6,18,-21
2,971,81610,-540,-16568,-47,-5,13,-22
2,972,81615,-487,-16600,22,-4,11,-21
2,973,81620,-426,-16611,64,-5,5,-22
2,974,81625,-429,-16591,43,-7,-7,-20
2,975,81630,-480,-16580,-3,-7,-14,-22
2,976,81635,-490,-16559,-111,-6,-16,-23
2,977,81640,-501,-16518,-167,-6,-13,-21
2,978,81645,-482,-16548,-107,-5,-6,-20
2,979,81650,-477,-16617,-245,-3,-1,-22
2,980,81655,-537,-16595,-331,-3,4,-22
2,981,81660,-503,-16641,-254,-3,6,-20
2,982,81665,-530,-16675,-101,-1,9,-23
2,983,81670,-511,-16658,-164,-1,1,-23
2,984,81675,-503,-16624,-157,-1,-4,-25
2,985,81680,-515,-16574,-216,0,-7,-24
2,986,81685,-544,-16588,-223,-1,-6,-24
2,987,81690,-541,-16548,-167,3,-3,-24
2,988,81695,-498,-16501,-124,3,0,-22
2,989,81700,-457,-16511,-59,1,6,-26
2,990,81705,-407,-16540,-37,0,13,-25
2,991,81710,-367,-16495,-22,2,13,-21
2,992,81715,-331,-16505,-7,1,10,-23
2,993,81720,-348,-16478,-22,1,2,-21
2,994,81725,-370,-16426,-76,4,-5,-20
2,995,81730,-382,-16408,-151,2,-10,-16
2,996,81735,-361,-16418,-168,0,-6,-19
2,997,81740,-496,-16463,-213,4,-6,-15
2,998,81745,-529,-16493,-244,5,-5,-15
2,999,81750,-494,-16452,-223,2,-5,-18
3,0,84605,-468,-16516,-310,-15,6,-13
3,1,84610,-469,-16492,-401,-15,0,-10
3,2,84615,-470,-16438,-390,-15,-1,-9
3,3,84620,-519,-16407,-368,-17,-5,-7
3,4,84625,-486,-16394,-387,-17,-13,-10
3,5,84630,-489,-16396,-401,-13,-18,-7
3,6,84635,-484,-16393,-449,-12,-15,-6
3,7,84640,-499,-16349,-416,-16,-6,-10
3,8,84645,-517,-16353,-338,-15,-1,-9
3,9,84650,-487,-16339,-264,-15,6,-8
3,10,84655,-433,-16321,-267,-18,7,-7
3,11,84660,-405,-16298,-247,-19,7,-8
3,12,84665,-386,-16306,-274,-16,4,-9
3,13,84670,-430,-16356,-161,-14,-2,-6
3,14,84675,-434,-16331,-307,-15,-11,-4
3,15,84680,-395,-16344,-374,-17,-12,1
3,16,84685,-318,-16324,-447,-17,-10,-2
3,17,84690,-338,-16307,-422,-17,-6,-2
3,18,84695,-385,-16344,-466,-16,-8,-1
3,19,84700,-366,-16371,-521,-14,-4,1
3,20,84705,-354,-16381,-542,-15,2,2
3,21,84710,-363,-16399,-552,-17,13,0
3,22,84715,-426,-16418,-479,-12,22,1
3,23,84720,-438,-16434,-479,-12,23,-1
3,24,84725,-414,-16466,-422,-11,22,2
3,25,84730,-432,-16420,-357,-8,19,5
3,26,84735,-451,-16376,-299,-8,14,5
3,27,84740,-470,-16383,-236,-9,6,6
3,28,84745,-501,-16415,-357,-11,2,3
3,29,84750,-546,-16431,-432,-8,-2,8
3,30,84755,-593,-16433,-489,-6,-1,10
3,31,84760,-545,-16450,-478,-9,2,7
3,32,84765,-576,-16404,-475,-10,2,6
3,33,84770,-662,-16398,-447,-8,3,4
3,34,84775,-620,-16412,-412,-6,3,6
3,35,84780,-575,-16393,-353,-6,3,4
3,36,84785,-597,-16394,-365,-7,-2,7
3,37,84790,-596,-16390,-302,-6,-12,7
3,38,84795,-585,-16374,-277,-5,-20,7
3,39,84800,-555,-16360,-351,-5,-22,5
3,40,84805,-508,-16373,-390,-3,-22,5
3,41,84810,-467,-16375,-393,-4,-19,7
3,42,84815,-479,-16371,-397,-5,-20,6
3,43,84820,-453,-16382,-392,-5,-17,6
3,44,84825,-471,-16411,-417,-5,-11,7
3,45,84830,-511,-16450,-429,-5,-3,3
3,46,84835,-499,-16449,-453,-5,1,6
3,47,84840,-503,-16401,-400,-2,2,10
3,48,84845,-512,-16482,-363,-2,-1,8
3,49,84850,-565,-16537,-430,-3,-3,6
3,50,84855,-600,-16544,-446,-5,-5,5
3,51,84860,-602,-16524,-402,-1,-4,7
3,52,84865,-587,-16536,-387,1,-8,9
3,53,84870,-557,-16595,-359,-1,-11,7
3,54,84875,-568,-16618,-384,-2,-13,7
3,55,84880,-627,-16566,-357,1,-16,6
3,56,84885,-637,-16545,-437,3,-21,7
3,57,84890,-543,-16548,-445,-1,-19,6
3,58,84895,-518,-16540,-387,2,-22,5
3,59,84900,-503,-16510,-383,1,-25,6
3,60,84905,-443,-16524,-463,0,-24,5
3,61,84910,-434,-16510,-469,-1,-20,5
3,62,84915,-488,-16441,-406,1,-19,7
3,63,84920,-472,-16514,-416,2,-19,4
3,64,84925,-418,-16531,-459,0,-15,5
3,65,84930,-410,-16428,-401,3,0,5
3,66,84935,-484,-16446,-403,4,-1,4
3,67,84940,-470,-16515,-364,1,-7,5
3,68,84945,-449,-16518,-402,0,-6,7
3,69,84950,-448,-16505,-372,3,-4,7
3,70,84955,-472,-16504,-361,3,-2,9
3,71,84960,-470,-16546,-372,0,-5,7
3,72,84965,-502,-16534,-369,0,-8,7
3,73,84970,-518,-16549,-383,1,-15,9
3,74,84975,-514,-16567,-418,3,-20,7
3,75,84980,-520,-16531,-447,4,-18,8
3,76,84985,-550,-16500,-458,2,-14,7
3,77,84990,-555,-16519,-429,1,-11,5
3,78,84995,-532,-16538,-429,4,-15,6
3,79,85000,-533,-16521,-414,3,-12,7
3,80,85005,-490,-16485,-373,2,-10,6
3,81,85010,-557,-16453,-329,5,-9,4
3,82,85015,-555,-16434,-295,1,-12,3
3,83,85020,-508,-16409,-314,0,-19,5
3,84,85025,-452,-16402,-324,5,-23,6
3,85,85030,-440,-16386,-372,4,-21,3
3,86,85035,-466,-16466,-359,1,-19,1
3,87,85040,-480,-16420,-389,1,-20,5
3,88,85045,-459,-16437,-456,1,-18,4
3,89,85050,-420,-16429,-457,2,-14,4
3,90,85055,-447,-16463,-504,1,-7,4
3,91,85060,-483,-16501,-498,1,-1,4
3,92,85065,-533,-16496,-525,3,9,4
3,93,85070,-565,-16531,-495,4,18,4
3,94,85075,-585,-16565,-530,2,23,1
3,95,85080,-543,-16504,-463,2,23,-1
3,96,85085,-522,-16483,-350,2,16,1
3,97,85090,-534,-16463,-319,2,2,2
3,98,85095,-494,-16433,-235,7,-18,2
3,99,85100,-487,-16416,-230,8,-35,2
3,100,85105,-486,-16386,-267,5,-48,3
3,101,85110,-497,-16339,-332,4,-53,2
3,102,85115,-492,-16311,-342,5,-52,2
3,103,85120,-458,-16286,-423,5,-47,4
3,104,85125,-421,-16273,-503,5,-42,2
3,105,85130,-381,-16252,-567,6,-35,2
3,106,85135,-386,-16266,-539,6,-28,1
3,107,85140,-327,-16288,-481,4,-20,-2
3,108,85145,-382,-16327,-540,4,-12,2
3,109,85150,-355,-16339,-606,5,-1,0
3,110,85155,-360,-16392,-644,6,9,3
3,111,85160,-346,-16390,-612,8,19,-1
3,112,85165,-383,-16398,-489,7,20,0
3,113,85170,-398,-16394,-394,5,11,0
3,114,85175,-424,-16442,-397,10,-1,3
3,115,85180,-396,-16461,-385,8,-3,2
3,116,85185,-406,-16456,-333,9,-2,0
3,117,85190,-422,-16468,-293,10,-10,2
3,118,85195,-457,-16465,-290,13,-21,3
3,119,85200,-444,-16474,-334,11,-26,3
3,120,85205,-453,-16495,-443,8,-24,3
3,121,85210,-483,-16507,-447,10,-17,2
3,122,85215,-459,-16511,-422,10,-9,1
3,123,85220,-518,-16497,-453,7,-2,4
3,124,85225,-579,-16495,-494,6,7,-2
3,125,85230,-596,-16541,-542,9,21,0
3,126,85235,-562,-16555,-451,6,29,-2
3,127,85240,-585,-16547,-344,6,36,-5
3,128,85245,-580,-16506,-294,7,34,-3
3,129,85250,-574,-16538,-335,6,29,-2
3,130,85255,-617,-16599,-381,7,23,-7
3,131,85260,-633,-16593,-370,5,20,-8
3,132,85265,-628,-16597,-356,5,15,-7
3,133,85270,-614,-16648,-348,6,10,-7
3,134,85275,-660,-16661,-372,5,11,-10
3,135,85280,-668,-16678,-426,6,11,-10
3,136,85285,-700,-16704,-481,5,16,-14
3,137,85290,-684,-16721,-421,7,13,-15
3,138,85295,-684,-16721,-421,7,13,-15
3,139,85300,-662,-16608,-328,4,-4,-16
3,140,85305,-679,-16625,-363,4,-19,-17
3,141,85310,-681,-16632,-419,4,-33,-15
3,142,85315,-645,-16600,-465,3,-38,-17
3,143,85320,-642,-16565,-456,7,-39,-19
3,144,85325,-616,-16525,-427,6,-41,-17
3,145,85330,-607,-16486,-500,5,-35,-19
3,146,85335,-559,-16487,-515,5,-26,-19
3,147,85340,-468,-16476,-501,3,-17,-21
3,148,85345,-464,-16468,-389,1,-5,-25
3,149,85350,-504,-16449,-404,4,2,-25
3,150,85355,-469,-16472,-406,4,6,-21
3,151,85360,-443,-16500,-419,2,9,-22
3,152,85365,-458,-16483,-417,2,15,-22
3,153,85370,-499,-16527,-348,0,15,-21
3,154,85375,-480,-16509,-306,2,11,-23
3,155,85380,-458,-16477,-328,3,-1,-24
3,156,85385,-438,-16444,-392,2,-8,-25
3,157,85390,-381,-16477,-373,5,-16,-22
3,158,85395,-409,-16441,-325,0,-24,-20
3,159,85400,-416,-16469,-419,1,-34,-21
3,160,85405,-394,-16447,-479,2,-34,-21
3,161,85410,-363,-16443,-460,2,-28,-23
3,162,85415,-330,-16423,-429,2,-16,-22
3,163,85420,-346,-16408,-407,2,-10,-21
3,164,85425,-350,-16389,-406,-1,-4,-22
3,165,85430,-353,-16417,-468,2,2,-19
3,166,85435,-358,-16385,-440,3,10,-22
3,167,85440,-417,-16355,-378,3,17,-20
3,168,85445,-476,-16364,-337,0,21,-16
3,169,85450,-450,-16392,-371,2,22,-17
3,170,85455,-413,-16410,-404,1,22,-17
3,171,85460,-502,-16465,-393,-1,23,-17
3,172,85465,-585,-16479,-321,1,19,-17
3,173,85470,-577,-16469,-305,3,8,-15
3,174,85475,-523,-16487,-306,2,4,-16
3,175,85480,-533,-16422,-284,4,5,-15
3,176,85485,-510,-16402,-248,2,0,-16
3,177,85490,-484,-16400,-278,-1,-12,-16
3,178,85495,-497,-16390,-336,2,-25,-14
3,179,85500,-417,-16403,-379,1,-34,-17
3,180,85505,-400,-16400,-402,3,-34,-14
3,181,85510,-422,-16361,-437,2,-30,-11
3,182,85515,-419,-16339,-450,1,-24,-13
3,183,85520,-440,-16344,-455,2,-16,-15
3,184,85525,-391,-16331,-485,3,-8,-13
3,185,85530,-420,-16339,-520,4,1,-12
3,186,85535,-390,-16393,-477,3,10,-9
3,187,85540,-376,-16380,-435,2,17,-9
3,188,85545,-374,-16386,-419,2,27,-12
3,189,85550,-360,-16393,-439,4,33,-10
3,190,85555,-382,-16385,-512,4,38,-10
3,191,85560,-407,-16404,-473,4,35,-8
3,192,85565,-426,-16405,-397,5,37,-5
3,193,85570,-427,-16427,-357,4,33,-6
3,194,85575,-431,-16452,-329,3,26,-6
3,195,85580,-420,-16467,-342,6,20,-4
3,196,85585,-465,-16478,-326,5,12,-4
3,197,85590,-526,-16453,-311,5,5,-1
3,198,85595,-557,-16433,-316,5,-3,-2
3,199,85600,-579,-16489,-312,6,-9,-2
3,200,85605,-597,-16477,-349,5,-13,-2
3,201,85610,-610,-16450,-390,8,-17,1
3,202,85615,-572,-16450,-350,7,-21,1
3,203,85620,-608,-16404,-315,6,-30,-2
3,204,85625,-568,-16429,-365,5,-33,-2
3,205,85630,-489,-16434,-423,6,-30,-2
3,206,85635,-460,-16371,-437,7,-20,-2
3,207,85640,-482,-16406,-413,6,-14,-2
3,208,85645,-524,-16445,-474,4,-6,-1
3,209,85650,-465,-16426,-481,6,3,-3
3,210,85655,-516,-16439,-482,6,11,-3
3,211,85660,-493,-16408,-443,7,17,-1
3,212,85665,-479,-16440,-391,6,16,-2
3,213,85670,-478,-16450,-354,7,12,2
3,214,85675,-536,-16455,-314,7,5,1
3,215,85680,-479,-16443,-364,6,-3,2
3,216,85685,-502,-16430,-333,10,-9,3
3,217,85690,-479,-16430,-345,10,-19,2
3,218,85695,-432,-16429,-372,9,-24,4
3,219,85700,-398,-16348,-364,5,-21,3
3,220,85705,-407,-16372,-412,3,-21,3
3,221,85710,-453,-16379,-435,7,-24,4
3,222,85715,-454,-16380,-408,9,-19,8
3,223,85720,-430,-16409,-428,7,-13,10
3,224,85725,-377,-16383,-406,9,-3,7
3,225,85730,-399,-16374,-391,9,7,7
3,226,85735,-418,-16404,-387,7,6,10
3,227,85740,-455,-16399,-348,8,0,10
3,228,85745,-458,-16394,-342,6,1,11
3,229,85750,-459,-16401,-340,6,6,8
3,230,85755,-489,-16409,-362,7,9,8
3,231,85760,-505,-16438,-349,5,9,10
3,232,85765,-455,-16440,-335,7,8,13
3,233,85770,-466,-16489,-410,7,3,12
3,234,85775,-484,-16527,-376,5,5,11
3,235,85780,-503,-16489,-445,4,7,14
3,236,85785,-571,-16453,-433,5,10,15
3,237,85790,-533,-16478,-376,5,14,15
3,238,85795,-507,-16484,-392,5,14,16
3,239,85800,-550,-16498,-411,5,11,13
3,240,85805,-524,-16536,-446,4,7,12
3,241,85810,-529,-16559,-453,5,5,14
3,242,85815,-554,-16568,-358,0,0,14
3,243,85820,-555,-16575,-364,3,-9,16
3,244,85825,-556,-16545,-419,5,-12,17
3,245,85830,-523,-16496,-411,7,-15,14
3,246,85835,-572,-16485,-368,6,-21,16
3,247,85840,-584,-16461,-374,5,-25,18
3,248,85845,-564,-16470,-415,4,-26,14
3,249,85850,-544,-16453,-474,3,-19,13
3,250,85855,-580,-16448,-413,3,-16,15
3,251,85860,-553,-16436,-397,4,-14,14
3,252,85865,-561,-16411,-359,3,-10,13
3,253,85870,-567,-16422,-346,0,-6,12
3,254,85875,-532,-16384,-393,1,-1,14
3,255,85880,-476,-16383,-377,3,3,12
3,256,85885,-520,-16388,-426,-1,3,12
3,257,85890,-501,-16424,-452,-3,0,12
3,258,85895,-525,-16455,-500,0,-1,13
3,259,85900,-485,-16435,-486,1,0,14
3,260,85905,-518,-16407,-481,-4,3,14
3,261,85910,-554,-16468,-437,-2,2,13
3,262,85915,-589,-16450,-409,4,-4,14
3,263,85920,-563,-16387,-420,1,-5,15
3,264,85925,-560,-16391,-341,0,-7,13
3,265,85930,-554,-16374,-354,0,-13,12
3,266,85935,-586,-16372,-322,-2,-18,12
3,267,85940,-553,-16356,-297,0,-24,12
3,268,85945,-527,-16332,-301,-5,-26,10
3,269,85950,-487,-16347,-315,-5,-24,11
3,270,85955,-508,-16361,-324,-3,-23,12
3,271,85960,-574,-16350,-400,-3,-24,12
3,272,85965,-550,-16353,-472,-4,-16,11
3,273,85970,-499,-16374,-527,-3,-10,9
3,274,85975,-497,-16396,-430,-6,-6,10
3,275,85980,-527,-16403,-411,-3,-8,13
3,276,85985,-509,-16423,-454,-4,-5,11
3,277,85990,-567,-16420,-470,-6,-1,11
3,278,85995,-607,-16415,-430,-7,4,10
3,279,86000,-638,-16425,-345,-4,5,9
3,280,86005,-608,-16450,-263,-5,3,8
3,281,86010,-524,-16390,-240,-9,-4,7
3,282,86015,-478,-16415,-245,-7,-13,11
3,283,86020,-521,-16457,-247,-7,-23,9
3,284,86025,-516,-16480,-279,-7,-35,8
3,285,86030,-469,-16500,-330,-8,-43,10
3,286,86035,-566,-16515,-495,-10,-33,8
3,287,86040,-582,-16543,-475,-11,-23,8
3,288,86045,-532,-16566,-442,-13,-19,9
3,289,86050,-505,-16520,-446,-11,-15,6
3,290,86055,-508,-16569,-403,-10,-16,6
3,291,86060,-491,-16575,-445,-12,-16,9
3,292,86065,-542,-16525,-518,-10,-13,7
3,293,86070,-576,-16566,-476,-10,-4,5
3,294,86075,-607,-16573,-438,-12,2,7
3,295,86080,-614,-16575,-436,-8,7,8
3,296,86085,-510,-16569,-412,-8,7,2
3,297,86090,-524,-16576,-385,-10,5,3
3,298,86095,-573,-16591,-371,-9,3,4
3,299,86100,-638,-16598,-325,-10,-7,5
3,300,86105,-626,-16592,-277,-10,-17,4
3,301,86110,-545,-16589,-275,-8,-24,4
3,302,86115,-531,-16579,-273,-8,-26,5
3,303,86120,-595,-16585,-334,-7,-33,5
3,304,86125,-617,-16535,-404,-7,-42,6
3,305,86130,-549,-16470,-453,-7,-40,4
3,306,86135,-532,-16488,-457,-9,-30,5
3,307,86140,-524,-16518,-452,-7,-19,3
3,308,86145,-608,-16482,-481,-8,-11,0
3,309,86150,-622,-16513,-538,-10,-1,4
3,310,86155,-649,-16538,-512,-8,10,3
3,311,86160,-612,-16545,-387,-9,16,0
3,312,86165,-578,-16592,-295,-8,10,1
3,313,86170,-585,-16598,-278,-6,3,0
3,314,86175,-639,-16592,-396,-4,-2,2
3,315,86180,-675,-16530,-435,-3,-7,0
3,316,86185,-685,-16476,-394,-3,-14,3
3,317,86190,-635,-16553,-390,-1,-25,3
3,318,86195,-616,-16583,-404,3,-28,1
3,319,86200,-659,-16563,-470,-1,-22,2
3,320,86205,-800,-16529,-413,1,-12,0
3,321,86210,-864,-16549,-517,6,-25,1
3,322,86215,-872,-16512,-345,4,-35,3
3,323,86220,-683,-16417,-146,3,-59,9
3,324,86225,-630,-16346,135,6,-82,9
3,325,86230,-539,-16389,102,9,-117,14
3,326,86235,-625,-16233,-160,10,-150,20
3,327,86240,-628,-16191,-444,12,-186,24
3,328,86245,-676,-16167,-173,10,-226,30
3,329,86250,-95,-16125,108,8,-289,44
3,330,86255,378,-16150,18,15,-342,62
3,331,86260,523,-16270,-490,20,-356,63
3,332,86265,133,-16284,-1050,18,-329,68
3,333,86270,-213,-16347,-1532,20,-286,79
3,334,86275,-265,-16469,-1524,18,-212,90
3,335,86280,25,-16455,-1421,18,-114,96
3,336,86285,85,-16497,-1329,16,11,98
3,337,86290,-292,-16651,-1449,18,137,98
3,338,86295,-731,-16761,-1467,21,238,106
3,339,86300,-817,-16748,-1121,22,301,119
3,340,86305,-708,-16602,-463,16,337,125
3,341,86310,-794,-16648,30,22,337,135
3,342,86315,-979,-16623,249,27,302,145
3,343,86320,-1316,-16442,219,26,239,157
3,344,86325,-1525,-16273,281,25,163,170
3,345,86330,-1571,-16211,441,26,74,184
3,346,86335,-1596,-16184,638,24,-17,200
3,347,86340,-1663,-16069,535,26,-94,211
3,348,86345,-1732,-15995,178,27,-140,220
3,349,86350,-1927,-15915,-81,24,-159,234
3,350,86355,-1902,-15915,-146,19,-165,240
3,351,86360,-1965,-15826,55,20,-171,245
3,352,86365,-1859,-15712,10,21,-182,253
3,353,86370,-1853,-15680,-93,20,-173,264
3,354,86375,-1858,-15628,-163,17,-150,272
3,355,86380,-1849,-15565,-85,10,-118,273
3,356,86385,-1620,-15623,-176,12,-100,290
3,357,86390,-1447,-15630,-371,14,-83,297
3,358,86395,-1585,-15631,-456,13,-54,299
3,359,86400,-1873,-15649,-479,5,2,319
3,360,86405,-1756,-15721,-516,8,42,328
3,361,86410,-1645,-15834,-495,7,86,336
3,362,86415,-1674,-15838,-421,7,110,341
3,363,86420,-1780,-15956,-127,4,113,349
3,364,86425,-1961,-16096,-14,10,77,361
3,365,86430,-2027,-16018,-72,12,35,372
3,366,86435,-2025,-16060,-98,12,4,387
3,367,86440,-1927,-16101,184,11,-27,397
3,368,86445,-1878,-16117,289,15,-94,409
3,369,86450,-1955,-16086,104,21,-167,420
3,370,86455,-2064,-16159,-263,25,-222,432
3,371,86460,-2226,-16141,-428,24,-246,443
3,372,86465,-2129,-16137,-541,24,-265,449
3,373,86470,-2168,-16116,-432,24,-251,459
3,374,86475,-2109,-16126,-645,28,-234,464
3,375,86480,-2142,-16255,-545,31,-193,472
3,376,86485,-2086,-16287,-632,30,-164,476
3,377,86490,-2040,-16280,-503,31,-140,484
3,378,86495,-2060,-16296,-468,34,-117,492
3,379,86500,-2137,-16362,-548,34,-83,499
3,380,86505,-2221,-16312,-580,35,-40,501
3,381,86510,-2153,-16209,-429,34,1,507
3,382,86515,-2146,-16262,-173,37,22,517
3,383,86520,-2220,-16291,-222,41,27,522
3,384,86525,-2303,-16300,-406,41,48,528
3,385,86530,-2457,-16307,-397,41,79,534
3,386,86535,-2590,-16268,-245,37,102,537
3,387,86540,-2741,-16306,-121,37,105,542
3,388,86545,-2837,-16381,-72,41,89,547
3,389,86550,-2820,-16399,-25,40,68,550
3,390,86555,-2697,-16372,316,42,28,559
3,391,86560,-2736,-16428,569,41,-45,567
3,392,86565,-2814,-16515,465,51,-138,576
3,393,86570,-3070,-16470,117,55,-215,584
3,394,86575,-3146,-16516,-128,55,-264,590
3,395,86580,-3111,-16494,-207,55,-280,589
3,396,86585,-3024,-16512,-280,57,-282,594
3,397,86590,-3086,-16599,-340,64,-272,597
3,398,86595,-3102,-16487,-448,67,-257,591
3,399,86600,-3156,-16466,-400,67,-239,594
3,400,86605,-3047,-16439,-352,67,-210,596
3,401,86610,-3073,-16417,-348,67,-179,600
3,402,86615,-3025,-16445,-192,70,-153,599
3,403,86620,-2972,-16403,-159,71,-139,601
3,404,86625,-2869,-16497,-91,76,-131,605
3,405,86630,-2925,-16430,-236,75,-126,605
3,406,86635,-3141,-16484,-131,78,-109,607
3,407,86640,-3241,-16341,-260,80,-94,604
3,408,86645,-3256,-16437,-290,80,-72,615
3,409,86650,-3205,-16414,-210,78,-48,609
3,410,86655,-3249,-16413,-194,79,-31,606
3,411,86660,-3479,-16510,-204,85,-14,607
3,412,86665,-3715,-16555,-254,87,-5,607
3,413,86670,-3800,-16524,-185,87,5,606
3,414,86675,-3725,-16505,87,85,8,608
3,415,86680,-3604,-16433,503,89,-7,605
3,416,86685,-3587,-16369,599,90,-57,604
3,417,86690,-3671,-16379,554,93,-109,609
3,418,86695,-3844,-16327,194,94,-148,606
3,419,86700,-3951,-16289,-42,94,-163,600
3,420,86705,-4030,-16276,76,94,-161,604
3,421,86710,-3947,-16272,137,96,-166,603
3,422,86715,-3957,-16252,75,100,-165,596
3,423,86720,-3902,-16227,-214,102,-146,592
3,424,86725,-4096,-16300,-174,100,-111,590
3,425,86730,-4086,-16096,-30,97,-88,576
3,426,86735,-4106,-16205,113,99,-79,581
3,427,86740,-3894,-16149,-77,97,-72,567
3,428,86745,-4027,-16190,-133,96,-38,565
3,429,86750,-4150,-16294,39,96,-2,562
3,430,86755,-4237,-16125,223,97,16,554
3,431,86760,-4287,-16182,-115,102,13,550
3,432,86765,-4307,-16290,83,95,42,535
3,433,86770,-4386,-16251,283,101,26,530
3,434,86775,-4395,-16122,470,99,-15,525
3,435,86780,-4474,-16086,691,99,-51,524
3,436,86785,-4492,-16046,632,99,-92,520
3,437,86790,-4478,-15993,568,100,-129,513
3,438,86795,-4521,-15984,455,102,-181,512
3,439,86800,-4564,-16063,377,98,-224,507
3,440,86805,-4507,-16049,405,98,-257,499
3,441,86810,-4508,-16048,372,102,-274,494
3,442,86815,-4522,-16048,135,97,-272,485
3,443,86820,-4595,-15982,-161,98,-251,475
3,444,86825,-4634,-15998,-183,97,-216,466
3,445,86830,-4619,-15950,40,93,-182,456
3,446,86835,-4550,-15906,71,92,-156,450
3,447,86840,-4580,-15959,62,95,-124,441
3,448,86845,-4615,-15936,-43,94,-89,428
3,449,86850,-4652,-15890,-40,89,-56,418
3,450,86855,-4710,-15929,43,91,-38,414
3,451,86860,-4709,-15969,98,90,-25,403
3,452,86865,-4711,-16026,176,87,-11,393
3,453,86870,-4688,-15925,207,87,5,384
3,454,86875,-4779,-15895,165,85,21,376
3,455,86880,-4940,-15886,219,81,27,363
3,456,86885,-4959,-15945,222,80,11,353
3,457,86890,-4915,-15901,273,78,1,344
3,458,86895,-4850,-15918,208,78,-15,336
3,459,86900,-4991,-15937,204,75,-10,322
3,460,86905,-5075,-15866,278,72,-19,311
3,461,86910,-5065,-15822,411,74,-39,303
3,462,86915,-4980,-15730,294,71,-57,291
3,463,86920,-4918,-15686,140,66,-57,278
3,464,86925,-4987,-15626,184,64,-48,266
3,465,86930,-5011,-15655,368,60,-46,256
3,466,86935,-4894,-15657,461,60,-61,245
3,467,86940,-4794,-15599,264,57,-65,232
3,468,86945,-4716,-15598,125,55,-51,218
3,469,86950,-4865,-15660,208,49,-33,204
3,470,86955,-4926,-15661,273,47,-34,188
3,471,86960,-4874,-15632,296,46,-32,176
3,472,86965,-4737,-15732,155,44,-17,166
3,473,86970,-4639,-15715,105,40,3,147
3,474,86975,-4658,-15703,153,37,10,132
3,475,86980,-4829,-15707,279,33,6,117
3,476,86985,-4905,-15737,187,33,-2,108
3,477,86990,-4894,-15842,-59,32,3,94
3,478,86995,-4901,-15835,-163,29,16,76
3,479,87000,-4930,-15857,1,26,9,61
3,480,87005,-4981,-15799,416,24,-22,42
3,481,87010,-4925,-15658,616,21,-76,31
3,482,87015,-4843,-15635,574,23,-122,21
3,483,87020,-4818,-15644,375,19,-135,3
3,484,87025,-4846,-15691,229,16,-139,-11
3,485,87030,-4883,-15613,324,11,-149,-30
3,486,87035,-4799,-15544,131,9,-176,-41
3,487,87040,-4752,-15643,10,8,-184,-57
3,488,87045,-4624,-15750,-105,3,-175,-75
3,489,87050,-4489,-15768,-15,-2,-153,-91
3,490,87055,-4447,-15737,13,-3,-133,-112
3,491,87060,-4561,-15737,-83,-7,-108,-129
3,492,87065,-4632,-15745,-282,-8,-77,-144
3,493,87070,-4596,-15774,-361,-14,-40,-161
3,494,87075,-4533,-15861,-287,-16,-4,-177
3,495,87080,-4495,-15898,-113,-18,23,-194
3,496,87085,-4666,-15892,-89,-17,46,-209
3,497,87090,-4726,-15917,-147,-21,63,-229
3,498,87095,-4752,-15902,-78,-21,68,-243
3,499,87100,-4574,-15893,193,-23,50,-257
3,500,87105,-4412,-15802,523,-29,2,-271
3,501,87110,-4485,-15740,656,-26,-72,-283
3,502,87115,-4860,-15650,538,-29,-151,-292
3,503,87120,-4996,-15655,442,-32,-225,-299
3,504,87125,-4537,-15690,659,-38,-302,-305
3,505,87130,-3616,-15828,1038,-41,-476,-322
3,506,87135,-3896,-15869,620,-42,-556,-333
3,507,87140,-4311,-15864,-39,-47,-601,-342
3,508,87145,-4350,-15883,-545,-55,-579,-348
3,509,87150,-3927,-15917,-678,-63,-489,-356
3,510,87155,-3559,-16000,-510,-70,-379,-372
3,511,87160,-3459,-15968,-460,-72,-284,-387
3,512,87165,-3665,-15894,-531,-76,-198,-400
3,513,87170,-3771,-15900,-677,-82,-114,-409
3,514,87175,-3757,-15887,-638,-87,-10,-415
3,515,87180,-3573,-15891,-353,-94,96,-425
3,516,87185,-3507,-15819,-178,-100,191,-439
3,517,87190,-3809,-15851,83,-100,269,-449
3,518,87195,-3985,-15731,86,-100,297,-459
3,519,87200,-4022,-15620,-61,-106,306,-462
3,520,87205,-4127,-15532,102,-114,337,-469
3,521,87210,-4012,-15526,406,-117,356,-477
3,522,87215,-4146,-15533,627,-118,358,-486
3,523,87220,-4137,-15603,344,-115,331,-489
3,524,87225,-4217,-15569,431,-120,332,-497
3,525,87230,-4239,-15499,449,-127,322,-510
3,526,87235,-4231,-15533,671,-130,304,-517
3,527,87240,-4118,-15468,612,-130,256,-522
3,528,87245,-4023,-15487,532,-133,209,-531
3,529,87250,-4223,-15534,468,-134,175,-541
3,530,87255,-4246,-15477,280,-139,155,-545
3,531,87260,-4210,-15508,188,-142,148,-554
3,532,87265,-4104,-15616,107,-140,148,-565
3,533,87270,-3980,-15557,17,-144,146,-572
3,534,87275,-3933,-15570,-48,-147,147,-582
3,535,87280,-3983,-15553,-130,-147,146,-591
3,536,87285,-3927,-15654,-231,-149,162,-600
3,537,87290,-3861,-15740,-312,-153,199,-610
3,538,87295,-3866,-15828,-295,-151,250,-624
3,539,87300,-3755,-15940,-349,-154,293,-636
3,540,87305,-3664,-16046,-323,-152,318,-647
3,541,87310,-3607,-16127,-245,-150,328,-655
3,542,87315,-3592,-16099,-161,-153,332,-664
3,543,87320,-3493,-16190,-192,-152,339,-673
3,544,87325,-3434,-16300,-52,-147,349,-679
3,545,87330,-3227,-16279,135,-143,327,-685
3,546,87335,-3055,-16307,351,-144,276,-689
3,547,87340,-2968,-16280,418,-144,199,-695
3,548,87345,-3012,-16254,338,-142,118,-700
3,549,87350,-3161,-16243,211,-142,56,-707
3,550,87355,-3327,-16242,148,-145,20,-711
3,551,87360,-3329,-16323,39,-144,-1,-719
3,552,87365,-3188,-16404,57,-140,-15,-730
3,553,87370,-3034,-16368,-54,-143,-26,-735
3,554,87375,-2954,-16355,13,-144,-38,-746
3,555,87380,-3005,-16322,-52,-145,-48,-757
3,556,87385,-2937,-16402,-187,-148,-53,-764
3,557,87390,-2837,-16382,-450,-153,-17,-775
3,558,87395,-2745,-16406,-505,-152,44,-785
3,559,87400,-2681,-16441,-467,-152,99,-798
3,560,87405,-2587,-16427,-506,-150,137,-808
3,561,87410,-2422,-16411,-406,-152,176,-819
3,562,87415,-2445,-16369,-324,-155,211,-830
3,563,87420,-2490,-16413,-228,-155,241,-839
3,564,87425,-2466,-16469,-361,-151,255,-846
3,565,87430,-2335,-16565,-360,-151,262,-855
3,566,87435,-2229,-16500,-283,-151,255,-864
3,567,87440,-2179,-16451,-18,-148,229,-869
3,568,87445,-2137,-16438,39,-145,186,-875
3,569,87450,-2054,-16439,12,-146,140,-879
3,570,87455,-1985,-16459,-86,-143,111,-884
3,571,87460,-1914,-16388,-146,-142,87,-891
3,572,87465,-1921,-16413,-115,-142,63,-898
3,573,87470,-1873,-16428,-140,-142,37,-902
3,574,87475,-1818,-16439,-195,-145,25,-905
3,575,87480,-1724,-16482,-292,-146,29,-910
3,576,87485,-1582,-16496,-341,-144,37,-913
3,577,87490,-1360,-16492,-306,-145,45,-918
3,578,87495,-1203,-16532,-287,-146,36,-924
3,579,87500,-1171,-16514,-437,-145,35,-926
3,580,87505,-1094,-16578,-521,-144,44,-929
3,581,87510,-899,-16645,-663,-144,58,-925
3,582,87515,-851,-16661,-646,-145,77,-930
3,583,87520,-821,-16632,-650,-143,92,-930
3,584,87525,-713,-16572,-627,-141,100,-928
3,585,87530,-676,-16557,-559,-143,108,-927
3,586,87535,-715,-16560,-490,-143,115,-925
3,587,87540,-656,-16595,-482,-143,114,-921
3,588,87545,-553,-16625,-494,-138,108,-916
3,589,87550,-352,-16709,-467,-139,92,-911
3,590,87555,-236,-16663,-251,-134,66,-907
3,591,87560,-230,-16620,-215,-133,24,-900
3,592,87565,-280,-16615,-339,-133,-7,-893
3,593,87570,-228,-16687,-739,-133,-12,-888
3,594,87575,-180,-16633,-897,-135,12,-879
3,595,87580,-79,-16654,-861,-139,38,-874
3,596,87585,-20,-16676,-744,-137,50,-870
3,597,87590,99,-16703,-945,-132,58,-860
3,598,87595,-4338,-14630,-2446,-126,120,-847
3,599,87600,-2519,-30997,-27209,123,563,-888
3,600,87605,-32768,-11847,-26564,-199,4080,-1168
3,601,87610,-25809,-9471,25809,-57,13319,-592
3,602,87615,-8733,-6458,32767,18,13445,30
3,603,87620,32767,-18151,26870,595,1518,780
3,604,87625,27078,-18533,8343,720,-2922,360
3,605,87630,-20903,-18814,-5206,357,-4916,222
3,606,87635,-32768,-11932,-520,192,-7582,683
3,607,87640,-23236,-11558,5244,164,-7101,1131
3,608,87645,17153,-17779,-14806,283,-4649,945
3,609,87650,26363,-21870,-15732,311,-797,233
3,610,87655,-2464,-18366,-366,238,450,-329
3,611,87660,-27753,-13079,4717,260,-2258,12
3,612,87665,-14873,-13833,-13149,407,-4808,700
3,613,87670,6526,-17642,-19525,296,-2424,631
3,614,87675,13833,-19816,-8424,231,1878,72
3,615,87680,5148,-19637,4466,110,3547,-260
3,616,87685,-9005,-15139,10599,156,2097,-217
3,617,87690,-7724,-14376,-3011,355,-1060,328
3,618,87695,1679,-16951,-8844,339,-1376,513
3,619,87700,5375,-17143,-111,220,743,156
3,620,87705,3123,-17533,9708,159,2015,-17
3,621,87710,-1539,-16357,8917,192,1172,40
3,622,87715,-2737,-15623,-658,292,-833,259
3,623,87720,-762,-16175,-5984,278,-1860,391
3,624,87725,-3,-16754,-952,190,-1257,312
3,625,87730,5,-16985,3480,181,-359,201
3,626,87735,-339,-16958,679,229,-16,176
3,627,87740,-684,-16728,-5242,240,-193,198
3,628,87745,-774,-16238,-4363,198,-470,213
3,629,87750,-487,-16233,170,165,-653,223
3,630,87755,-264,-16421,2152,180,-556,204
3,631,87760,533,-16493,-957,205,-182,178
3,632,87765,-253,-17397,-3221,186,256,195
3,633,87770,-322,-16662,-2703,166,301,124
3,634,87775,-71,-15117,1235,143,43,122
3,635,87780,61,-16655,2148,173,-349,255
3,636,87785,653,-16482,-142,181,-351,186
3,637,87790,243,-16345,-2627,162,10,158
3,638,87795,-622,-16705,-1787,132,321,177
3,639,87800,-350,-16171,525,112,235,147
3,640,87805,357,-16039,711,138,-100,175
3,641,87810,757,-16606,-704,152,-205,200
3,642,87815,46,-16876,-1523,133,34,169
3,643,87820,-682,-16618,-1156,107,287,133
3,644,87825,-627,-16380,165,93,302,150
3,645,87830,238,-16367,299,105,97,170
3,646,87835,578,-16534,-29,113,-45,171
3,647,87840,81,-16645,-398,101,-17,153
3,648,87845,-621,-16400,-186,85,94,138
3,649,87850,-849,-16561,-139,76,106,160
3,650,87855,-354,-16532,-45,72,36,156
3,651,87860,-128,-16656,-223,69,-43,153
3,652,87865,-591,-16595,-258,62,0,141
3,653,87870,-928,-16448,-361,53,36,140
3,654,87875,-665,-16482,-458,44,36,146
3,655,87880,-345,-16527,-290,41,31,144
3,656,87885,-234,-16496,-178,36,26,134
3,657,87890,-602,-16544,-76,36,25,134
3,658,87895,-828,-16475,-274,29,29,129
3,659,87900,-835,-16351,-196,22,44,129
3,660,87905,-586,-16388,-122,19,36,130
3,661,87910,-435,-16381,147,12,27,124
3,662,87915,-469,-16333,79,9,-4,123
3,663,87920,-760,-16322,-68,2,-9,117
3,664,87925,-910,-16283,-263,-3,-2,117
3,665,87930,-815,-16273,-302,-10,17,116
3,666,87935,-639,-16334,-200,-15,22,113
3,667,87940,-569,-16376,-142,-18,23,109
3,668,87945,-612,-16399,-163,-19,24,107
3,669,87950,-777,-16409,-125,-25,32,109
3,670,87955,-846,-16373,-180,-28,42,106
3,671,87960,-774,-16395,-205,-32,54,104
3,672,87965,-598,-16441,-88,-36,65,104
3,673,87970,-617,-16406,-31,-39,65,101
3,674,87975,-695,-16309,93,-43,61,99
3,675,87980,-820,-16273,57,-46,50,96
3,676,87985,-875,-16310,-100,-48,46,99
3,677,87990,-812,-16310,-162,-50,55,98
3,678,87995,-780,-16251,-72,-55,64,96
3,679,88000,-818,-16250,96,-59,59,92
3,680,88005,-963,-16249,98,-60,46,90
3,681,88010,-1024,-16252,-100,-62,41,91
3,682,88015,-984,-16281,-230,-66,55,87
3,683,88020,-961,-16299,-127,-72,69,88
3,684,88025,-1014,-16314,46,-74,66,88
3,685,88030,-972,-16343,31,-73,53,82
3,686,88035,-987,-16391,0,-72,47,82
3,687,88040,-998,-16371,-9,-77,45,82
3,688,88045,-937,-16385,24,-80,42,81
3,689,88050,-915,-16394,30,-79,32,78
3,690,88055,-932,-16375,-4,-82,9,76
3,691,88060,-952,-16345,-2,-82,-11,78
3,692,88065,-934,-16316,-51,-84,-21,80
3,693,88070,-975,-16306,-127,-82,-21,76
3,694,88075,-945,-16282,-162,-86,-12,76
3,695,88080,-932,-16306,-172,-87,0,74
3,696,88085,-884,-16283,-172,-87,7,72
3,697,88090,-861,-16302,-169,-86,17,70
3,698,88095,-865,-16285,-153,-89,32,70
3,699,88100,-867,-16272,-20,-90,51,69
3,700,88105,-870,-16299,8,-88,59,69
3,701,88110,-862,-16291,-41,-88,63,68
3,702,88115,-874,-16297,-96,-90,67,68
3,703,88120,-968,-16308,-31,-90,69,69
3,704,88125,-1029,-16259,-23,-91,65,66
3,705,88130,-1025,-16278,-24,-89,62,66
3,706,88135,-1004,-16320,-73,-89,63,66
3,707,88140,-1002,-16358,-84,-91,64,65
3,708,88145,-1097,-16399,-25,-90,60,63
3,709,88150,-1115,-16393,-28,-88,48,60
3,710,88155,-1148,-16364,-128,-87,30,62
3,711,88160,-1131,-16359,-197,-84,20,62
3,712,88165,-1069,-16416,-216,-82,14,60
3,713,88170,-1034,-16376,-80,-83,7,57
3,714,88175,-1037,-16338,-43,-79,-9,58
3,715,88180,-1057,-16360,-14,-80,-24,55
3,716,88185,-1107,-16310,-10,-79,-28,56
3,717,88190,-1116,-16302,-87,-77,-23,54
3,718,88195,-1118,-16307,-206,-76,-15,51
3,719,88200,-1156,-16316,-221,-77,-4,51
3,720,88205,-1158,-16316,-282,-75,-3,49
3,721,88210,-1115,-16290,-244,-73,3,47
3,722,88215,-1092,-16260,-199,-73,9,44
3,723,88220,-1130,-16315,-162,-70,20,42
3,724,88225,-1186,-16409,-324,-65,53,40
3,725,88230,-1186,-16408,-286,-64,62,36
3,726,88235,-1174,-16367,-177,-64,66,34
3,727,88240,-1186,-16350,-8,-62,62,35
3,728,88245,-1176,-16375,53,-58,46,34
3,729,88250,-1176,-16417,40,-58,34,32
3,730,88255,-1126,-16420,54,-59,21,30
3,731,88260,-1157,-16413,50,-54,3,31
3,732,88265,-1192,-16410,39,-52,-17,31
3,733,88270,-1211,-16433,-84,-49,-31,31
3,734,88275,-1219,-16394,-190,-48,-31,27
3,735,88280,-1231,-16423,-213,-46,-24,25
3,736,88285,-1253,-16426,-214,-44,-21,26
3,737,88290,-1167,-16434,-261,-43,-17,23
3,738,88295,-1126,-16432,-328,-42,-13,18
3,739,88300,-1104,-16493,-253,-40,-6,20
3,740,88305,-1171,-16491,-284,-38,3,18
3,741,88310,-1223,-16476,-270,-35,15,17
3,742,88315,-1254,-16438,-256,-34,28,12
3,743,88320,-1177,-16425,-186,-31,33,10
3,744,88325,-1065,-16398,-69,-32,27,11
3,745,88330,-1037,-16411,-5,-29,13,9
3,746,88335,-1060,-16435,-66,-25,2,7
3,747,88340,-1059,-16451,-167,-22,0,9
3,748,88345,-1094,-16451,-215,-21,9,9
3,749,88350,-1124,-16470,-242,-19,17,8
3,750,88355,-1154,-16525,-276,-15,20,11
3,751,88360,-1220,-16544,-335,-16,31,5
3,752,88365,-1178,-16559,-335,-14,43,2
3,753,88370,-1171,-16537,-235,-12,50,2
3,754,88375,-1226,-16528,-64,-12,44,1
3,755,88380,-1206,-16489,19,-11,24,1
3,756,88385,-1124,-16462,-49,-7,1,-1
3,757,88390,-1141,-16440,-105,-2,-13,-4
3,758,88395,-1227,-16472,-102,-4,-20,-2
3,759,88400,-1223,-16477,-39,-3,-37,-1
3,760,88405,-1190,-16498,-91,-2,-51,-2
3,761,88410,-1128,-16466,-86,-1,-53,-6
3,762,88415,-1039,-16468,-58,1,-49,-7
3,763,88420,-996,-16453,-24,2,-49,-7
3,764,88425,-1042,-16452,-63,0,-47,-9
3,765,88430,-1041,-16510,-171,3,-48,-10
3,766,88435,-970,-16493,-293,8,-41,-11
3,767,88440,-941,-16531,-285,5,-22,-9
3,768,88445,-963,-16518,-272,6,-5,-10
3,769,88450,-1009,-16561,-362,10,10,-11
3,770,88455,-1032,-16593,-432,9,33,-14
3,771,88460,-1156,-16595,-401,8,54,-18
3,772,88465,-1232,-16594,-252,11,69,-18
3,773,88470,-1191,-16590,-132,11,75,-18
3,774,88475,-1149,-16570,-74,13,69,-19
3,775,88480,-1182,-16594,-5,12,62,-21
3,776,88485,-1228,-16553,107,13,46,-21
3,777,88490,-1212,-16536,102,12,18,-22
3,778,88495,-1192,-16498,123,15,-13,-17
3,779,88500,-1192,-16532,44,16,-36,-19
3,780,88505,-1191,-16487,-89,15,-51,-17
3,781,88510,-1140,-16466,-173,16,-58,-20
3,782,88515,-1121,-16473,-270,18,-58,-21
3,783,88520,-1133,-16447,-370,16,-52,-24
3,784,88525,-1086,-16422,-381,17,-39,-21
3,785,88530,-1064,-16457,-427,18,-20,-24
3,786,88535,-1051,-16424,-429,16,-1,-27
3,787,88540,-1015,-16429,-396,19,22,-30
3,788,88545,-1070,-16433,-305,17,38,-29
3,789,88550,-1033,-16446,-234,15,47,-28
3,790,88555,-996,-16403,-152,18,51,-31
3,791,88560,-964,-16434,-45,16,46,-32
3,792,88565,-968,-16453,-29,17,42,-30
3,793,88570,-1023,-16471,-43,17,35,-29
3,794,88575,-1043,-16471,-90,18,29,-28
3,795,88580,-1004,-16519,-115,18,21,-26
3,796,88585,-1026,-16494,-105,18,13,-24
3,797,88590,-1105,-16512,-165,18,1,-29
3,798,88595,-1158,-16532,-250,18,-1,-28
3,799,88600,-1215,-16544,-332,16,0,-27
3,800,88605,-1200,-16569,-315,18,6,-29
3,801,88610,-1223,-16583,-206,19,6,-31
3,802,88615,-1164,-16551,-136,18,-3,-30
3,803,88620,-1174,-16499,-169,19,-9,-31
3,804,88625,-1141,-16458,-153,20,-9,-30
3,805,88630,-1100,-16459,-137,19,-10,-32
3,806,88635,-1038,-16447,-95,16,-16,-31
3,807,88640,-1093,-16427,-110,16,-21,-32
3,808,88645,-1076,-16384,-225,19,-24,-32
3,809,88650,-1065,-16357,-228,14,-22,-31
3,810,88655,-995,-16374,-220,13,-15,-29
3,811,88660,-975,-16403,-276,17,-4,-29
3,812,88665,-958,-16394,-307,17,9,-30
3,813,88670,-995,-16404,-300,16,17,-32
3,814,88675,-990,-16417,-301,16,28,-33
3,815,88680,-1054,-16429,-368,17,39,-31
3,816,88685,-1120,-16505,-327,17,48,-33
3,817,88690,-1075,-16525,-307,16,52,-32
3,818,88695,-1050,-16490,-199,19,52,-29
3,819,88700,-1022,-16452,-155,17,50,-32
3,820,88705,-1070,-16410,-109,20,38,-31
3,821,88710,-1090,-16380,-169,16,20,-30
3,822,88715,-1079,-16409,-119,17,9,-29
3,823,88720,-1030,-16378,-179,17,2,-27
3,824,88725,-1081,-16386,-207,17,4,-27
3,825,88730,-1135,-16372,-260,16,9,-29
3,826,88735,-1129,-16385,-299,13,12,-30
3,827,88740,-1171,-16443,-286,15,18,-29
3,828,88745,-1141,-16422,-218,15,25,-28
3,829,88750,-1088,-16395,-143,12,30,-30
3,830,88755,-989,-16398,-105,12,24,-27
3,831,88760,-1025,-16393,-158,12,16,-26
3,832,88765,-1053,-16426,-322,15,11,-24
3,833,88770,-1027,-16416,-269,12,13,-25
3,834,88775,-1014,-16425,-205,11,16,-22
3,835,88780,-990,-16418,-212,12,27,-22
3,836,88785,-997,-16448,-205,11,28,-22
3,837,88790,-1012,-16410,-204,10,30,-22
3,838,88795,-1046,-16421,-248,9,28,-20
3,839,88800,-1051,-16419,-310,9,26,-18
3,840,88805,-1031,-16472,-404,10,25,-18
3,841,88810,-1048,-16472,-409,10,28,-20
3,842,88815,-1112,-16507,-384,9,30,-17
3,843,88820,-1115,-16510,-335,10,34,-18
3,844,88825,-1089,-16432,-299,6,39,-20
3,845,88830,-1076,-16414,-251,8,39,-15
3,846,88835,-1050,-16354,-234,7,39,-18
3,847,88840,-1056,-16368,-265,9,36,-16
3,848,88845,-1129,-16406,-212,8,33,-12
3,849,88850,-1105,-16427,-209,9,34,-12
3,850,88855,-1162,-16388,-225,7,42,-14
3,851,88860,-1185,-16362,-205,4,48,-14
3,852,88865,-1236,-16392,-182,5,49,-13
3,853,88870,-1185,-16374,-201,3,42,-11
3,854,88875,-1202,-16363,-174,0,38,-12
3,855,88880,-1208,-16355,-184,2,35,-13
3,856,88885,-1271,-16388,-172,2,31,-10
3,857,88890,-1301,-16342,-121,-1,24,-11
3,858,88895,-1236,-16324,-85,1,14,-11
3,859,88900,-1196,-16250,-94,3,3,-10
3,860,88905,-1125,-16195,-122,-2,-7,-8
3,861,88910,-1068,-16259,-154,-1,-19,-8
3,862,88915,-1154,-16293,-142,1,-23,-7
3,863,88920,-1200,-16277,-232,-3,-28,-5
3,864,88925,-1157,-16304,-303,-3,-24,-6
3,865,88930,-1127,-16333,-270,-4,-15,-8
3,866,88935,-1107,-16302,-273,-5,-9,-6
3,867,88940,-1127,-16334,-257,-4,-6,-3
3,868,88945,-1131,-16386,-305,-4,-2,-4
3,869,88950,-1142,-16387,-331,-4,4,-5
3,870,88955,-1161,-16336,-209,-6,3,-3
3,871,88960,-1155,-16380,-195,-5,-9,-3
3,872,88965,-1136,-16361,-260,-6,-19,0
3,873,88970,-1134,-16367,-268,-5,-21,0
3,874,88975,-1055,-16345,-275,-5,-23,0
3,875,88980,-1066,-16373,-244,-5,-25,3
3,876,88985,-1057,-16408,-283,-6,-24,4
3,877,88990,-1045,-16402,-284,-5,-24,3
3,878,88995,-1058,-16414,-312,-5,-14,0
3,879,89000,-1115,-16443,-304,-7,-4,0
3,880,89005,-1052,-16401,-247,-7,0,1
3,881,89010,-1032,-16397,-214,-6,1,4
3,882,89015,-945,-16413,-197,-6,-5,4
3,883,89020,-917,-16369,-118,-7,-10,6
3,884,89025,-965,-16370,-111,-5,-19,9
3,885,89030,-952,-16339,-125,-6,-27,7
3,886,89035,-970,-16286,-210,-6,-31,8
3,887,89040,-999,-16306,-215,-5,-28,11
3,888,89045,-1021,-16323,-280,-7,-24,13
3,889,89050,-1026,-16325,-448,-4,-16,12
3,890,89055,-1023,-16333,-412,-8,-3,12
3,891,89060,-1048,-16358,-307,-11,11,15
3,892,89065,-1074,-16399,-272,-9,26,13
3,893,89070,-1068,-16442,-301,-10,35,14
3,894,89075,-1102,-16422,-273,-8,48,11
3,895,89080,-1135,-16364,-186,-11,56,12
3,896,89085,-1130,-16415,-131,-9,52,15
3,897,89090,-1199,-16444,-99,-9,42,13
3,898,89095,-1232,-16443,-114,-8,30,14
3,899,89100,-1207,-16493,-118,-11,14,15
3,900,89105,-1168,-16458,-93,-9,4,14
3,901,89110,-1175,-16383,-93,-8,-10,12
3,902,89115,-1160,-16376,-100,-8,-31,17
3,903,89120,-1140,-16375,-161,-8,-44,17
3,904,89125,-1191,-16365,-304,-6,-55,18
3,905,89130,-1193,-16350,-339,-5,-51,18
3,906,89135,-1150,-16335,-347,-7,-38,17
3,907,89140,-1093,-16314,-313,-8,-23,17
3,908,89145,-1011,-16281,-277,-11,-5,15
3,909,89150,-957,-16309,-247,-11,4,16
3,910,89155,-1009,-16336,-227,-8,8,16
3,911,89160,-1034,-16342,-211,-10,9,16
3,912,89165,-1012,-16346,-192,-10,11,16
3,913,89170,-1031,-16393,-250,-8,12,16
3,914,89175,-1040,-16419,-243,-8,11,19
3,915,89180,-1092,-16412,-204,-9,5,20
3,916,89185,-1115,-16422,-227,-8,0,16
3,917,89190,-1144,-16451,-231,-9,-3,19
3,918,89195,-1131,-16472,-188,-8,-1,20
3,919,89200,-1085,-16426,-170,-8,0,16
3,920,89205,-1087,-16440,-107,-8,-5,18
3,921,89210,-1094,-16454,-70,-8,-17,20
3,922,89215,-1137,-16386,-101,-8,-29,16
3,923,89220,-1146,-16435,-139,-10,-36,20
3,924,89225,-1160,-16433,-236,-11,-38,22
3,925,89230,-1169,-16390,-264,-10,-36,18
3,926,89235,-1111,-16400,-272,-10,-34,16
3,927,89240,-1075,-16362,-267,-8,-32,16
3,928,89245,-1082,-16398,-318,-10,-27,16
3,929,89250,-1086,-16432,-401,-8,-9,15
3,930,89255,-1132,-16451,-405,-13,10,14
3,931,89260,-1132,-16491,-343,-12,25,13
3,932,89265,-1117,-16519,-261,-7,34,13
3,933,89270,-1079,-16469,-167,-7,35,15
3,934,89275,-1018,-16499,-150,-8,29,14
3,935,89280,-1024,-16523,-131,-9,18,13
3,936,89285,-1034,-16524,-141,-9,2,13
3,937,89290,-1053,-16534,-156,-8,-13,16
3,938,89295,-1019,-16558,-250,-9,-22,19
3,939,89300,-1071,-16556,-309,-8,-19,17
3,940,89305,-1065,-16601,-343,-7,-18,17
3,941,89310,-1099,-16564,-325,-7,-12,16
3,942,89315,-1097,-16532,-364,-8,-7,15
3,943,89320,-1085,-16537,-341,-6,-8,14
3,944,89325,-1101,-16557,-266,-7,1,15
3,945,89330,-1089,-16539,-278,-6,8,14
3,946,89335,-1103,-16530,-277,-6,18,12
3,947,89340,-1142,-16504,-217,-8,20,11
3,948,89345,-1170,-16458,-189,-6,11,12
3,949,89350,-1157,-16449,-192,-8,4,13
3,950,89355,-1109,-16436,-211,-7,3,12
3,951,89360,-1133,-16449,-208,-3,4,10
3,952,89365,-1179,-16425,-197,-5,1,10
3,953,89370,-1158,-16441,-173,-7,-3,12
3,954,89375,-1151,-16407,-227,-9,-1,11
3,955,89380,-1164,-16456,-301,-10,2,10
3,956,89385,-1213,-16471,-303,-6,4,10
3,957,89390,-1233,-16484,-237,-6,5,10
3,958,89395,-1240,-16471,-230,-7,8,8
3,959,89400,-1148,-16475,-214,-6,5,9
3,960,89405,-1091,-16447,-162,-6,-2,6
3,961,89410,-990,-16484,-114,-7,-14,6
3,962,89415,-1083,-16490,-131,-6,-30,8
3,963,89420,-1120,-16486,-223,-5,-37,5
3,964,89425,-1151,-16480,-356,-4,-39,6
3,965,89430,-1144,-16457,-391,-4,-35,5
3,966,89435,-1088,-16455,-378,-4,-25,4
3,967,89440,-1064,-16450,-339,-4,-18,4
3,968,89445,-1084,-16452,-283,-2,-15,6
3,969,89450,-1093,-16477,-271,-3,-15,7
3,970,89455,-1145,-16422,-271,-4,-16,1
3,971,89460,-1187,-16445,-271,-2,-15,1
3,972,89465,-1182,-16434,-240,-1,-17,1
3,973,89470,-1151,-16381,-162,-2,-20,-2
3,974,89475,-1146,-16382,-130,-2,-26,-1
3,975,89480,-1173,-16384,-161,-1,-35,0
3,976,89485,-1151,-16430,-265,1,-38,-2
3,977,89490,-1112,-16402,-326,0,-34,-2
3,978,89495,-1120,-16461,-385,0,-30,-2
3,979,89500,-1129,-16447,-382,0,-22,-2
3,980,89505,-1167,-16432,-398,0,-14,-2
3,981,89510,-1162,-16392,-423,4,2,-6
3,982,89515,-1108,-16394,-379,1,13,-7
3,983,89520,-1086,-16407,-279,4,17,-9
3,984,89525,-1109,-16441,-226,4,12,-7
3,985,89530,-1104,-16414,-187,2,2,-5
3,986,89535,-1190,-16411,-169,2,-3,-7
3,987,89540,-1258,-16432,-171,6,-9,-9
3,988,89545,-1202,-16406,-121,3,-14,-9
3,989,89550,-1160,-16360,-85,3,-22,-9
3,990,89555,-1146,-16384,-142,5,-33,-9
3,991,89560,-1184,-16430,-213,6,-41,-11
3,992,89565,-1199,-16416,-248,5,-45,-12
3,993,89570,-1175,-16367,-231,4,-46,-11
3,994,89575,-1193,-16389,-236,3,-45,-11
3,995,89580,-1099,-16355,-318,5,-43,-13
3,996,89585,-1082,-16355,-348,6,-34,-11
3,997,89590,-1111,-16362,-326,6,-28,-14
3,998,89595,-1054,-16364,-287,7,-28,-15
3,999,89600,-1041,-16370,-346,7,-29,-13
4,0,91865,-1304,-16376,-349,-5,-6,-8
4,1,91870,-1271,-16371,-419,-5,-4,-10
4,2,91875,-1281,-16375,-435,-5,-1,-11
4,3,91880,-1234,-16394,-530,-4,-2,-12
4,4,91885,-1305,-16390,-553,-8,5,-14
4,5,91890,-1251,-16386,-576,-7,11,-11
4,6,91895,-1241,-16407,-489,-7,21,-13
4,7,91900,-1225,-16380,-539,-8,29,-13
4,8,91905,-1259,-16459,-562,-8,35,-15
4,9,91910,-1260,-16432,-572,-9,32,-16
4,10,91915,-1308,-16454,-548,-7,27,-11
4,11,91920,-1283,-16445,-510,-8,23,-12
4,12,91925,-1248,-16372,-503,-6,19,-14
4,13,91930,-1278,-16361,-465,-9,15,-12
4,14,91935,-1281,-16331,-404,-7,6,-13
4,15,91940,-1263,-16263,-429,-6,1,-13
4,16,91945,-1247,-16285,-441,-12,-3,-12
4,17,91950,-1287,-16281,-442,-10,-8,-13
4,18,91955,-1281,-16279,-445,-8,-8,-10
4,19,91960,-1271,-16280,-532,-9,0,-11
4,20,91965,-1265,-16255,-519,-9,7,-13
4,21,91970,-1268,-16278,-504,-9,17,-13
4,22,91975,-1281,-16252,-501,-10,25,-11
4,23,91980,-1304,-16292,-504,-12,33,-12
4,24,91985,-1301,-16332,-576,-15,44,-12
4,25,91990,-1264,-16321,-594,-16,50,-12
4,26,91995,-1263,-16348,-538,-14,52,-12
4,27,92000,-1276,-16398,-521,-15,54,-12
4,28,92005,-1274,-16468,-594,-15,50,-15
4,29,92010,-1238,-16505,-631,-13,54,-14
4,30,92015,-1230,-16489,-710,-14,64,-13
4,31,92020,-1316,-16513,-652,-17,70,-12
