event_id,seq,ts_ms,ax,ay,az,gx,gy,gz
6,0,78558,-2574,-15957,-2887,-9,-20,-7
6,1,78563,-2583,-15974,-2912,-10,-18,-7
6,2,78568,-2581,-16017,-2919,-10,-9,-7
6,3,78573,-2568,-16024,-2854,-10,-3,-10
6,4,78578,-2614,-16046,-2871,-7,-8,-7
6,5,78583,-2557,-16055,-2857,-7,-11,-8
6,6,78588,-2592,-16046,-2895,-10,-12,-8
6,7,78593,-2584,-16053,-2875,-9,-13,-8
6,8,78598,-2629,-16018,-2857,-7,-14,-9
6,9,78603,-2575,-16035,-2890,-8,-18,-9
6,10,78608,-2534,-16048,-2874,-11,-17,-10
6,11,78613,-2573,-16003,-2815,-10,-13,-10
6,12,78618,-2547,-15973,-2775,-10,-11,-9
6,13,78623,-2561,-15995,-2856,-7,-12,-12
6,14,78628,-2503,-16029,-2858,-6,-8,-10
6,15,78633,-2519,-15994,-2795,-8,-7,-12
6,16,78638,-2544,-15981,-2786,-7,-9,-11
6,17,78643,-2552,-15976,-2838,-5,-10,-8
6,18,78648,-2503,-15958,-2812,-4,-13,-7
6,19,78653,-2513,-15956,-2830,-5,-11,-9
6,20,78658,-2508,-15960,-2805,-11,-11,-10
6,21,78663,-2510,-15929,-2817,-9,-15,-10
6,22,78668,-2506,-15911,-2802,-8,-22,-9
6,23,78673,-2488,-15922,-2801,-9,-26,-9
6,24,78678,-2493,-15927,-2845,-6,-26,-8
6,25,78683,-2504,-15903,-2862,-8,-22,-7
6,26,78688,-2517,-15849,-2851,-9,-23,-9
6,27,78693,-2508,-15884,-2830,-6,-25,-7
6,28,78698,-2529,-15928,-2853,-6,-25,-8
6,29,78703,-2529,-15920,-2803,-8,-20,-7
6,30,78708,-2480,-15941,-2747,-5,-17,-5
6,31,78713,-2444,-15964,-2762,-5,-13,-3
6,32,78718,-2440,-16028,-2771,-1,-12,-4
6,33,78723,-2439,-16037,-2795,-7,-15,-5
6,34,78728,-2482,-15991,-2764,-7,-16,-4
6,35,78733,-2488,-16007,-2749,-6,-19,-5
6,36,78738,-2455,-15979,-2800,-4,-24,-3
6,37,78743,-2437,-15965,-2839,-5,-21,-2
6,38,78748,-2444,-15985,-2910,-5,-23,-1
6,39,78753,-2445,-15919,-2923,-3,-27,0
6,40,78758,-2421,-15905,-2914,-2,-30,0
6,41,78763,-2440,-15890,-2943,-4,-31,1
6,42,78768,-2467,-15873,-2953,-4,-26,0
6,43,78773,-2451,-15881,-2903,-4,-21,0
6,44,78778,-2462,-15928,-2925,-3,-13,0
6,45,78783,-2427,-15890,-2919,-4,-5,1
6,46,78788,-2458,-15861,-2896,-2,3,2
6,47,78793,-2493,-15886,-2856,1,11,2
6,48,78798,-2552,-15867,-2873,-1,17,1
6,49,78803,-2520,-15856,-2905,-1,21,-1
6,50,78808,-2486,-15863,-2828,0,26,-1
6,51,78813,-2469,-15940,-2821,1,26,4
6,52,78818,-2444,-15940,-2804,-2,24,2
6,53,78823,-2476,-15914,-2805,-3,19,-1
6,54,78828,-2450,-15940,-2741,1,11,0
6,55,78833,-2445,-15954,-2786,1,8,3
6,56,78838,-2449,-15979,-2830,0,4,1
6,57,78843,-2448,-15992,-2842,5,1,0
6,58,78848,-2469,-15996,-2856,3,-4,-2
6,59,78853,-2479,-15977,-2855,1,-9,0
6,60,78858,-2520,-15958,-2895,1,-10,1
6,61,78863,-2540,-15945,-2846,3,-8,0
6,62,78868,-2520,-15933,-2849,3,-5,-1
6,63,78873,-2509,-15924,-2861,3,-6,-4
6,64,78878,-2472,-15945,-2861,3,-7,-1
6,65,78883,-2513,-15972,-2868,0,-1,-2
6,66,78888,-2525,-15971,-2908,2,1,-5
6,67,78893,-2510,-15977,-2916,2,0,-4
6,68,78898,-2488,-16011,-2878,2,-1,-2
6,69,78903,-2506,-16026,-2854,4,1,-5
6,70,78908,-2505,-16020,-2891,3,0,-5
6,71,78913,-2582,-16034,-2882,3,1,-5
6,72,78918,-2571,-16009,-2825,5,-3,-7
6,73,78923,-2546,-15995,-2832,3,-3,-6
6,74,78928,-2557,-16008,-2843,4,-6,-6
6,75,78933,-2527,-16010,-2871,3,-5,-8
6,76,78938,-2498,-16021,-2885,5,-5,-10
6,77,78943,-2532,-15986,-2846,4,-1,-11
6,78,78948,-2548,-16009,-2827,1,1,-10
6,79,78953,-2536,-16002,-2822,0,5,-10
6,80,78958,-2529,-16008,-2872,-2,7,-11
6,81,78963,-2520,-15971,-2838,0,5,-12
6,82,78968,-2488,-15979,-2777,1,-1,-12
6,83,78973,-2484,-15998,-2791,0,-3,-13
6,84,78978,-2463,-16022,-2818,-1,-5,-13
6,85,78983,-2437,-16000,-2776,-1,-11,-12
6,86,78988,-2474,-15972,-2834,1,-16,-11
6,87,78993,-2469,-15971,-2839,1,-15,-11
6,88,78998,-2467,-15943,-2830,-3,-15,-14
6,89,79003,-2465,-15941,-2838,-4,-13,-17
6,90,79008,-2461,-15966,-2763,-3,-8,-13
6,91,79013,-2479,-15978,-2782,-4,-7,-10
6,92,79018,-2507,-15985,-2774,-3,-3,-14
6,93,79023,-2476,-15974,-2724,-4,-4,-14
6,94,79028,-2483,-15951,-2720,-4,-12,-10
6,95,79033,-2508,-15951,-2771,-8,-14,-11
6,96,79038,-2527,-15966,-2791,-7,-19,-10
6,97,79043,-2495,-16034,-2836,-7,-21,-9
6,98,79048,-2485,-16054,-2856,-4,-22,-11
6,99,79053,-2478,-16040,-2867,-7,-26,-11
6,100,79058,-2474,-16054,-2844,-6,-22,-12
6,101,79063,-2436,-16035,-2907,-7,-16,-13
6,102,79068,-2423,-16052,-2903,-8,-9,-12
6,103,79073,-2471,-16044,-2895,-7,0,-9
6,104,79078,-2483,-15994,-2870,-3,2,-12
6,105,79083,-2475,-15967,-2841,-7,-2,-12
6,106,79088,-2502,-15951,-2811,-3,-1,-9
6,107,79093,-2517,-15936,-2772,-6,-1,-11
6,108,79098,-2538,-15940,-2772,-8,-8,-10
6,109,79103,-2437,-15946,-2792,-8,-11,-9
6,110,79108,-2445,-15950,-2829,-6,-14,-8
6,111,79113,-2474,-15950,-2822,-8,-16,-9
6,112,79118,-2482,-15937,-2878,-8,-18,-8
6,113,79123,-2506,-15878,-2905,-7,-22,-8
6,114,79128,-2481,-15901,-2916,-5,-23,-6
6,115,79133,-2482,-15912,-2932,-4,-19,-3
6,116,79138,-2498,-15956,-2901,-3,-17,-6
6,117,79143,-2497,-15922,-2894,-6,-16,-6
6,118,79148,-2464,-15909,-2886,-3,-14,-5
6,119,79153,-2473,-15927,-2827,-1,-12,-2
6,120,79158,-2465,-15936,-2835,-1,-8,-3
6,121,79163,-2407,-15934,-2872,1,-5,-5
6,122,79168,-2431,-15943,-2814,1,-9,-2
6,123,79173,-2422,-15964,-2800,-1,-12,-1
6,124,79178,-2418,-15951,-2848,-1,-10,-2
6,125,79183,-2447,-15944,-2911,-1,-9,-3
6,126,79188,-2448,-15918,-2889,-1,-9,-3
6,127,79193,-2491,-15892,-2881,-1,-9,-3
6,128,79198,-2476,-15864,-2926,-3,-7,-4
6,129,79203,-2469,-15897,-2948,0,-7,-1
6,130,79208,-2491,-15904,-2927,3,-3,0
6,131,79213,-2454,-15907,-2944,3,1,-1
6,132,79218,-2478,-15893,-2916,4,-2,-1
6,133,79223,-2523,-15894,-2894,3,-1,-1
6,134,79228,-2532,-15876,-2922,3,-6,-3
6,135,79233,-2543,-15886,-2901,3,-5,-1
6,136,79238,-2537,-15875,-2897,4,-7,2
6,137,79243,-2537,-15933,-2914,5,-6,-1
6,138,79248,-2461,-15999,-2897,6,-8,0
6,139,79253,-2476,-15993,-2873,7,-10,0
6,140,79258,-2507,-16006,-2857,7,-11,-2
6,141,79263,-2501,-16008,-2828,6,-12,0
6,142,79268,-2505,-16009,-2834,7,-13,-1
6,143,79273,-2537,-16030,-2842,8,-15,-2
6,144,79278,-2516,-16022,-2872,5,-17,-2
6,145,79283,-2535,-16010,-2946,8,-16,0
6,146,79288,-2507,-15981,-2857,8,-12,1
6,147,79293,-2528,-15993,-2797,6,-15,-1
6,148,79298,-2521,-16047,-2832,4,-19,0
6,149,79303,-2448,-16033,-2861,6,-20,-2
6,150,79308,-2418,-16034,-2879,3,-18,-1
6,151,79313,-2431,-16045,-2869,4,-17,-2
6,152,79318,-2504,-16061,-2852,5,-20,-1
6,153,79323,-2471,-16080,-2844,1,-18,-2
6,154,79328,-2422,-16071,-2850,2,-13,-1
6,155,79333,-2473,-16035,-2798,2,-11,-1
6,156,79338,-2550,-16014,-2833,2,-10,-5
6,157,79343,-2540,-16012,-2846,2,-6,-4
6,158,79348,-2515,-16006,-2805,0,-3,-7
6,159,79353,-2483,-16020,-2810,1,-3,-4
6,160,79358,-2435,-16001,-2771,0,-7,-7
6,161,79363,-2495,-15983,-2783,0,-12,-5
6,162,79368,-2557,-15977,-2868,-1,-17,-3
6,163,79373,-2497,-15950,-2861,-1,-14,-7
6,164,79378,-2486,-15964,-2895,-4,-12,-8
6,165,79383,-2468,-15947,-2922,-3,-11,-9
6,166,79388,-2467,-15948,-2883,-4,-10,-7
6,167,79393,-2488,-15931,-2835,-5,-6,-7
6,168,79398,-2503,-15882,-2790,-6,1,-11
6,169,79403,-2486,-15910,-2776,-4,6,-11
6,170,79408,-2417,-15964,-2822,-2,7,-9
6,171,79413,-2452,-15967,-2857,-3,4,-7
6,172,79418,-2516,-15948,-2826,-5,-3,-11
6,173,79423,-2516,-15961,-2856,-7,-5,-14
6,174,79428,-2545,-15966,-2900,-4,-11,-16
6,175,79433,-2501,-15998,-2906,-5,-12,-14
6,176,79438,-2514,-16019,-2868,-3,-10,-14
6,177,79443,-2531,-15961,-2815,-8,-5,-16
6,178,79448,-2556,-15963,-2808,-8,-11,-17
6,179,79453,-2508,-15952,-2809,-5,-19,-16
6,180,79458,-2468,-15971,-2864,-3,-22,-15
6,181,79463,-2465,-16014,-2936,-3,-26,-17
6,182,79468,-2436,-16008,-2951,-4,-32,-19
6,183,79473,-2519,-16044,-2915,-5,-30,-19
6,184,79478,-2482,-15971,-2976,-5,-32,-21
6,185,79483,-2408,-15914,-2948,-2,-29,-18
6,186,79488,-2415,-15940,-2902,0,-31,-20
6,187,79493,-2494,-15916,-2919,-3,-45,-20
6,188,79498,-2479,-15892,-2942,-4,-54,-19
6,189,79503,-2440,-15881,-2927,-3,-50,-22
6,190,79508,-2503,-15927,-2918,-1,-43,-21
6,191,79513,-2521,-15965,-2923,-2,-43,-24
6,192,79518,-2494,-15942,-2895,-1,-40,-24
6,193,79523,-2502,-15998,-2917,0,-34,-21
6,194,79528,-2461,-15991,-2859,0,-26,-23
6,195,79533,-2449,-16022,-2857,0,-23,-24
6,196,79538,-2472,-15960,-2843,0,-29,-24
6,197,79543,-2498,-15926,-2817,-1,-31,-23
6,198,79548,-2528,-15901,-2831,-2,-29,-23
6,199,79553,-2530,-15920,-2845,-1,-33,-22
6,200,79558,-2474,-15906,-2849,0,-40,-20
6,201,79563,-2433,-15970,-2952,2,-46,-20
6,202,79568,-2436,-16003,-3020,3,-48,-22
6,203,79573,-2466,-15949,-3007,5,-45,-21
6,204,79578,-2468,-15892,-3025,5,-41,-18
6,205,79583,-2485,-15910,-3025,6,-36,-19
6,206,79588,-2488,-15927,-3010,6,-29,-17
6,207,79593,-2480,-15991,-3014,6,-19,-14
6,208,79598,-2485,-16009,-2929,9,-12,-15
6,209,79603,-2471,-15949,-2897,7,-9,-14
6,210,79608,-2441,-15960,-2807,6,-8,-17
6,211,79613,-2416,-15990,-2824,8,-21,-14
6,212,79618,-2400,-16006,-2810,8,-29,-10
6,213,79623,-2372,-16020,-2824,6,-35,-10
6,214,79628,-2379,-15992,-2858,7,-35,-9
6,215,79633,-2416,-15979,-2900,7,-31,-7
6,216,79638,-2394,-15961,-2937,7,-26,-8
6,217,79643,-2407,-15940,-2931,8,-18,-7
6,218,79648,-2434,-15909,-2937,11,-10,-2
6,219,79653,-2460,-15915,-2989,11,-5,-2
6,220,79658,-2434,-15927,-2945,11,0,-3
6,221,79663,-2459,-15937,-2902,11,7,-1
6,222,79668,-2453,-15938,-2861,9,8,-1
6,223,79673,-2410,-15946,-2822,8,4,3
6,224,79678,-2406,-15933,-2833,10,3,3
6,225,79683,-2443,-15952,-2810,9,-2,2
6,226,79688,-2437,-15972,-2807,8,-4,3
6,227,79693,-2482,-15947,-2823,10,-5,4
6,228,79698,-2470,-15955,-2886,9,-8,6
6,229,79703,-2453,-15959,-2891,9,-5,5
6,230,79708,-2451,-15973,-2894,8,-5,7
6,231,79713,-2393,-15990,-2855,9,-5,6
6,232,79718,-2376,-15988,-2865,7,-7,6
6,233,79723,-2425,-15983,-2822,7,-8,6
6,234,79728,-2481,-16023,-2817,7,-11,5
6,235,79733,-2516,-15989,-2859,5,-11,9
6,236,79738,-2512,-15947,-2824,7,-5,9
6,237,79743,-2530,-15955,-2793,6,-3,10
6,238,79748,-2490,-15923,-2778,6,2,13
6,239,79753,-2445,-15942,-2758,6,6,12
6,240,79758,-2462,-15937,-2793,7,5,9
6,241,79763,-2483,-15932,-2788,7,3,10
6,242,79768,-2456,-15915,-2838,7,-3,10
6,243,79773,-2420,-15910,-2891,5,-11,11
6,244,79778,-2454,-15917,-2874,5,-17,14
6,245,79783,-2466,-15911,-2903,6,-19,11
6,246,79788,-2498,-15954,-2956,6,-17,15
6,247,79793,-2502,-15971,-3025,6,-13,13
6,248,79798,-2546,-15974,-2977,7,-8,10
6,249,79803,-2544,-15979,-2960,6,-1,9
6,250,79808,-2500,-15967,-2942,7,6,7
6,251,79813,-2526,-16002,-2925,7,8,6
6,252,79818,-2547,-15969,-2946,9,5,6
6,253,79823,-2501,-16020,-2875,7,8,6
6,254,79828,-2481,-16032,-2859,6,8,6
6,255,79833,-2487,-16040,-2842,5,5,4
6,256,79838,-2489,-16052,-2843,10,-2,4
6,257,79843,-2482,-16019,-2875,5,-3,4
6,258,79848,-2459,-16020,-2920,8,-2,2
6,259,79853,-2499,-16025,-2969,9,0,1
6,260,79858,-2529,-16044,-2924,7,0,1
6,261,79863,-2536,-16061,-2995,8,-1,1
6,262,79868,-2473,-16014,-2980,10,4,-2
6,263,79873,-2480,-16006,-2960,7,12,-6
6,264,79878,-2527,-16010,-2918,7,19,-6
6,265,79883,-2535,-15956,-2820,11,20,-8
6,266,79888,-2532,-15895,-2804,9,20,-10
6,267,79893,-2495,-15927,-2823,7,19,-7
6,268,79898,-2492,-15935,-2804,8,11,-9
6,269,79903,-2430,-15903,-2768,10,2,-6
6,270,79908,-2399,-15925,-2793,7,-6,-7
6,271,79913,-2378,-15921,-2763,10,-12,-10
6,272,79918,-2441,-15904,-2822,8,-17,-11
6,273,79923,-2467,-15920,-2854,6,-21,-9
6,274,79928,-2477,-15947,-2912,6,-20,-12
6,275,79933,-2473,-15927,-2937,8,-18,-11
6,276,79938,-2519,-15913,-2903,7,-10,-15
6,277,79943,-2495,-15906,-2903,5,-6,-14
6,278,79948,-2509,-15934,-2840,5,-4,-15
6,279,79953,-2489,-15953,-2883,8,-5,-16
6,280,79958,-2490,-16002,-2862,8,-7,-15
6,281,79963,-2545,-15937,-2845,6,-7,-17
6,282,79968,-2552,-15944,-2815,5,-8,-15
6,283,79973,-2530,-16010,-2808,6,-10,-18
6,284,79978,-2448,-16029,-2810,5,-13,-15
6,285,79983,-2428,-16047,-2737,6,-18,-17
6,286,79988,-2477,-16037,-2732,5,-26,-16
6,287,79993,-2558,-16027,-2711,4,-35,-17
6,288,79998,-2529,-15978,-2727,6,-44,-16
6,289,80003,-2502,-15994,-2726,5,-47,-16
6,290,80008,-2523,-16059,-2680,5,-53,-16
6,291,80013,-2415,-16030,-2732,8,-65,-13
6,292,80018,-2426,-15989,-2723,5,-72,-9
6,293,80023,-2557,-16062,-2506,3,-82,-13
6,294,80028,-2598,-16009,-2615,8,-101,-8
6,295,80033,-2447,-15961,-2784,5,-100,-1
6,296,80038,-2499,-15966,-2664,5,-92,-4
6,297,80043,-2646,-16053,-2503,4,-96,-4
6,298,80048,-2719,-16091,-2667,6,-108,-5
6,299,80053,-2739,-16022,-2717,5,-100,-1
6,300,80058,-2636,-15981,-2549,4,-87,4
6,301,80063,-2593,-15979,-2380,5,-87,3
6,302,80068,-2618,-15973,-2576,7,-96,4
6,303,80073,-2657,-16047,-2874,7,-90,5
6,304,80078,-2748,-16040,-2710,5,-77,6
6,305,80083,-2788,-15941,-2455,5,-71,11
6,306,80088,-2817,-15893,-2526,8,-77,11
6,307,80093,-2844,-15902,-2765,7,-81,14
6,308,80098,-2881,-15859,-2724,6,-70,19
6,309,80103,-2829,-15890,-2554,8,-63,20
6,310,80108,-2940,-15975,-2613,11,-67,21
6,311,80113,-2986,-15975,-2838,11,-62,21
6,312,80118,-2965,-15947,-2821,12,-40,24
6,313,80123,-2970,-15934,-2723,12,-16,25
6,314,80128,-3022,-15989,-2693,18,-5,26
6,315,80133,-3017,-16017,-2860,21,-2,30
6,316,80138,-2970,-16039,-2871,20,15,32
6,317,80143,-2991,-16019,-2717,19,31,33
6,318,80148,-3064,-15994,-2615,19,34,35
6,319,80153,-3121,-16030,-2741,24,30,39
6,320,80158,-3145,-15984,-2764,26,39,42
6,321,80163,-3182,-15943,-2685,27,48,41
6,322,80168,-3244,-15966,-2622,31,48,43
6,323,80173,-3265,-15953,-2672,32,40,52
6,324,80178,-3236,-15933,-2681,33,36,55
6,325,80183,-3265,-15919,-2656,36,40,55
6,326,80188,-3331,-15863,-2637,39,36,58
6,327,80193,-3337,-15828,-2616,42,31,61
6,328,80198,-3380,-15854,-2604,44,34,64
6,329,80203,-3408,-15885,-2616,44,36,65
6,330,80208,-3366,-15833,-2598,46,39,69
6,331,80213,-3375,-15830,-2555,46,39,72
6,332,80218,-3458,-15869,-2454,50,30,74
6,333,80223,-3538,-15837,-2532,53,19,74
6,334,80228,-3540,-15827,-2573,54,11,80
6,335,80233,-3501,-15885,-2577,56,6,83
6,336,80238,-3533,-15874,-2570,57,2,85
6,337,80243,-3601,-15850,-2555,60,-6,87
6,338,80248,-3609,-15893,-2531,61,-11,90
6,339,80253,-3574,-15879,-2524,61,-11,91
6,340,80258,-3553,-15846,-2479,62,-5,95
6,341,80263,-3595,-15821,-2399,66,-6,95
6,342,80268,-3674,-15789,-2461,65,-12,102
6,343,80273,-3633,-15783,-2468,65,-13,105
6,344,80278,-3640,-15797,-2365,67,-10,105
6,345,80283,-3670,-15785,-2316,67,-10,110
6,346,80288,-3677,-15777,-2368,69,-17,114
6,347,80293,-3616,-15791,-2447,70,-20,116
6,348,80298,-3624,-15773,-2355,70,-16,117
6,349,80303,-3720,-15778,-2284,74,-19,118
6,350,80308,-3702,-15800,-2350,74,-27,123
6,351,80313,-3657,-15804,-2455,72,-24,130
6,352,80318,-3597,-15767,-2450,72,-12,130
6,353,80323,-3613,-15739,-2326,71,-6,131
6,354,80328,-3619,-15748,-2307,75,-7,133
6,355,80333,-3587,-15753,-2376,73,-9,141
6,356,80338,-3583,-15785,-2452,76,-2,143
6,357,80343,-3623,-15760,-2412,79,2,148
6,358,80348,-3678,-15801,-2414,79,0,153
6,359,80353,-3682,-15851,-2390,80,-1,159
6,360,80358,-3689,-15795,-2415,83,-3,162
6,361,80363,-3657,-15778,-2376,83,-2,168
6,362,80368,-3587,-15836,-2408,85,-2,171
6,363,80373,-3625,-15852,-2452,87,1,172
6,364,80378,-3609,-15854,-2456,88,4,176
6,365,80383,-3619,-15873,-2347,89,12,180
6,366,80388,-3628,-15848,-2298,90,11,183
6,367,80393,-3656,-15886,-2246,92,11,187
6,368,80398,-3667,-15887,-2314,92,16,193
6,369,80403,-3711,-15870,-2341,94,19,195
6,370,80408,-3767,-15851,-2273,95,18,199
6,371,80413,-3756,-15852,-2269,97,15,204
6,372,80418,-3748,-15853,-2317,98,9,211
6,373,80423,-3779,-15885,-2368,99,8,214
6,374,80428,-3748,-15879,-2419,100,10,216
6,375,80433,-3744,-15881,-2438,101,9,221
6,376,80438,-3707,-15905,-2422,104,9,226
6,377,80443,-3704,-15979,-2485,106,3,232
6,378,80448,-3739,-16025,-2585,110,5,232
6,379,80453,-3795,-16014,-2513,111,12,235
6,380,80458,-3827,-15984,-2498,112,18,237
6,381,80463,-3907,-15971,-2447,113,20,243
6,382,80468,-3988,-15995,-2382,113,25,243
6,383,80473,-3977,-15973,-2282,116,33,247
6,384,80478,-3981,-15977,-2290,119,33,252
6,385,80483,-4049,-16029,-2232,120,30,253
6,386,80488,-4012,-15977,-2187,122,23,257
6,387,80493,-4034,-15913,-2154,124,7,264
6,388,80498,-3986,-15882,-2227,126,-12,270
6,389,80503,-4004,-15890,-2240,125,-20,269
6,390,80508,-4001,-15899,-2280,125,-36,272
6,391,80513,-3971,-15916,-2350,128,-44,279
6,392,80518,-3976,-15861,-2394,131,-42,280
6,393,80523,-4066,-15860,-2387,131,-33,282
6,394,80528,-4037,-15844,-2381,130,-23,282
6,395,80533,-4025,-15840,-2422,132,-9,285
6,396,80538,-4069,-15783,-2379,134,10,287
6,397,80543,-4105,-15811,-2346,136,20,290
6,398,80548,-4109,-15757,-2290,137,33,292
6,399,80553,-4053,-15700,-2240,139,41,293
6,400,80558,-4096,-15722,-2223,140,46,295
6,401,80563,-4076,-15800,-2128,143,45,301
6,402,80568,-4000,-15831,-2118,142,46,306
6,403,80573,-3993,-15892,-2063,142,51,307
6,404,80578,-4015,-15928,-1986,143,48,305
6,405,80583,-3967,-16000,-1954,142,36,309
6,406,80588,-3894,-15984,-1990,142,27,314
6,407,80593,-3987,-15945,-1989,142,25,318
6,408,80598,-4044,-15938,-2006,144,25,319
6,409,80603,-4022,-15962,-2061,146,26,322
6,410,80608,-4021,-15965,-2119,147,30,324
6,411,80613,-4042,-15978,-2124,148,33,325
6,412,80618,-4086,-15962,-2076,145,39,326
6,413,80623,-4134,-16006,-2013,145,39,328
6,414,80628,-4175,-16039,-2011,143,42,329
6,415,80633,-4175,-16065,-2093,146,49,329
6,416,80638,-4211,-16081,-2028,145,64,331
6,417,80643,-4258,-16091,-1931,146,66,332
6,418,80648,-4331,-16097,-1871,146,60,333
6,419,80653,-4356,-16050,-1880,147,51,330
6,420,80658,-4398,-16015,-1859,147,44,331
6,421,80663,-4467,-16063,-1868,144,35,333
6,422,80668,-4521,-16097,-1861,144,26,332
6,423,80673,-4575,-16081,-1898,144,16,331
6,424,80678,-4645,-16075,-1913,144,12,331
6,425,80683,-4653,-16050,-1895,143,7,332
6,426,80688,-4672,-15974,-1846,142,-1,329
6,427,80693,-4710,-15918,-1797,142,-11,329
6,428,80698,-4708,-15950,-1832,145,-29,329
6,429,80703,-4698,-15931,-1896,143,-39,327
6,430,80708,-4714,-15878,-1989,143,-53,323
6,431,80713,-4739,-15775,-2127,143,-54,323
6,432,80718,-4701,-15691,-2198,142,-49,322
6,433,80723,-4700,-15690,-2180,141,-41,319
6,434,80728,-4699,-15637,-2202,141,-30,315
6,435,80733,-4680,-15637,-2251,146,-17,317
6,436,80738,-4581,-15611,-2264,145,4,316
6,437,80743,-4495,-15525,-2199,144,32,312
6,438,80748,-4467,-15496,-2197,142,61,311
6,439,80753,-4401,-15541,-2130,142,82,309
6,440,80758,-4341,-15556,-2046,140,97,306
6,441,80763,-4313,-15525,-1924,138,103,308
6,442,80768,-4291,-15458,-1838,138,102,309
6,443,80773,-4246,-15453,-1807,136,103,309
6,444,80778,-4219,-15407,-1796,136,99,310
6,445,80783,-4194,-15416,-1777,133,96,311
6,446,80788,-4247,-15470,-1808,132,96,312
6,447,80793,-4160,-15493,-1842,129,99,313
6,448,80798,-4091,-15537,-1855,126,110,314
6,449,80803,-4038,-15605,-1889,129,116,315
6,450,80808,-3987,-15651,-1863,127,126,316
6,451,80813,-3960,-15702,-1957,124,130,316
6,452,80818,-3908,-15701,-1915,124,136,317
6,453,80823,-3878,-15703,-1885,119,139,318
6,454,80828,-3817,-15734,-1898,118,145,318
6,455,80833,-3761,-15729,-1893,116,155,320
6,456,80838,-3727,-15734,-1874,113,154,322
6,457,80843,-3691,-15752,-1841,116,144,320
6,458,80848,-3685,-15698,-1873,111,130,323
6,459,80853,-3681,-15691,-1905,111,121,325
6,460,80858,-3678,-15692,-1883,111,120,327
6,461,80863,-3722,-15742,-1885,109,119,325
6,462,80868,-3691,-15731,-1891,108,118,325
6,463,80873,-3679,-15671,-1928,106,116,325
6,464,80878,-3684,-15627,-1927,106,116,325
6,465,80883,-3706,-15606,-1957,105,119,323
6,466,80888,-3717,-15605,-1988,105,125,322
6,467,80893,-3667,-15608,-2004,106,137,317
6,468,80898,-3696,-15583,-2011,103,156,317
6,469,80903,-3756,-15593,-1940,99,162,314
6,470,80908,-3714,-15574,-1961,100,165,310
6,471,80913,-3714,-15650,-1947,102,168,307
6,472,80918,-3708,-15721,-1882,99,176,303
6,473,80923,-3806,-15699,-1767,98,172,296
6,474,80928,-3894,-15705,-1804,95,149,296
6,475,80933,-3922,-15723,-1801,90,122,291
6,476,80938,-3939,-15741,-1812,93,90,290
6,477,80943,-4015,-15723,-1748,91,51,283
6,478,80948,-4212,-15733,-1766,87,12,277
6,479,80953,-4174,-15683,-2005,90,-27,275
6,480,80958,-4208,-15612,-2119,92,-35,265
6,481,80963,-4398,-15563,-2104,90,-30,254
6,482,80968,-4391,-15547,-2248,88,-16,247
6,483,80973,-4348,-15574,-2391,92,15,238
6,484,80978,-4304,-15518,-2427,90,65,222
6,485,80983,-4388,-15485,-2337,91,115,211
6,486,80988,-4500,-15402,-2365,87,151,201
6,487,80993,-4471,-15340,-2348,84,186,186
6,488,80998,-4391,-15339,-2199,84,217,177
6,489,81003,-4376,-15338,-2070,81,239,165
6,490,81008,-4413,-15312,-1926,82,238,155
6,491,81013,-4488,-15223,-1769,80,225,145
6,492,81018,-4574,-15205,-1758,74,195,135
6,493,81023,-4574,-15179,-1713,73,157,128
6,494,81028,-4619,-15226,-1673,70,121,121
6,495,81033,-4601,-15258,-1660,66,85,110
6,496,81038,-4644,-15330,-1700,64,50,99
6,497,81043,-4712,-15285,-1765,61,17,89
6,498,81048,-4757,-15247,-1805,57,-7,79
6,499,81053,-4872,-15242,-1841,56,-31,70
6,500,81058,-4909,-15306,-1982,50,-41,56
6,501,81063,-4920,-15369,-2121,48,-36,44
6,502,81068,-4939,-15410,-2211,45,-13,32
6,503,81073,-4913,-15386,-2144,42,14,17
6,504,81078,-4912,-15379,-2014,37,48,-11
6,505,81083,-4884,-15365,-1925,31,55,-23
6,506,81088,-4816,-15418,-1920,30,57,-33
6,507,81093,-4780,-15429,-1915,24,55,-48
6,508,81098,-4739,-15423,-1909,17,39,-57
6,509,81103,-4685,-15421,-1983,15,12,-68
6,510,81108,-4662,-15420,-2022,9,-14,-77
6,511,81113,-4730,-15440,-1950,5,-32,-87
6,512,81118,-4714,-15471,-1911,3,-48,-94
6,513,81123,-4667,-15523,-2003,-3,-55,-105
6,514,81128,-4552,-15516,-2040,-6,-53,-115
6,515,81133,-4500,-15549,-1940,-14,-46,-126
6,516,81138,-4420,-15591,-1764,-16,-48,-134
6,517,81143,-4348,-15638,-1801,-22,-56,-141
6,518,81148,-4253,-15620,-1800,-28,-60,-154
6,519,81153,-4205,-15616,-1733,-33,-63,-160
6,520,81158,-4228,-15608,-1823,-37,-67,-165
6,521,81163,-4209,-15588,-1911,-43,-79,-173
6,522,81168,-4155,-15573,-2047,-49,-89,-181
6,523,81173,-4090,-15639,-2164,-55,-96,-186
6,524,81178,-4017,-15726,-2285,-59,-107,-193
6,525,81183,-3821,-15816,-2347,-61,-111,-198
6,526,81188,-3618,-15975,-2433,-65,-115,-205
6,527,81193,-3487,-16124,-2490,-69,-113,-213
6,528,81198,-3295,-16246,-2481,-70,-107,-218
6,529,81203,-3139,-16331,-2511,-78,-97,-224
6,530,81208,-3197,-16389,-2501,-84,-87,-232
6,531,81213,-3097,-16292,-2424,-87,-81,-236
6,532,81218,-2965,-16206,-2327,-92,-73,-243
6,533,81223,-2904,-16209,-2058,-97,-72,-247
6,534,81228,-2830,-16151,-1883,-101,-76,-251
6,535,81233,-2680,-16104,-2026,-104,-86,-255
6,536,81238,-2498,-16029,-2092,-110,-96,-259
6,537,81243,-2454,-15979,-1993,-118,-111,-266
6,538,81248,-2327,-16003,-2057,-125,-139,-264
6,539,81253,-2170,-16171,-2226,-128,-164,-267
6,540,81258,-2122,-16331,-2342,-137,-168,-275
6,541,81263,-2081,-16418,-2399,-140,-159,-282
6,542,81268,-1938,-16425,-2517,-143,-147,-289
6,543,81273,-1902,-16402,-2693,-146,-126,-297
6,544,81278,-1848,-16475,-2698,-153,-109,-303
6,545,81283,-1777,-16523,-2700,-159,-99,-312
6,546,81288,-1625,-16674,-2726,-161,-82,-319
6,547,81293,-1600,-16745,-2689,-167,-67,-329
6,548,81298,-1617,-16705,-2647,-171,-57,-338
6,549,81303,-1625,-16658,-2737,-178,-56,-346
6,550,81308,-1663,-16580,-3012,-183,-61,-357
6,551,81313,-1670,-16563,-3116,-186,-45,-368
6,552,81318,-1727,-16574,-3159,-190,-23,-380
6,553,81323,-1763,-16568,-3092,-196,3,-393
6,554,81328,-1722,-16541,-3042,-201,23,-405
6,555,81333,-1752,-16513,-2979,-200,50,-419
6,556,81338,-1825,-16592,-2849,-204,81,-436
6,557,81343,-1823,-16651,-2765,-208,98,-451
6,558,81348,-1814,-16582,-2733,-216,103,-466
6,559,81353,-1899,-16553,-2753,-220,100,-481
6,560,81358,-1958,-16498,-2861,-224,89,-495
6,561,81363,-1939,-16510,-2920,-228,79,-511
6,562,81368,-2024,-16586,-2950,-233,68,-526
6,563,81373,-2237,-16568,-2853,-237,54,-543
6,564,81378,-2200,-16584,-2992,-240,31,-559
6,565,81383,-2164,-16705,-3113,-246,24,-577
6,566,81388,-2176,-16766,-3013,-249,18,-592
6,567,81393,-2235,-16800,-2910,-253,-7,-609
6,568,81398,-2281,-16893,-3023,-257,-39,-627
6,569,81403,-2478,-16998,-3093,-260,-52,-643
6,570,81408,-2545,-17104,-3018,-265,-51,-664
6,571,81413,-2591,-17133,-2916,-271,-45,-680
6,572,81418,-2695,-17082,-2661,-276,-54,-698
6,573,81423,-2624,-17016,-2727,-281,-78,-716
6,574,81428,-2550,-17005,-2539,-286,-100,-732
6,575,81433,-2562,-17099,-2308,-291,-134,-745
6,576,81438,-2681,-17209,-2322,-298,-180,-760
6,577,81443,-2678,-17197,-2242,-312,-252,-788
6,578,81448,-2859,-17143,-2258,-316,-280,-804
6,579,81453,-3030,-17154,-2487,-323,-301,-818
6,580,81458,-3047,-17115,-2636,-332,-312,-832
6,581,81463,-3092,-17082,-2585,-338,-318,-848
6,582,81468,-3225,-17040,-2526,-345,-323,-864
6,583,81473,-3344,-17012,-2648,-349,-325,-879
6,584,81478,-3429,-16984,-2916,-352,-305,-894
6,585,81483,-3432,-16925,-3018,-357,-265,-913
6,586,81488,-3501,-16934,-2855,-364,-230,-928
6,587,81493,-3579,-16993,-2691,-368,-221,-946
6,588,81498,-3628,-16956,-2707,-369,-224,-961
6,589,81503,-3610,-16916,-2955,-374,-215,-975
6,590,81508,-3667,-16932,-2889,-376,-194,-989
6,591,81513,-3760,-16890,-2628,-382,-188,-1004
6,592,81518,-3860,-16809,-2558,-387,-203,-1019
6,593,81523,-4044,-16700,-2630,-390,-211,-1034
6,594,81528,-4308,-16599,-2636,-390,-209,-1044
6,595,81533,-4428,-16464,-2573,-391,-208,-1053
6,596,81538,-4519,-16334,-2501,-392,-217,-1061
6,597,81543,-4532,-16226,-2581,-393,-235,-1064
6,598,81548,-4252,-12578,-2857,-393,-233,-1072
6,599,81553,6012,-10460,-4540,-385,-314,-1130
6,600,81558,-24786,3193,20329,-427,423,-1205
6,601,81563,1883,-15744,-12930,-211,-2050,-120
6,602,81568,4119,-17109,-18155,-296,-688,-484
6,603,81573,-7471,-18416,3311,-245,2327,-1166
6,604,81578,-2020,-17952,1040,-314,376,-867
6,605,81583,-2128,-14075,2001,-303,-503,-705
6,606,81588,-4152,-14668,-3344,-311,-699,-775
6,607,81593,-4439,-17037,-2271,-293,-263,-775
6,608,81598,-5876,-16873,470,-316,195,-796
6,609,81603,-2894,-15552,495,-306,-153,-753
6,610,81608,-2764,-16235,-3191,-300,-454,-721
6,611,81613,-5174,-15774,-4004,-305,-276,-790
6,612,81618,-5742,-15712,-1644,-308,-34,-741
6,613,81623,-4826,-15237,-297,-316,10,-716
6,614,81628,-3779,-15488,-477,-307,-146,-694
6,615,81633,-3892,-16199,-2398,-301,-257,-676
6,616,81638,-4096,-16127,-2728,-300,-174,-674
6,617,81643,-3904,-15934,-1657,-292,-88,-649
6,618,81648,-3906,-15755,-885,-283,-142,-629
6,619,81653,-3884,-15862,-1540,-272,-317,-598
6,620,81658,-4014,-16033,-2734,-274,-402,-564
6,621,81663,-3870,-15967,-3205,-272,-323,-543
6,622,81668,-3726,-15913,-2572,-259,-189,-521
6,623,81673,-3607,-15906,-2255,-249,-161,-500
6,624,81678,-3425,-15941,-2697,-236,-189,-469
6,625,81683,-3245,-15998,-3221,-224,-159,-440
6,626,81688,-3191,-15930,-3028,-218,-66,-418
6,627,81693,-3208,-15941,-2535,-212,-12,-395
6,628,81698,-3199,-15790,-2424,-202,-27,-369
6,629,81703,-3252,-15709,-2753,-191,-55,-340
6,630,81708,-3289,-15710,-2992,-182,-32,-313
6,631,81713,-3361,-15633,-2926,-169,22,-292
6,632,81718,-3353,-15501,-2801,-156,54,-267
6,633,81723,-3276,-15475,-2993,-144,57,-240
6,634,81728,-3171,-15561,-3282,-135,75,-214
6,635,81733,-3094,-15577,-3292,-128,119,-196
6,636,81738,-3079,-15605,-3059,-117,164,-175
6,637,81743,-2974,-15675,-3011,-106,183,-153
6,638,81748,-2845,-15759,-3080,-97,196,-132
6,639,81753,-2733,-15886,-3019,-85,220,-112
6,640,81758,-2619,-15931,-2831,-77,243,-95
6,641,81763,-2567,-15943,-2641,-71,246,-77
6,642,81768,-2423,-15910,-2645,-63,228,-55
6,643,81773,-2396,-15890,-2555,-57,218,-37
6,644,81778,-2339,-15872,-2409,-52,210,-17
6,645,81783,-2237,-15812,-2256,-44,210,2
6,646,81788,-2023,-15784,-2317,-40,199,18
6,647,81793,-1872,-15722,-2402,-34,178,32
6,648,81798,-1876,-15726,-2369,-31,169,46
6,649,81803,-1926,-15724,-2370,-29,159,56
6,650,81808,-2027,-15639,-2606,-18,131,83
6,651,81813,-2021,-15614,-2880,-10,127,92
6,652,81818,-1975,-15634,-3018,-9,133,99
6,653,81823,-1925,-15659,-3088,-7,135,105
6,654,81828,-1840,-15604,-3163,-1,139,111
6,655,81833,-1811,-15523,-3159,3,146,117
6,656,81838,-1779,-15554,-3432,7,144,121
6,657,81843,-1761,-15542,-3398,12,160,123
6,658,81848,-1768,-15523,-3176,17,174,124
6,659,81853,-1832,-15521,-3139,23,186,124
6,660,81858,-1805,-15509,-3155,28,191,126
6,661,81863,-1805,-15479,-3137,32,200,129
6,662,81868,-1652,-15448,-3085,35,206,131
6,663,81873,-1505,-15465,-3087,36,195,127
6,664,81878,-1459,-15503,-3117,40,179,130
6,665,81883,-1344,-15517,-3186,41,173,132
6,666,81888,-1317,-15676,-3194,40,170,132
6,667,81893,-1313,-15831,-3121,42,177,129
6,668,81898,-1419,-15862,-3178,45,189,126
6,669,81903,-1530,-15863,-3185,46,187,123
6,670,81908,-1491,-15866,-3166,45,177,119
6,671,81913,-1414,-15871,-3114,44,159,120
6,672,81918,-1394,-15921,-3187,48,135,119
6,673,81923,-1305,-15987,-3403,51,111,116
6,674,81928,-1304,-16012,-3476,50,105,110
6,675,81933,-1328,-16107,-3599,54,115,112
6,676,81938,-1206,-16162,-3778,58,135,108
6,677,81943,-1090,-16182,-4083,57,169,102
6,678,81948,-1220,-16198,-4117,56,218,94
6,679,81953,-1362,-16128,-3908,60,260,87
6,680,81958,-1380,-15997,-3793,60,296,86
6,681,81963,-1308,-15975,-3587,60,336,79
6,682,81968,-1173,-16029,-3266,60,366,75
6,683,81973,-964,-16040,-3056,59,363,73
6,684,81978,-834,-16082,-2960,58,342,71
6,685,81983,-767,-16080,-2980,59,313,70
6,686,81988,-762,-16073,-3013,54,283,69
6,687,81993,-783,-16058,-2881,47,249,65
6,688,81998,-832,-16012,-2883,43,204,64
6,689,82003,-864,-16060,-3018,43,163,64
6,690,82008,-878,-16072,-3013,38,142,64
6,691,82013,-931,-16149,-3120,37,121,62
6,692,82018,-967,-16171,-3249,34,112,59
6,693,82023,-864,-16200,-3277,33,103,58
6,694,82028,-902,-16246,-3340,30,94,53
6,695,82033,-904,-16243,-3497,31,85,48
6,696,82038,-974,-16217,-3518,30,88,44
6,697,82043,-963,-16167,-3655,27,93,43
6,698,82048,-838,-16097,-3677,26,106,37
6,699,82053,-823,-16104,-3637,24,109,33
6,700,82058,-845,-16014,-3521,23,103,30
6,701,82063,-786,-16037,-3531,20,84,30
6,702,82068,-681,-16006,-3577,18,78,26
6,703,82073,-689,-15996,-3460,18,83,23
6,704,82078,-790,-15956,-3304,20,79,21
6,705,82083,-812,-15917,-3274,18,65,19
6,706,82088,-771,-15903,-3293,12,46,19
6,707,82093,-761,-15924,-3371,16,34,16
6,708,82098,-711,-15899,-3373,14,23,11
6,709,82103,-716,-15887,-3248,10,11,12
6,710,82108,-733,-15868,-3273,11,-12,13
6,711,82113,-719,-15848,-3404,12,-32,11
6,712,82118,-698,-15832,-3495,13,-41,10
6,713,82123,-623,-15876,-3554,13,-47,8
6,714,82128,-601,-15972,-3599,13,-53,6
6,715,82133,-579,-16025,-3651,10,-54,7
6,716,82138,-588,-16044,-3645,8,-51,2
6,717,82143,-665,-16050,-3615,8,-46,1
6,718,82148,-723,-16028,-3606,12,-45,2
6,719,82153,-743,-16081,-3675,11,-37,0
6,720,82158,-757,-16075,-3810,12,-28,-2
6,721,82163,-768,-16104,-3864,10,-20,-2
6,722,82168,-718,-16089,-3769,11,-11,-2
6,723,82173,-691,-16097,-3698,15,-12,-7
6,724,82178,-679,-16053,-3691,17,-4,-8
6,725,82183,-681,-16070,-3715,16,5,-9
6,726,82188,-616,-16057,-3664,18,15,-10
6,727,82193,-664,-16061,-3661,19,17,-11
6,728,82198,-697,-16084,-3578,19,8,-12
6,729,82203,-784,-16020,-3540,18,0,-13
6,730,82208,-857,-15967,-3485,20,-5,-15
6,731,82213,-775,-15956,-3520,20,-11,-13
6,732,82218,-693,-16009,-3484,19,-23,-13
6,733,82223,-675,-15983,-3462,20,-36,-13
6,734,82228,-639,-15994,-3468,21,-58,-11
6,735,82233,-711,-15988,-3509,19,-76,-13
6,736,82238,-721,-15965,-3582,20,-85,-14
6,737,82243,-648,-15960,-3701,20,-81,-9
6,738,82248,-613,-16012,-3756,22,-73,-11
6,739,82253,-577,-16104,-3788,23,-64,-15
6,740,82258,-601,-16051,-3820,24,-62,-16
6,741,82263,-629,-16031,-3810,23,-55,-16
6,742,82268,-669,-16096,-3760,26,-47,-16
6,743,82273,-638,-16089,-3787,25,-38,-16
6,744,82278,-568,-16057,-3758,22,-26,-15
6,745,82283,-567,-15999,-3694,24,-20,-17
6,746,82288,-574,-15962,-3601,25,-25,-16
6,747,82293,-662,-15933,-3622,26,-27,-14
6,748,82298,-647,-15957,-3670,24,-21,-13
6,749,82303,-630,-15918,-3650,24,-6,-12
6,750,82308,-655,-15900,-3596,27,9,-13
6,751,82313,-654,-15894,-3601,28,9,-13
6,752,82318,-726,-15828,-3507,24,9,-16
6,753,82323,-803,-15824,-3491,25,8,-15
6,754,82328,-756,-15865,-3575,24,9,-11
6,755,82333,-703,-15852,-3572,26,8,-11
6,756,82338,-720,-15867,-3539,24,0,-9
6,757,82343,-718,-15957,-3567,25,-12,-10
6,758,82348,-753,-15983,-3618,24,-16,-12
6,759,82353,-752,-15976,-3675,21,-14,-13
6,760,82358,-764,-16006,-3611,23,-13,-11
6,761,82363,-792,-15992,-3632,24,-12,-9
6,762,82368,-747,-16006,-3675,24,-19,-9
6,763,82373,-708,-16057,-3615,21,-25,-10
6,764,82378,-749,-15990,-3601,25,-34,-6
6,765,82383,-789,-16003,-3676,24,-45,-5
6,766,82388,-804,-16030,-3720,25,-55,-4
6,767,82393,-853,-16012,-3745,25,-50,-4
6,768,82398,-863,-16023,-3710,26,-44,-5
6,769,82403,-853,-16026,-3750,29,-42,-4
6,770,82408,-862,-16058,-3798,29,-36,0
6,771,82413,-864,-16099,-3845,31,-27,-2
6,772,82418,-880,-16134,-3793,31,-9,-1
6,773,82423,-869,-16171,-3753,32,5,-3
6,774,82428,-897,-16116,-3607,30,10,-5
6,775,82433,-855,-16055,-3568,28,12,-5
6,776,82438,-856,-16000,-3519,29,13,-4
6,777,82443,-914,-15997,-3434,30,12,-4
6,778,82448,-892,-16004,-3380,30,10,-2
6,779,82453,-866,-16024,-3367,29,4,-1
6,780,82458,-829,-15986,-3412,30,-4,1
6,781,82463,-810,-15972,-3439,29,-10,-1
6,782,82468,-854,-15986,-3425,28,-23,2
6,783,82473,-841,-15985,-3427,24,-30,4
6,784,82478,-854,-15940,-3546,25,-30,0
6,785,82483,-934,-15953,-3499,23,-16,2
6,786,82488,-926,-15949,-3427,19,-4,2
6,787,82493,-841,-15914,-3416,20,0,3
6,788,82498,-799,-15971,-3393,19,3,4
6,789,82503,-814,-16006,-3402,17,6,4
6,790,82508,-790,-16032,-3382,13,8,3
6,791,82513,-862,-16008,-3334,13,9,4
6,792,82518,-927,-16025,-3430,11,12,2
6,793,82523,-962,-16024,-3459,12,13,1
6,794,82528,-894,-16046,-3432,12,11,5
6,795,82533,-859,-16065,-3495,9,4,3
6,796,82538,-854,-15991,-3560,10,-6,6
6,797,82543,-961,-16023,-3597,7,-5,4
6,798,82548,-1007,-16026,-3607,8,-4,1
6,799,82553,-996,-16025,-3619,7,-9,2
6,800,82558,-916,-16043,-3634,5,-12,4
6,801,82563,-887,-16071,-3540,7,-9,1
6,802,82568,-918,-16062,-3479,7,-15,0
6,803,82573,-890,-16055,-3486,3,-23,3
6,804,82578,-823,-16037,-3539,6,-20,6
6,805,82583,-793,-16083,-3512,6,-13,3
6,806,82588,-776,-16087,-3431,2,-9,0
6,807,82593,-711,-16114,-3469,6,-12,0
6,808,82598,-632,-16138,-3545,4,-16,3
6,809,82603,-703,-16119,-3503,-1,-13,4
6,810,82608,-771,-16077,-3449,1,-12,1
6,811,82613,-745,-16015,-3510,1,-21,1
6,812,82618,-756,-15991,-3628,-1,-21,5
6,813,82624,-761,-16021,-3623,-2,-12,5
6,814,82630,-765,-16026,-3600,0,-12,7
6,815,82636,-705,-15987,-3537,-1,-13,6
6,816,82642,-768,-16033,-3461,0,-23,8
6,817,82648,-714,-16016,-3512,-3,-25,6
6,818,82654,-712,-16026,-3550,-5,-28,9
6,819,82660,-701,-16102,-3556,-4,-29,10
6,820,82666,-666,-16134,-3540,-4,-25,9
6,821,82672,-688,-16071,-3513,-6,-22,9
6,822,82678,-778,-16055,-3485,-6,-21,11
6,823,82684,-735,-16047,-3490,-8,-22,12
6,824,82690,-685,-16063,-3434,-7,-24,16
6,825,82696,-708,-16041,-3360,-6,-29,16
6,826,82702,-741,-16021,-3380,-11,-42,16
6,827,82708,-788,-16014,-3380,-12,-43,18
6,828,82714,-861,-16031,-3318,-12,-43,17
6,829,82719,-933,-15988,-3319,-13,-45,17
6,830,82725,-1015,-15973,-3432,-13,-28,20
6,831,82731,-1029,-15971,-3385,-14,-17,19
6,832,82740,-907,-15956,-3291,-16,-32,17
6,833,82746,-880,-15976,-3352,-17,-35,18
6,834,82752,-890,-15986,-3469,-17,-32,19
6,835,82758,-859,-15992,-3434,-18,-31,17
6,836,82764,-854,-15990,-3439,-16,-39,17
6,837,82770,-830,-15989,-3497,-17,-40,20
6,838,82776,-796,-15985,-3443,-18,-34,22
6,839,82782,-802,-15989,-3411,-18,-27,21
6,840,82788,-843,-16018,-3421,-19,-27,19
6,841,82793,-833,-16033,-3441,-19,-30,20
6,842,82799,-884,-15896,-3441,-17,-25,22
6,843,82805,-934,-15919,-3469,-18,-20,18
6,844,82811,-939,-15939,-3483,-16,-17,20
6,845,82817,-923,-15915,-3517,-16,-16,22
6,846,82823,-902,-15910,-3565,-18,-14,19
6,847,82829,-960,-15881,-3480,-15,-15,17
6,848,82835,-960,-15911,-3513,-17,-18,19
6,849,82841,-925,-15891,-3508,-16,-15,21
6,850,82847,-819,-15953,-3518,-14,-10,20
6,851,82853,-811,-15970,-3476,-13,-6,17
6,852,82858,-921,-16040,-3427,-11,-18,17
6,853,82864,-895,-16020,-3490,-12,-21,18
6,854,82870,-865,-16024,-3430,-9,-19,18
6,855,82876,-824,-16046,-3369,-13,-22,21
6,856,82882,-816,-16100,-3371,-11,-32,18
6,857,82888,-747,-16150,-3565,-10,-47,22
6,858,82894,-671,-16154,-3581,-9,-44,22
6,859,82900,-743,-16167,-3598,-9,-48,21
6,860,82906,-776,-16113,-3619,-9,-51,20
6,861,82912,-824,-16113,-3643,-8,-38,20
6,862,82918,-872,-16057,-3533,-4,-3,21
6,863,82924,-817,-16027,-3544,-4,5,19
6,864,82930,-838,-15991,-3547,1,5,22
6,865,82936,-852,-16014,-3515,0,5,22
6,866,82942,-759,-16006,-3559,-2,-1,24
6,867,82948,-823,-16027,-3555,-1,-11,24
6,868,82954,-758,-16046,-3619,-1,-13,23
6,869,82960,-717,-15964,-3663,-1,-8,21
6,870,82965,-806,-15978,-3700,4,3,21
6,871,82971,-858,-15936,-3680,2,12,20
6,872,82977,-901,-15987,-3738,2,34,19
6,873,82983,-821,-15953,-3642,4,49,17
6,874,82989,-858,-15954,-3472,8,57,17
6,875,82995,-843,-15982,-3422,7,58,18
6,876,83001,-818,-16036,-3482,7,46,18
6,877,83007,-832,-16075,-3360,3,34,15
6,878,83013,-917,-16076,-3332,7,26,16
6,879,83019,-900,-16055,-3428,7,20,17
6,880,83025,-947,-16047,-3402,8,19,18
6,881,83031,-893,-16073,-3473,6,16,18
6,882,83037,-908,-16108,-3432,5,14,13
6,883,83043,-904,-16103,-3398,4,6,12
6,884,83049,-962,-16106,-3390,4,2,10
6,885,83055,-975,-16062,-3436,7,2,10
6,886,83061,-871,-16026,-3460,6,4,11
6,887,83067,-835,-16077,-3487,4,2,10
6,888,83073,-887,-16087,-3462,6,-3,10
6,889,83079,-873,-16037,-3505,5,-3,9
6,890,83084,-965,-15988,-3608,3,4,5
6,891,83090,-1055,-16001,-3594,4,26,4
6,892,83096,-1041,-15978,-3567,6,34,2
6,893,83102,-922,-16005,-3540,5,32,1
6,894,83108,-907,-16006,-3480,6,27,2
6,895,83114,-895,-15988,-3443,6,23,0
6,896,83120,-896,-15969,-3491,4,6,1
6,897,83126,-855,-15944,-3492,4,2,0
6,898,83132,-866,-15972,-3441,4,-4,-5
6,899,83138,-897,-16009,-3410,4,-10,-3
6,900,83144,-941,-15988,-3506,3,-16,-3
6,901,83150,-898,-15974,-3524,3,-21,-5
6,902,83156,-919,-15926,-3461,2,-29,-5
6,903,83162,-879,-15969,-3425,-1,-40,-3
6,904,83168,-822,-16052,-3480,2,-47,-3
6,905,83174,-795,-16122,-3522,4,-49,-5
6,906,83180,-819,-16094,-3572,1,-58,-3
6,907,83186,-819,-16036,-3755,2,-58,-5
6,908,83191,-866,-16045,-3753,2,-44,-5
6,909,83197,-848,-16085,-3663,1,-24,-8
6,910,83203,-886,-16076,-3565,2,-8,-9
6,911,83209,-810,-16056,-3487,-2,2,-7
6,912,83215,-779,-16096,-3480,-4,11,-8
6,913,83221,-745,-16072,-3401,-5,8,-7
6,914,83227,-795,-16055,-3345,-4,-6,-6
6,915,83233,-828,-16021,-3398,-4,-17,-8
6,916,83239,-825,-15990,-3517,-5,-15,-4
6,917,83245,-847,-16028,-3465,-7,-10,-6
6,918,83251,-832,-16024,-3420,-9,-9,-8
6,919,83257,-839,-16003,-3502,-11,-7,-6
6,920,83263,-821,-16034,-3516,-13,2,-6
6,921,83269,-843,-16102,-3430,-13,3,-3
6,922,83275,-848,-16060,-3415,-17,-6,-4
6,923,83281,-883,-16023,-3446,-18,-7,-3
6,924,83286,-929,-16040,-3444,-13,-6,-4
6,925,83292,-989,-16028,-3475,-15,-5,-7
6,926,83298,-940,-16022,-3580,-18,-8,-4
6,927,83304,-918,-16047,-3585,-18,-9,-6
6,928,83310,-877,-16068,-3506,-18,-8,-4
6,929,83316,-866,-16100,-3491,-19,-12,-4
6,930,83322,-896,-16056,-3495,-20,-16,-5
6,931,83328,-948,-15993,-3529,-17,-5,-6
6,932,83334,-918,-16011,-3447,-17,-2,-4
6,933,83340,-913,-16025,-3425,-17,-12,-2
6,934,83346,-962,-16003,-3477,-20,-21,-5
6,935,83352,-936,-15944,-3556,-19,-18,-3
6,936,83358,-998,-15987,-3503,-19,-18,-2
6,937,83364,-967,-16017,-3534,-16,-24,-2
6,938,83370,-998,-16082,-3520,-17,-27,-6
6,939,83375,-965,-16076,-3499,-18,-31,-5
6,940,83381,-861,-16042,-3588,-16,-30,-2
6,941,83387,-922,-16025,-3583,-18,-31,-3
6,942,83393,-913,-15977,-3614,-16,-37,-5
6,943,83399,-941,-15975,-3646,-18,-39,-2
6,944,83405,-965,-15973,-3705,-14,-29,-2
6,945,83411,-895,-16029,-3618,-10,-12,-4
6,946,83417,-930,-16032,-3550,-11,-9,-2
6,947,83423,-935,-15987,-3551,-13,-5,-6
6,948,83429,-961,-16007,-3557,-9,-1,-7
6,949,83435,-961,-16017,-3517,-9,5,-6
6,950,83441,-951,-16057,-3473,-7,8,-6
6,951,83447,-923,-16019,-3420,-4,9,-7
6,952,83453,-923,-16050,-3398,-5,9,-5
6,953,83459,-939,-16007,-3337,-1,6,-3
6,954,83465,-987,-15998,-3354,-2,-2,-4
6,955,83471,-995,-16089,-3505,-4,-14,-4
6,956,83477,-978,-16033,-3605,-3,-22,-5
6,957,83483,-1014,-16002,-3629,-5,-28,-7
6,958,83488,-1047,-15967,-3630,-4,-33,-4
6,959,83494,-1069,-15939,-3666,-4,-36,-4
6,960,83500,-1028,-15992,-3690,0,-16,-9
6,961,83506,-991,-15989,-3646,3,-2,-8
6,962,83512,-984,-15930,-3567,5,8,-9
6,963,83518,-967,-15908,-3516,3,4,-7
6,964,83524,-938,-15915,-3464,7,0,-9
6,965,83530,-939,-16016,-3471,3,-5,-3
6,966,83536,-917,-15990,-3398,4,-8,-4
6,967,83542,-937,-15983,-3338,7,-12,-5
6,968,83548,-934,-15958,-3346,4,-16,-3
6,969,83554,-959,-15967,-3367,5,-19,-2
6,970,83560,-951,-15975,-3447,7,-18,0
6,971,73413,-2574,-15924,-2906,9,-12,-2
6,972,73418,-2582,-15925,-2886,9,-8,-3
6,973,73423,-2643,-15909,-2820,9,-8,-5
6,974,73428,-2711,-15901,-2901,9,-10,-4
6,975,73433,-2665,-15917,-2955,11,-6,-4
6,976,73438,-2625,-15942,-2936,10,-1,-2
6,977,73443,-2622,-15934,-2906,12,0,-1
6,978,73448,-2600,-15960,-2871,11,1,1
6,979,73453,-2557,-15923,-2945,12,2,-1
6,980,73458,-2558,-15917,-2935,13,-3,-1
6,981,73463,-2593,-15894,-2905,14,-2,-2
6,982,73468,-2663,-15872,-2878,15,-5,0
6,983,73473,-2684,-15900,-2910,15,-5,1
6,984,73478,-2691,-15844,-2910,16,-6,-1
6,985,73483,-2662,-15881,-2883,18,-3,1
6,986,73488,-2646,-15872,-2878,18,-2,1
6,987,73493,-2685,-15862,-2874,18,-4,-1
6,988,73498,-2651,-15868,-2949,22,-8,0
6,989,73503,-2678,-15896,-2942,18,-9,0
6,990,73508,-2644,-15904,-2918,19,-11,-1
6,991,73513,-2624,-15895,-2955,22,-13,0
6,992,73518,-2606,-15893,-2973,22,-13,0
6,993,73523,-2604,-15912,-3000,23,-6,-3
6,994,73528,-2627,-15895,-2970,22,-1,-4
6,995,73533,-2617,-15926,-2953,24,-2,-4
6,996,73538,-2657,-15894,-2933,26,-5,-2
6,997,73543,-2620,-15904,-2996,27,0,-2
6,998,73548,-2637,-15920,-3034,27,4,-5
6,999,73553,-2681,-15933,-3050,31,7,-4
