event_id,seq,ts_ms,ax,ay,az,gx,gy,gz
1,0,19662,-2364,-16111,-1985,4,-8,-5
1,1,19667,-2350,-16127,-1989,2,-6,-3
1,2,19672,-2348,-16099,-1992,2,-5,-2
1,3,19677,-2342,-16137,-1976,3,-4,-5
1,4,19682,-2335,-16131,-1957,4,-7,-6
1,5,19687,-2352,-16145,-1959,1,-7,-4
1,6,19692,-2355,-16140,-2029,0,-11,-3
1,7,19697,-2321,-16141,-2026,2,-9,-4
1,8,19702,-2346,-16131,-1985,2,-9,-5
1,9,19707,-2350,-16133,-1994,1,-8,-5
1,10,19712,-2340,-16135,-1997,1,-8,-5
1,11,19717,-2355,-16119,-2007,3,-9,-4
1,12,19722,-2332,-16155,-1996,2,-8,-3
1,13,19727,-2349,-16129,-1966,3,-8,-5
1,14,19732,-2355,-16137,-1966,2,-8,-3
1,15,19737,-2328,-16148,-1999,3,-7,-2
1,16,19742,-2380,-16164,-1995,5,-8,-3
1,17,19747,-2394,-16118,-1994,3,-9,-2
1,18,19752,-2327,-16141,-1997,0,-9,-2
1,19,19757,-2322,-16155,-1987,0,-7,-4
1,20,19762,-2375,-16106,-1967,2,-7,-2
1,21,19767,-2351,-16181,-1975,4,-8,-3
1,22,19772,-2328,-16150,-1970,3,-8,-5
1,23,19777,-2341,-16115,-1998,2,-8,-2
1,24,19782,-2362,-16134,-2012,2,-6,-6
1,25,19787,-2387,-16121,-1981,3,-7,-4
1,26,19792,-2338,-16152,-1993,1,-8,-3
1,27,19797,-2350,-16121,-2065,3,-8,-4
1,28,19802,-2322,-16099,-2017,4,-8,-1
1,29,19807,-2346,-16127,-2005,3,-9,-1
1,30,19812,-2326,-16118,-2015,1,-11,-3
1,31,19817,-2347,-16112,-2007,4,-8,-2
1,32,19822,-2346,-16122,-2001,3,-6,-3
1,33,19827,-2394,-16122,-2029,0,-9,-2
1,34,19832,-2328,-16132,-2001,1,-8,-2
1,35,19837,-2316,-16131,-1986,3,-10,-3
1,36,19842,-2340,-16112,-1953,1,-9,-5
1,37,19847,-2316,-16125,-2032,2,-9,-5
1,38,19852,-2322,-16128,-1994,0,-9,-3
1,39,19857,-2350,-16172,-2004,1,-8,-4
1,40,19862,-2313,-16121,-1989,4,-7,-4
1,41,19867,-2328,-16146,-1964,3,-8,-4
1,42,19872,-2362,-16140,-1944,2,-7,-3
1,43,19877,-2331,-16124,-2026,0,-7,-5
1,44,19882,-2338,-16127,-2051,2,-9,-3
1,45,19887,-2355,-16152,-2006,4,-8,-2
1,46,19892,-2363,-16134,-1994,3,-6,-3
1,47,19897,-2356,-16134,-1989,1,-7,-1
1,48,19902,-2332,-16130,-1944,3,-8,-2
1,49,19907,-2350,-16123,-2006,1,-8,-2
1,50,19912,-2339,-16105,-1980,1,-6,-4
1,51,19917,-2332,-16152,-1966,3,-8,-2
1,52,19922,-2312,-16133,-2016,0,-6,-5
1,53,19927,-2335,-16116,-1993,1,-6,-2
1,54,19932,-2307,-16118,-2015,3,-8,-3
1,55,19937,-2309,-16129,-2010,4,-9,-4
1,56,19942,-2408,-16118,-2030,1,-6,-3
1,57,19947,-2367,-16129,-2005,1,-6,-2
1,58,19952,-2343,-16128,-2027,0,-6,-3
1,59,19957,-2335,-16142,-1999,3,-6,-4
1,60,19962,-2350,-16137,-1978,1,-7,-5
1,61,19967,-2351,-16137,-2025,2,-9,-3
1,62,19972,-2324,-16116,-1993,0,-7,-3
1,63,19977,-2374,-16127,-1966,2,-7,-5
1,64,19982,-2368,-16137,-2033,4,-10,-4
1,65,19987,-2366,-16123,-2010,1,-9,-2
1,66,19992,-2335,-16164,-2005,2,-9,-3
1,67,19997,-2345,-16140,-1986,6,-8,-7
1,68,20002,-2346,-16103,-1969,5,-9,-2
1,69,20007,-2362,-16150,-2011,1,-7,-1
1,70,20012,-2339,-16085,-2029,1,-9,-3
1,71,20017,-2302,-16113,-1974,5,-8,-3
1,72,20022,-2338,-16148,-1999,4,-9,-4
1,73,20027,-2329,-16157,-2005,2,-9,-4
1,74,20032,-2360,-16101,-2012,4,-9,-4
1,75,20037,-2350,-16135,-2003,5,-8,-3
1,76,20042,-2385,-16124,-2027,3,-7,-5
1,77,20047,-2370,-16124,-1983,1,-8,-6
1,78,20052,-2345,-16115,-2030,4,-9,-4
1,79,20057,-2350,-16125,-2003,4,-8,-3
1,80,20062,-2330,-16131,-1997,2,-6,-3
1,81,20067,-2341,-16098,-1991,0,-6,-5
1,82,20072,-2382,-16128,-1992,0,-7,-4
1,83,20077,-2352,-16125,-1992,-2,-7,-3
1,84,20082,-2342,-16122,-1990,2,-6,-3
1,85,20087,-2361,-16137,-1995,1,-8,-1
1,86,20092,-2337,-16130,-2005,2,-7,-3
1,87,20097,-2326,-16110,-2010,4,-6,-3
1,88,20102,-2350,-16122,-2020,1,-8,-3
1,89,20107,-2324,-16135,-2027,-1,-6,-4
1,90,20112,-2365,-16145,-2023,2,-9,-4
1,91,20117,-2389,-16118,-1996,3,-9,-2
1,92,20122,-2332,-16145,-2017,4,-6,-3
1,93,20127,-2300,-16155,-2018,1,-7,-2
1,94,20132,-2348,-16136,-2017,1,-9,-5
1,95,20137,-2360,-16109,-2004,5,-8,-4
1,96,20142,-2368,-16153,-1997,4,-8,-3
1,97,20147,-2380,-16133,-1980,1,-8,-2
1,98,20152,-2374,-16157,-2001,3,-10,-1
1,99,20157,-2355,-16155,-2010,3,-8,-2
1,100,20162,-2341,-16128,-2039,2,-8,-2
1,101,20167,-2349,-16134,-2009,5,-5,-5
1,102,20172,-2395,-16170,-1995,2,-8,-4
1,103,20177,-2312,-16153,-2015,1,-7,-4
1,104,20182,-2309,-16115,-2026,2,-7,-4
1,105,20187,-2341,-16112,-2023,3,-8,-3
1,106,20192,-2347,-16142,-1997,2,-7,-2
1,107,20197,-2338,-16120,-1995,1,-8,-4
1,108,20202,-2340,-16147,-1967,1,-10,-5
1,109,20207,-2331,-16102,-1993,0,-8,-5
1,110,20212,-2312,-16146,-1993,3,-10,-2
1,111,20217,-2323,-16158,-1988,4,-8,-1
1,112,20222,-2349,-16098,-1972,6,-7,-3
1,113,20227,-2353,-16128,-1980,2,-9,-2
1,114,20232,-2341,-16142,-1962,1,-9,-2
1,115,20237,-2342,-16117,-1998,1,-7,-1
1,116,20242,-2365,-16120,-2021,3,-8,0
1,117,20247,-2382,-16158,-1971,1,-8,-2
1,118,20252,-2367,-16116,-2007,2,-8,-5
1,119,20257,-2366,-16110,-2004,5,-8,-4
1,120,20262,-2330,-16105,-2001,0,-6,-4
1,121,20267,-2344,-16134,-2005,1,-8,-3
1,122,20272,-2372,-16119,-1990,0,-8,-5
1,123,20277,-2315,-16144,-1955,3,-6,-3
1,124,20282,-2341,-16109,-1993,3,-8,-5
1,125,20287,-2361,-16144,-2018,-1,-8,-2
1,126,20292,-2376,-16167,-2016,1,-9,-2
1,127,20297,-2369,-16114,-2010,4,-8,-3
1,128,20302,-2333,-16135,-1973,2,-6,-2
1,129,20307,-2348,-16116,-2002,1,-9,-3
1,130,20312,-2392,-16126,-1982,3,-10,0
1,131,20317,-2364,-16166,-2026,1,-8,-2
1,132,20322,-2336,-16113,-2037,0,-8,-2
1,133,20327,-2356,-16094,-1971,2,-6,-2
1,134,20332,-2329,-16143,-2029,1,-8,-2
1,135,20337,-2332,-16134,-2028,1,-9,-3
1,136,20342,-2336,-16135,-1999,2,-8,-3
1,137,20347,-2338,-16156,-2006,4,-8,-2
1,138,20352,-2350,-16131,-1983,2,-9,-2
1,139,20357,-2310,-16132,-1993,1,-9,-4
1,140,20362,-2331,-16121,-1990,3,-11,-2
1,141,20367,-2346,-16152,-1997,3,-10,-3
1,142,20372,-2348,-16137,-2033,2,-8,-3
1,143,20377,-2357,-16127,-2064,2,-6,-2
1,144,20382,-2373,-16147,-1987,5,-7,-2
1,145,20387,-2352,-16161,-1999,4,-7,-1
1,146,20392,-2348,-16153,-1968,4,-8,0
1,147,20397,-2336,-16180,-2062,2,-8,-3
1,148,20402,-2333,-16116,-2043,1,-8,-3
1,149,20407,-2359,-16129,-1960,2,-6,-5
1,150,20412,-2348,-16110,-1969,2,-8,-3
1,151,20417,-2333,-16117,-1968,3,-9,-1
1,152,20422,-2352,-16128,-2000,3,-7,-4
1,153,20427,-2357,-16102,-1987,0,-6,-3
1,154,20432,-2356,-16136,-1957,1,-6,-4
1,155,20437,-2332,-16124,-2001,4,-4,-1
1,156,20442,-2347,-16125,-2006,2,-4,-1
1,157,20447,-2401,-16121,-1972,2,-6,-4
1,158,20452,-2346,-16156,-1952,4,-5,-3
1,159,20457,-2334,-16144,-1982,3,-10,-2
1,160,20462,-2331,-16143,-1964,1,-8,-1
1,161,20467,-2338,-16153,-2019,1,-7,-4
1,162,20472,-2354,-16161,-2024,2,-9,-4
1,163,20477,-2326,-16132,-2053,3,-8,-3
1,164,20482,-2330,-16131,-1996,2,-6,-6
1,165,20487,-2327,-16145,-1957,2,-7,-4
1,166,20492,-2352,-16133,-1971,2,-7,-3
1,167,20497,-2344,-16128,-2002,3,-9,-4
1,168,20502,-2342,-16128,-2036,-1,-9,-2
1,169,20507,-2316,-16119,-1959,0,-7,-2
1,170,20512,-2353,-16132,-1997,3,-9,-4
1,171,20517,-2367,-16133,-2017,3,-10,-3
1,172,20522,-2334,-16139,-2022,1,-7,-4
1,173,20527,-2349,-16136,-2035,2,-7,-6
1,174,20532,-2323,-16117,-2004,3,-6,-4
1,175,20537,-2311,-16136,-2020,4,-8,-3
1,176,20542,-2332,-16161,-1986,3,-8,-5
1,177,20547,-2337,-16142,-2014,2,-10,-4
1,178,20552,-2351,-16122,-1991,5,-9,-1
1,179,20557,-2382,-16107,-1995,3,-8,-5
1,180,20562,-2352,-16148,-2006,0,-9,-4
1,181,20567,-2345,-16161,-1980,3,-9,-3
1,182,20572,-2346,-16119,-2002,1,-8,-4
1,183,20577,-2315,-16120,-2036,2,-10,-1
1,184,20582,-2322,-16118,-2023,4,-8,-4
1,185,20587,-2333,-16101,-1972,5,-7,-3
1,186,20592,-2359,-16128,-1989,2,-7,-3
1,187,20597,-2350,-16126,-1972,2,-6,-4
1,188,20602,-2359,-16142,-2050,0,-7,-2
1,189,20607,-2306,-16118,-2023,1,-7,-5
1,190,20612,-2342,-16129,-1999,1,-8,-4
1,191,20617,-2359,-16142,-2013,3,-8,-3
1,192,20622,-2339,-16098,-1971,1,-9,-3
1,193,20627,-2346,-16113,-2002,2,-7,-4
1,194,20632,-2326,-16155,-2022,2,-6,-2
1,195,20637,-2347,-16123,-2013,3,-7,-2
1,196,20642,-2365,-16148,-1995,3,-7,-4
1,197,20647,-2329,-16148,-2028,1,-8,-4
1,198,20652,-2346,-16101,-1986,2,-8,-1
1,199,20657,-2330,-16096,-2013,1,-11,-2
1,200,20662,-2342,-16111,-2030,2,-9,-2
1,201,20667,-2379,-16160,-2016,-1,-7,-7
1,202,20672,-2351,-16139,-2009,0,-6,-4
1,203,20677,-2372,-16153,-1999,2,-6,-3
1,204,20682,-2343,-16140,-2028,2,-7,-3
1,205,20687,-2345,-16116,-2010,3,-7,-4
1,206,20692,-2382,-16105,-2030,2,-7,-4
1,207,20697,-2365,-16133,-1960,3,-6,-5
1,208,20702,-2362,-16144,-1984,0,-8,-4
1,209,20707,-2344,-16159,-2026,3,-7,-1
1,210,20712,-2354,-16133,-2036,3,-6,-3
1,211,20717,-2352,-16102,-1999,1,-7,-2
1,212,20722,-2371,-16128,-2034,2,-10,-3
1,213,20727,-2377,-16125,-2020,2,-7,-6
1,214,20732,-2313,-16116,-2007,2,-7,-3
1,215,20737,-2361,-16131,-1972,2,-11,-3
1,216,20742,-2330,-16139,-2017,3,-9,-2
1,217,20747,-2371,-16144,-2041,1,-9,-6
1,218,20752,-2333,-16112,-1994,3,-6,-6
1,219,20757,-2361,-16147,-2028,4,-4,-2
1,220,20762,-2361,-16164,-2026,3,-5,-4
1,221,20767,-2325,-16142,-2000,3,-10,-4
1,222,20772,-2352,-16121,-2048,3,-9,-4
1,223,20777,-2342,-16144,-1982,4,-8,-5
1,224,20782,-2321,-16147,-2031,3,-9,-3
1,225,20787,-2340,-16141,-2014,3,-9,-3
1,226,20792,-2356,-16155,-2003,2,-9,-3
1,227,20797,-2347,-16103,-1987,2,-7,-4
1,228,20802,-2319,-16094,-1982,2,-9,-4
1,229,20807,-2360,-16116,-2011,2,-9,-3
1,230,20812,-2372,-16163,-1986,1,-9,-2
1,231,20817,-2348,-16150,-1961,2,-11,-3
1,232,20822,-2330,-16118,-2012,1,-9,-1
1,233,20827,-2369,-16121,-2006,1,-7,-2
1,234,20832,-2357,-16150,-1990,2,-10,-2
1,235,20837,-2314,-16127,-2015,5,-7,-2
1,236,20842,-2347,-16120,-1981,4,-8,-2
1,237,20847,-2367,-16139,-1979,1,-8,-2
1,238,20852,-2337,-16138,-2005,4,-8,-4
1,239,20857,-2333,-16132,-1980,3,-6,-5
1,240,20862,-2340,-16138,-2005,1,-7,-3
1,241,20867,-2351,-16098,-2015,2,-10,0
1,242,20872,-2349,-16126,-2045,3,-9,-3
1,243,20877,-2332,-16123,-2039,3,-6,-2
1,244,20882,-2345,-16157,-1986,3,-9,-4
1,245,20887,-2329,-16125,-1989,4,-8,-6
1,246,20892,-2366,-16120,-1966,2,-10,-3
1,247,20897,-2359,-16145,-2004,4,-8,0
1,248,20902,-2356,-16155,-2002,4,-8,-2
1,249,20907,-2310,-16116,-2013,3,-8,-5
1,250,20912,-2348,-16139,-1982,2,-8,-2
1,251,20917,-2356,-16125,-1992,0,-8,-3
1,252,20922,-2340,-16137,-1988,5,-8,-2
1,253,20927,-2392,-16157,-1975,3,-10,-4
1,254,20932,-2347,-16107,-2004,2,-8,-5
1,255,20937,-2337,-16131,-2009,2,-7,-3
1,256,20942,-2391,-16126,-1998,1,-7,-3
1,257,20947,-2377,-16156,-1986,1,-9,-4
1,258,20952,-2327,-16154,-1966,1,-7,-5
1,259,20957,-2372,-16152,-1983,0,-8,-6
1,260,20962,-2354,-16168,-1992,2,-10,-3
1,261,20967,-2370,-16141,-2042,3,-8,0
1,262,20972,-2328,-16143,-1991,-1,-8,-3
1,263,20977,-2321,-16188,-1963,2,-7,-3
1,264,20982,-2340,-16142,-1999,3,-7,-3
1,265,20987,-2363,-16102,-2016,1,-7,-4
1,266,20992,-2344,-16130,-1984,3,-6,-2
1,267,20997,-2324,-16131,-2052,4,-10,-2
1,268,21002,-2308,-16134,-2023,2,-10,-4
1,269,21007,-2347,-16120,-1984,1,-6,-4
1,270,21012,-2334,-16155,-2025,2,-7,-4
1,271,21017,-2345,-16110,-1998,4,-7,-4
1,272,21022,-2328,-16096,-2004,4,-9,-2
1,273,21027,-2317,-16139,-2014,2,-9,-3
1,274,21032,-2353,-16138,-1972,4,-6,-4
1,275,21037,-2364,-16149,-2013,6,-10,-3
1,276,21042,-2354,-16134,-2032,3,-12,-3
1,277,21047,-2342,-16132,-1998,2,-7,-4
1,278,21052,-2385,-16156,-1977,2,-7,-2
1,279,21057,-2378,-16122,-2003,3,-11,-5
1,280,21062,-2379,-16149,-1990,4,-7,-1
1,281,21067,-2344,-16140,-2013,3,-8,-4
1,282,21072,-2351,-16185,-1995,3,-8,-2
1,283,21077,-2359,-16142,-2034,3,-7,-2
1,284,21082,-2356,-16135,-1994,1,-10,-3
1,285,21087,-2350,-16125,-1998,0,-8,0
1,286,21092,-2332,-16127,-2020,4,-8,-1
1,287,21097,-2364,-16148,-1993,4,-7,-4
1,288,21102,-2370,-16167,-1977,3,-7,-4
1,289,21107,-2367,-16133,-1975,3,-8,-4
1,290,21112,-2356,-16103,-2014,1,-7,-5
1,291,21117,-2351,-16127,-1988,2,-9,-2
1,292,21122,-2341,-16124,-2039,4,-11,-2
1,293,21127,-2352,-16128,-2022,0,-5,-4
1,294,21132,-2356,-16106,-1967,0,-6,-3
1,295,21137,-2368,-16106,-1997,1,-10,-3
1,296,21142,-2357,-16138,-2012,2,-9,-1
1,297,21147,-2330,-16152,-2017,4,-8,-3
1,298,21152,-2351,-16110,-2014,2,-6,-5
1,299,21157,-2348,-16110,-2021,4,-8,-3
1,300,21162,-2348,-16115,-2024,3,-9,-3
1,301,21167,-2404,-16129,-2020,2,-11,-4
1,302,21172,-2374,-16145,-2043,5,-9,-1
1,303,21177,-2357,-16130,-2027,4,-7,0
1,304,21182,-2319,-16129,-1990,2,-8,-4
1,305,21187,-2332,-16171,-1995,2,-9,-4
1,306,21192,-2388,-16138,-1988,4,-8,-1
1,307,21197,-2378,-16134,-2015,5,-8,-3
1,308,21202,-2345,-16096,-2023,3,-7,-5
1,309,21207,-2352,-16124,-1974,2,-9,-4
1,310,21212,-2323,-16123,-2018,5,-9,-2
1,311,21217,-2361,-16151,-1976,5,-7,-5
1,312,21222,-2343,-16145,-1951,3,-8,-6
1,313,21227,-2321,-16120,-2041,0,-8,-2
1,314,21232,-2338,-16148,-1996,1,-7,-3
1,315,21237,-2355,-16144,-1962,3,-10,-3
1,316,21242,-2327,-16139,-1986,4,-11,-3
1,317,21247,-2339,-16132,-1989,3,-9,-2
1,318,21252,-2328,-16109,-1970,3,-8,-3
1,319,21257,-2334,-16121,-1988,3,-10,-2
1,320,21262,-2378,-16139,-1955,3,-8,-4
1,321,21267,-2370,-16149,-1994,4,-6,-6
1,322,21272,-2348,-16143,-2022,2,-6,-4
1,323,21277,-2335,-16140,-1984,2,-8,-5
1,324,21282,-2351,-16089,-2011,2,-10,-4
1,325,21287,-2373,-16114,-2009,1,-8,-4
1,326,21292,-2320,-16135,-2016,3,-6,-5
1,327,21297,-2305,-16131,-1994,3,-8,-1
1,328,21302,-2305,-16127,-2063,2,-8,-4
1,329,21307,-2349,-16127,-2019,3,-7,-3
1,330,21312,-2375,-16116,-1988,3,-6,-3
1,331,21317,-2340,-16138,-1979,3,-8,-2
1,332,21322,-2333,-16152,-1967,1,-6,-4
1,333,21327,-2361,-16137,-1981,2,-9,-2
1,334,21332,-2356,-16133,-1993,-1,-9,-1
1,335,21337,-2348,-16144,-2008,-2,-7,-1
1,336,21342,-2350,-16167,-2013,2,-7,-2
1,337,21347,-2352,-16125,-1960,4,-6,-3
1,338,21352,-2372,-16155,-1996,3,-8,-3
1,339,21357,-2342,-16133,-1983,2,-9,-1
1,340,21362,-2344,-16114,-1991,2,-7,-3
1,341,21367,-2342,-16112,-2008,3,-9,-2
1,342,21372,-2377,-16132,-1994,3,-7,-3
1,343,21377,-2359,-16132,-1982,2,-8,-3
1,344,21382,-2347,-16092,-2019,5,-10,-5
1,345,21387,-2352,-16154,-1968,4,-10,-1
1,346,21392,-2344,-16128,-1977,2,-10,-2
1,347,21397,-2358,-16133,-1990,1,-6,-4
1,348,21402,-2367,-16136,-1997,3,-5,-4
1,349,21407,-2331,-16110,-2050,0,-8,-4
1,350,21412,-2355,-16131,-1997,1,-9,-5
1,351,21417,-2328,-16151,-1971,0,-6,-2
1,352,21422,-2299,-16110,-1989,4,-8,-5
1,353,21427,-2327,-16142,-1954,2,-8,-5
1,354,21432,-2285,-16152,-1987,0,-7,-3
1,355,21437,-2312,-16105,-2027,2,-7,-3
1,356,21442,-2340,-16140,-1983,1,-6,-6
1,357,21447,-2326,-16108,-1951,4,-7,-3
1,358,21452,-2341,-16138,-2039,5,-12,-2
1,359,21457,-2382,-16181,-2049,3,-10,-4
1,360,21462,-2350,-16125,-1986,4,-6,-4
1,361,21467,-2348,-16130,-2007,2,-5,-1
1,362,21472,-2373,-16150,-1985,4,-6,-4
1,363,21477,-2349,-16114,-1973,2,-7,-5
1,364,21482,-2350,-16124,-1977,3,-10,0
1,365,21487,-2359,-16135,-2032,1,-9,-1
1,366,21492,-2322,-16137,-2023,3,-6,-1
1,367,21497,-2328,-16141,-2029,3,-8,0
1,368,21502,-2348,-16119,-1996,2,-7,-5
1,369,21507,-2337,-16146,-2028,4,-8,-3
1,370,21512,-2349,-16141,-2009,2,-9,-1
1,371,21517,-2340,-16116,-2012,0,-8,-5
1,372,21522,-2351,-16116,-2005,1,-9,-4
1,373,21527,-2346,-16125,-2023,2,-8,-1
1,374,21532,-2276,-16107,-2016,3,-6,-2
1,375,21537,-2333,-16131,-2018,3,-8,-4
1,376,21542,-2311,-16148,-1994,4,-9,-2
1,377,21547,-2357,-16121,-1959,4,-8,-2
1,378,21552,-2352,-16124,-1979,1,-9,-3
1,379,21557,-2336,-16105,-2018,2,-9,-3
1,380,21562,-2350,-16111,-2011,1,-9,-1
1,381,21567,-2362,-16116,-2013,4,-8,-1
1,382,21572,-2360,-16096,-1994,3,-11,-5
1,383,21577,-2331,-16108,-2002,2,-12,-2
1,384,21582,-2343,-16116,-2029,1,-9,-4
1,385,21587,-2371,-16145,-2037,2,-6,-2
1,386,21592,-2352,-16150,-2001,3,-8,-1
1,387,21597,-2344,-16134,-1954,0,-10,-4
1,388,21602,-2343,-16127,-2003,0,-9,-1
1,389,21607,-2342,-16131,-2021,2,-6,0
1,390,21612,-2372,-16134,-2007,3,-9,-3
1,391,21617,-2364,-16141,-1974,1,-10,-2
1,392,21622,-2381,-16123,-2007,0,-8,-2
1,393,21627,-2344,-16096,-2035,4,-6,-1
1,394,21632,-2337,-16133,-1973,1,-9,-3
1,395,21637,-2334,-16140,-2019,-1,-7,-5
1,396,21642,-2352,-16121,-2052,1,-8,-4
1,397,21647,-2363,-16136,-1998,0,-9,-3
1,398,21652,-2335,-16138,-1998,3,-8,-3
1,399,21657,-2363,-16143,-1973,3,-8,-4
1,400,21662,-2361,-16123,-2031,1,-10,-4
1,401,21667,-2341,-16139,-2029,4,-6,-3
1,402,21672,-2382,-16147,-2022,3,-9,-2
1,403,21677,-2365,-16122,-1965,4,-11,-4
1,404,21682,-2363,-16148,-1994,3,-8,-5
1,405,21687,-2368,-16129,-2004,3,-8,-5
1,406,21692,-2343,-16158,-2001,3,-8,-2
1,407,21697,-2309,-16140,-2024,1,-7,-2
1,408,21702,-2344,-16133,-2001,2,-7,-2
1,409,21707,-2380,-16144,-1990,4,-8,-3
1,410,21712,-2349,-16110,-1979,4,-7,-3
1,411,21717,-2346,-16135,-1975,4,-9,-3
1,412,21722,-2372,-16125,-1984,1,-7,-4
1,413,21727,-2349,-16145,-1972,2,-8,-3
1,414,21732,-2376,-16147,-2001,2,-8,-4
1,415,21737,-2342,-16132,-2005,2,-8,-6
1,416,21742,-2360,-16102,-2031,5,-8,-4
1,417,21747,-2379,-16160,-1986,2,-8,-3
1,418,21752,-2338,-16122,-1987,4,-6,-2
1,419,21757,-2333,-16134,-1998,2,-9,-3
1,420,21762,-2311,-16123,-2006,4,-11,-3
1,421,21767,-2346,-16118,-2011,3,-8,-4
1,422,21772,-2333,-16139,-1995,3,-10,-5
1,423,21777,-2357,-16146,-1978,2,-9,-6
1,424,21782,-2358,-16123,-2003,2,-9,-6
1,425,21787,-2342,-16142,-2021,0,-7,-4
1,426,21792,-2354,-16129,-1978,1,-6,-3
1,427,21797,-2315,-16162,-1967,4,-9,-2
1,428,21802,-2337,-16129,-1974,3,-9,-2
1,429,21807,-2353,-16127,-1979,3,-7,-3
1,430,21812,-2331,-16122,-1998,4,-9,-3
1,431,21817,-2333,-16110,-2021,2,-8,-4
1,432,21822,-2354,-16164,-1970,2,-4,-4
1,433,21827,-2354,-16145,-1998,4,-7,-4
1,434,21832,-2316,-16141,-2011,4,-10,-5
1,435,21837,-2310,-16106,-1999,2,-7,-3
1,436,21842,-2305,-16142,-2014,4,-6,-1
1,437,21847,-2329,-16152,-2021,5,-8,-3
1,438,21852,-2300,-16177,-1972,3,-8,-3
1,439,21857,-2368,-16160,-2019,1,-10,1
1,440,21862,-2361,-16166,-1991,1,-9,-2
1,441,21867,-2355,-16132,-1981,1,-8,-4
1,442,21872,-2359,-16107,-1984,2,-7,-4
1,443,21877,-2368,-16121,-1975,2,-8,-5
1,444,21882,-2385,-16105,-1965,2,-9,-4
1,445,21887,-2366,-16158,-2008,2,-8,-4
1,446,21892,-2375,-16133,-1962,1,-7,-4
1,447,21897,-2349,-16135,-1981,1,-8,-4
1,448,21902,-2324,-16137,-1991,2,-8,-3
1,449,21907,-2347,-16144,-2014,2,-6,-5
1,450,21912,-2333,-16125,-1987,5,-8,-8
1,451,21917,-2328,-16136,-2001,2,-7,-5
1,452,21922,-2350,-16133,-2043,4,-7,-2
1,453,21927,-2373,-16164,-2001,3,-8,-3
1,454,21932,-2355,-16124,-1971,3,-10,-3
1,455,21937,-2339,-16113,-1942,2,-9,-3
1,456,21942,-2367,-16121,-2001,3,-10,-2
1,457,21947,-2382,-16093,-2020,3,-7,-4
1,458,21952,-2349,-16108,-1953,5,-7,-3
1,459,21957,-2357,-16121,-2009,6,-5,-3
1,460,21962,-2380,-16119,-1995,0,-6,-5
1,461,21967,-2382,-16124,-1976,0,-7,-6
1,462,21972,-2334,-16159,-2021,1,-7,-4
1,463,21977,-2328,-16127,-1980,1,-7,-2
1,464,21982,-2383,-16141,-2039,2,-6,-2
1,465,21987,-2362,-16139,-2015,4,-6,-3
1,466,21992,-2321,-16157,-1972,3,-8,-3
1,467,21997,-2334,-16140,-2010,2,-7,-2
1,468,22002,-2356,-16116,-1969,3,-4,-5
1,469,22007,-2366,-16139,-1972,2,-7,-6
1,470,22012,-2335,-16115,-1997,4,-9,-3
1,471,22017,-2351,-16142,-2010,5,-8,-3
1,472,22022,-2368,-16137,-2008,2,-8,-5
1,473,22027,-2353,-16133,-1986,2,-8,-6
1,474,22032,-2335,-16139,-1954,2,-8,-3
1,475,22037,-2328,-16114,-2001,2,-9,-2
1,476,22042,-2317,-16131,-1991,4,-9,-3
1,477,22047,-2327,-16125,-1978,4,-8,-5
1,478,22052,-2316,-16165,-2002,1,-11,-3
1,479,22057,-2322,-16146,-2016,2,-10,-3
1,480,22062,-2300,-16119,-2007,5,-7,0
1,481,22067,-2360,-16099,-2011,5,-7,-2
1,482,22072,-2336,-16105,-1992,1,-10,-2
1,483,22077,-2365,-16108,-1983,1,-9,0
1,484,22082,-2386,-16147,-2052,5,-9,-1
1,485,22087,-2319,-16152,-1978,2,-8,-5
1,486,22092,-2314,-16136,-1999,3,-8,-2
1,487,22097,-2320,-16148,-1976,3,-7,-3
1,488,22102,-2362,-16126,-1976,3,-10,-5
1,489,22107,-2355,-16150,-2026,2,-9,-3
1,490,22112,-2333,-16114,-2013,4,-9,-1
1,491,22117,-2374,-16147,-1995,2,-9,-2
1,492,22122,-2337,-16125,-1973,2,-12,-3
1,493,22127,-2354,-16143,-1969,3,-9,-1
1,494,22132,-2328,-16124,-2014,2,-8,-1
1,495,22137,-2338,-16119,-2031,0,-9,-4
1,496,22142,-2345,-16122,-1996,2,-9,-2
1,497,22147,-2389,-16179,-1994,3,-9,-3
1,498,22152,-2360,-16142,-2001,1,-8,-4
1,499,22157,-2345,-16138,-2016,3,-6,-3
1,500,22162,-2378,-16161,-1979,1,-7,-3
1,501,22167,-2348,-16125,-1933,2,-9,-3
1,502,22172,-2337,-16151,-1987,2,-9,-2
1,503,22177,-2375,-16146,-1962,1,-6,-3
1,504,22182,-2353,-16127,-1954,2,-6,-2
1,505,22187,-2318,-16114,-1980,2,-6,-5
1,506,22192,-2336,-16123,-1985,0,-9,-4
1,507,22197,-2314,-16152,-1974,1,-11,-4
1,508,22202,-2337,-16138,-2016,1,-9,-6
1,509,22207,-2339,-16138,-1993,2,-8,-3
1,510,22212,-2313,-16157,-1976,2,-7,-2
1,511,22217,-2329,-16141,-2009,3,-8,-3
1,512,22222,-2340,-16144,-2042,3,-7,-5
1,513,22227,-2328,-16146,-2012,1,-8,-4
1,514,22232,-2345,-16145,-1974,2,-9,-2
1,515,22237,-2369,-16124,-2017,2,-9,-2
1,516,22242,-2347,-16124,-1990,1,-9,-3
1,517,22247,-2363,-16133,-2012,1,-9,-5
1,518,22252,-2336,-16126,-1976,3,-9,-4
1,519,22257,-2350,-16113,-1981,2,-9,-4
1,520,22262,-2341,-16129,-1989,2,-7,-3
1,521,22267,-2326,-16112,-2018,3,-8,-3
1,522,22272,-2325,-16130,-1980,2,-8,-3
1,523,22277,-2348,-16146,-1982,1,-8,-1
1,524,22282,-2342,-16121,-1976,0,-10,-2
1,525,22287,-2323,-16160,-1997,0,-7,-3
1,526,22292,-2370,-16130,-1964,2,-8,-4
1,527,22297,-2356,-16122,-1986,0,-8,-2
1,528,22302,-2321,-16129,-2052,2,-8,-3
1,529,22307,-2332,-16117,-2040,4,-7,-5
1,530,22312,-2355,-16129,-2015,2,-8,-4
1,531,22317,-2347,-16164,-2008,4,-8,-4
1,532,22322,-2310,-16128,-1973,3,-8,-3
1,533,22327,-2346,-16115,-1989,2,-9,-3
1,534,22332,-2350,-16147,-1953,3,-9,-3
1,535,22337,-2328,-16127,-2004,1,-6,-4
1,536,22342,-2353,-16139,-2058,0,-9,-3
1,537,22347,-2325,-16122,-1950,2,-7,-4
1,538,22352,-2345,-16114,-1935,2,-7,-5
1,539,22357,-2341,-16159,-2004,2,-8,-3
1,540,22362,-2357,-16162,-2003,3,-10,-4
1,541,22367,-2358,-16127,-1955,4,-9,-4
1,542,22372,-2351,-16129,-2037,2,-6,-1
1,543,22377,-2352,-16149,-2030,1,-7,-3
1,544,22382,-2344,-16141,-2030,2,-11,-5
1,545,22387,-2346,-16158,-2009,5,-9,-3
1,546,22392,-2339,-16137,-2023,4,-11,-3
1,547,22397,-2340,-16122,-2017,2,-11,-1
1,548,22402,-2375,-16121,-1980,2,-8,-5
1,549,22407,-2363,-16118,-2004,3,-6,-4
1,550,22412,-2349,-16149,-2011,5,-8,-2
1,551,22417,-2323,-16124,-1965,3,-9,-1
1,552,22422,-2329,-16113,-2015,1,-10,-4
1,553,22427,-2335,-16134,-2021,2,-9,-4
1,554,22432,-2321,-16127,-1988,5,-8,-4
1,555,22437,-2341,-16131,-1983,2,-7,-5
1,556,22442,-2331,-16126,-1974,0,-8,-4
1,557,22447,-2370,-16112,-2018,2,-6,-4
1,558,22452,-2358,-16150,-2005,4,-7,-7
1,559,22457,-2365,-16160,-1994,3,-7,-5
1,560,22462,-2368,-16117,-1986,4,-8,-2
1,561,22467,-2330,-16142,-1971,1,-8,-6
1,562,22472,-2355,-16113,-1988,2,-8,-3
1,563,22477,-2328,-16126,-1991,1,-9,-3
1,564,22482,-2383,-16146,-2000,4,-7,-5
1,575,22537,-2329,-16139,-2039,1,-9,-5
1,576,22542,-2348,-16116,-2018,1,-8,-5
1,577,22547,-2326,-16120,-1978,0,-5,-4
1,578,22552,-2366,-16163,-1955,2,-7,-1
1,579,22557,-2324,-16125,-2015,3,-8,-4
1,580,22562,-2329,-16082,-2070,3,-8,-5
1,581,22567,-2210,-16121,-2100,2,-6,-4
1,582,22572,-2242,-16149,-2080,4,-2,-1
1,583,22577,-2354,-16172,-1909,4,-5,1
1,584,22582,-2441,-16110,-1920,3,-17,-1
1,600,22662,1592,-17119,-12644,104,143,8
1,601,22667,-1102,-17261,-9890,93,277,1
1,602,22672,-2302,-16377,-9511,91,-20,25
1,603,22677,-963,-16295,-10568,160,-233,67
1,604,22682,-963,-16746,-11362,230,-126,42
1,605,22687,-1517,-17192,-10718,260,16,25
1,606,22692,-1688,-16557,-8952,250,11,37
1,607,22697,-3408,-16005,-5574,278,-61,75
1,608,22702,-6363,-16439,-2715,322,-187,59
1,609,22707,-4760,-16308,-4552,355,-322,6
1,625,22787,-3709,-16279,-3542,406,-150,-2
1,626,22792,-3697,-16041,-2705,409,-97,-9
1,627,22797,-3689,-16101,-1463,417,-138,3
1,628,22802,-3423,-15915,-1411,427,-271,6
1,629,22807,-3188,-16015,-1177,440,-357,10
1,630,22812,-3221,-17227,-1224,438,-359,6
1,631,22817,-7142,-15807,2408,454,-217,-21
1,632,22822,-814,-17548,-5592,500,-265,77
1,633,22827,251,-17056,-5253,432,180,-38
1,634,22832,-2086,-16303,1579,368,509,-166
1,650,22912,-1740,-16229,-664,347,571,18
1,651,22917,-2058,-16508,-628,335,660,8
1,652,22922,-2392,-16325,-201,316,732,7
1,653,22927,-2992,-15955,435,301,755,6
1,654,22932,-3815,-15837,185,307,710,8
1,655,22937,-4420,-16147,-963,322,658,11
1,656,22942,-4221,-16575,-1504,324,658,16
1,657,22947,-3779,-16618,-841,310,666,22
1,658,22952,-3006,-16444,1069,289,611,32
1,659,22957,-2586,-15872,3527,273,467,41
1,675,23037,-2559,-17540,254,148,-171,131
1,676,23042,-1725,-17456,-390,143,-27,121
1,677,23047,-2192,-17651,-923,142,71,134
1,678,23052,-3214,-18011,-1459,145,167,149
1,679,23057,-3924,-18170,-1913,140,342,147
1,680,23062,-3951,-18392,-1861,131,622,156
1,681,23067,-3626,-18607,-1039,128,901,152
1,682,23072,-3520,-18546,345,123,1039,142
1,683,23077,-3592,-18504,1212,125,966,158
1,684,23082,-3791,-18440,1624,133,790,185
1,700,23162,-4195,-15934,1684,93,246,520
1,701,23167,-4107,-15972,1328,95,126,551
1,702,23172,-3959,-16066,1218,89,66,567
1,703,23177,-4072,-16021,1369,88,32,583
1,704,23182,-4350,-15965,1278,86,-41,603
1,705,23187,-4497,-15963,794,92,-147,629
1,706,23192,-4375,-16048,304,95,-202,647
1,707,23197,-4048,-16064,240,92,-189,663
1,708,23202,-4086,-15980,357,91,-137,669
1,709,23207,-4412,-15894,463,90,-105,675
1,725,23287,-4847,-14863,2149,53,-119,771
1,726,23292,-4978,-15042,1595,54,-205,773
1,727,23297,-5169,-15138,1018,51,-249,767
1,728,23302,-5266,-15086,870,47,-248,757
1,729,23307,-5329,-15090,1059,41,-228,752
1,730,23312,-5083,-15089,928,41,-219,743
1,731,23317,-4712,-15168,697,39,-200,735
1,732,23322,-4572,-15350,564,39,-186,728
1,733,23327,-4776,-15570,535,38,-177,716
1,734,23332,-5003,-15756,283,38,-173,708
1,750,23412,-5211,-14906,857,13,26,510
1,751,23417,-5255,-15046,810,12,14,497
1,752,23422,-5154,-15171,676,15,8,488
1,753,23427,-5104,-15290,575,14,18,471
1,754,23432,-5178,-15278,526,9,22,450
1,755,23437,-5269,-15211,519,11,10,435
1,756,23442,-5308,-15120,295,9,2,422
1,757,23447,-5363,-15167,191,8,21,408
1,758,23452,-5381,-15146,65,5,51,386
1,759,23457,-5420,-15049,231,6,96,369
1,775,23537,-5640,-15272,791,-30,161,105
1,776,23542,-5772,-15214,874,-31,142,83
1,777,23547,-5957,-15145,874,-34,113,67
1,778,23552,-6138,-15058,838,-42,87,56
1,779,23557,-6109,-15034,885,-47,81,37
1,780,23562,-5961,-15041,863,-49,81,19
1,781,23567,-5937,-14961,837,-49,67,0
1,782,23572,-6172,-14840,677,-50,22,-17
1,783,23577,-6332,-14832,476,-55,-67,-38
1,784,23582,-6199,-14876,632,-60,-71,-50
1,800,23662,-5966,-14905,-24,-72,108,-283
1,801,23667,-5987,-15020,-45,-74,167,-290
1,802,23672,-5929,-15156,-44,-70,252,-305
1,803,23677,-5962,-15333,299,-72,318,-318
1,804,23682,-5916,-15392,631,-72,312,-329
1,805,23687,-5994,-15340,924,-70,266,-338
1,806,23692,-5935,-15387,1022,-74,203,-341
1,807,23697,-5869,-15294,1121,-73,151,-347
1,808,23702,-5733,-15218,1094,-71,93,-349
1,809,23707,-5739,-15180,1044,-74,26,-350
1,825,23787,-6042,-15007,314,-37,259,-350
1,826,23792,-6239,-15016,253,-34,217,-340
1,827,23797,-6053,-14988,622,-30,196,-330
1,828,23802,-5857,-14918,1234,-27,178,-328
1,829,23807,-5936,-14811,1456,-24,115,-324
1,830,23812,-6027,-14740,1068,-13,17,-310
1,831,23817,-6110,-14648,779,-13,-54,-300
1,832,23822,-5993,-14603,842,-15,-94,-286
1,833,23827,-5738,-14504,819,-11,-117,-277
1,834,23832,-5603,-14483,588,-10,-113,-275
1,850,23912,-6314,-15338,321,40,-402,-140
1,851,23917,-6400,-15293,70,36,-409,-135
1,852,23922,-6230,-15377,69,40,-379,-133
1,853,23927,-5914,-15523,-69,43,-338,-135
1,854,23932,-5760,-15578,-110,44,-269,-139
1,855,23937,-5875,-15524,-78,45,-208,-141
1,856,23942,-5747,-15444,-105,49,-155,-132
1,857,23947,-5462,-15433,-231,52,-119,-125
1,858,23952,-5363,-15476,-218,53,-55,-125
1,859,23957,-5477,-15441,-33,56,4,-123
1,875,24037,-5625,-15649,761,77,33,-62
1,876,24042,-5267,-15748,792,73,8,-59
1,877,24047,-5258,-15851,867,73,-37,-55
1,878,24052,-5442,-15928,654,77,-110,-53
1,879,24057,-5625,-15967,4,78,-170,-44
1,900,24162,-5191,-15619,109,59,-121,24
1,901,24167,-5083,-15566,309,58,-100,26
1,902,24172,-5135,-15522,433,62,-101,27
1,903,24177,-5193,-15476,240,61,-102,33
1,904,24182,-5144,-15487,46,58,-79,38
1,905,24187,-5105,-15425,-92,57,-39,36
1,906,24192,-5117,-15391,-23,55,0,34
1,907,24197,-5145,-15399,72,57,40,39
1,908,24202,-5141,-15416,11,55,89,39
1,909,24207,-5115,-15374,5,56,143,36
1,925,24287,-5347,-15654,65,35,-55,51
1,926,24292,-5138,-15625,129,37,-27,49
1,927,24297,-5130,-15633,226,38,0,50
1,928,24302,-5237,-15668,317,36,23,47
1,929,24307,-5383,-15710,417,39,29,48
1,930,24312,-5244,-15746,474,42,19,46
1,931,24317,-5172,-15733,615,41,1,47
1,932,24322,-5272,-15748,747,43,-36,48
1,933,24327,-5363,-15754,664,42,-81,47
1,934,24332,-5361,-15769,511,45,-114,48
1,950,24412,-5224,-15547,887,47,16,26
1,951,24417,-5242,-15527,921,44,0,27
1,952,24422,-5243,-15538,1070,42,-19,30
1,953,24427,-5353,-15565,1250,45,-48,28
1,954,24432,-5482,-15542,1262,43,-86,25
1,955,24437,-5513,-15589,1220,43,-138,27
1,956,24442,-5348,-15621,1220,44,-195,30
1,957,24447,-5219,-15558,1180,44,-253,30
1,958,24452,-5139,-15464,888,46,-306,33
1,959,24457,-5185,-15379,505,44,-333,33
1,960,24462,-5215,-15400,166,43,-327,33
1,961,24467,-5061,-15436,4,43,-278,29
1,962,24472,-4839,-15423,-69,42,-198,24
1,963,24477,-4649,-15422,-70,43,-107,22
1,964,24482,-4671,-15391,-19,45,-25,17
1,965,24487,-4698,-15361,78,43,37,14
1,966,24492,-4769,-15370,200,40,89,16
1,967,24497,-4706,-15404,410,41,135,14
1,968,24502,-4656,-15409,554,41,170,15
1,969,24507,-4534,-15420,608,43,184,21
1,970,24512,-4504,-15427,652,47,176,25
1,971,24517,-4716,-15437,613,42,154,26
1,972,24522,-4914,-15492,547,41,130,26
1,973,24527,-5013,-15536,466,41,120,26
1,974,24532,-5008,-15550,530,42,137,27
1,975,24537,-5057,-15480,766,40,149,27
1,976,24542,-5146,-15508,1056,40,135,27
1,977,24547,-5081,-15458,1217,42,87,26
1,978,24552,-4982,-15485,1256,43,27,33
1,979,24557,-4881,-15377,1175,36,-39,31
1,980,24562,-4851,-15328,1182,34,-92,34
1,981,24567,-4844,-15317,899,32,-141,39
1,982,24572,-4755,-15319,513,36,-163,44
1,983,24577,-4688,-15328,85,34,-139,42
1,984,24582,-4692,-15371,-205,30,-77,40
1,985,24587,-4767,-15407,-190,26,10,35
1,986,24592,-4806,-15458,-331,24,95,30
1,987,24597,-4950,-15467,-320,22,195,24
1,988,24602,-5172,-15422,-135,19,290,20
1,989,24607,-5321,-15454,306,18,359,14
1,990,24612,-5173,-15517,717,19,380,15
1,991,24617,-4997,-15498,1006,19,358,13
1,992,24622,-5155,-15523,1297,15,301,14
1,993,24627,-5537,-15593,1431,16,211,15
1,994,24632,-5824,-15569,1266,17,117,22
1,995,24637,-5899,-15613,1293,10,41,24
1,996,24642,-5849,-15586,1536,7,-28,23
1,997,24647,-5811,-15562,1637,6,-99,20
1,998,24652,-5865,-15533,1542,5,-182,18
1,999,24657,-5879,-15487,1207,3,-264,17
2,0,26287,-5367,-15468,577,10,-31,29
2,1,26292,-5431,-15450,605,9,-20,29
2,2,26297,-5389,-15427,573,10,-12,27
2,3,26302,-5329,-15420,520,9,-3,29
2,4,26307,-5279,-15424,575,9,8,27
2,5,26312,-5344,-15423,596,7,13,27
2,6,26317,-5430,-15380,620,7,16,29
2,7,26322,-5457,-15392,626,8,16,28
2,8,26327,-5435,-15392,672,5,20,27
2,9,26332,-5365,-15398,722,5,18,29
2,10,26337,-5393,-15413,806,6,10,31
2,11,26342,-5456,-15485,782,4,-15,30
2,12,26347,-5492,-15494,669,9,-40,28
2,13,26352,-5576,-15485,633,9,-54,30
2,14,26357,-5579,-15524,649,5,-61,29
2,15,26362,-5524,-15552,644,7,-69,28
2,16,26367,-5478,-15527,585,9,-71,28
2,17,26372,-5445,-15521,562,9,-78,29
2,18,26377,-5455,-15547,472,7,-83,28
2,19,26382,-5405,-15503,437,10,-77,27
2,20,26387,-5351,-15487,410,9,-68,28
2,21,26392,-5272,-15498,381,8,-54,25
2,22,26397,-5240,-15479,329,9,-38,26
2,23,26402,-5219,-15471,263,9,-23,26
2,24,26407,-5254,-15413,247,10,-3,25
2,25,26412,-5245,-15426,371,11,16,23
2,26,26417,-5247,-15433,467,13,32,25
2,27,26422,-5223,-15440,490,9,48,24
2,28,26427,-5286,-15448,567,10,60,25
2,29,26432,-5412,-15473,723,10,66,20
2,30,26437,-5453,-15444,881,8,57,23
2,31,26442,-5441,-15449,974,10,35,25
2,32,26447,-5477,-15432,978,10,9,22
2,33,26452,-5559,-15416,1033,9,-20,26
2,34,26457,-5595,-15421,1120,9,-55,28
2,35,26462,-5556,-15435,1025,10,-92,29
2,36,26467,-5506,-15434,822,8,-116,30
2,37,26472,-5522,-15438,725,9,-130,28
2,38,26477,-5592,-15430,590,7,-135,27
2,39,26482,-5594,-15427,435,6,-129,24
2,40,26487,-5520,-15475,329,7,-107,22
2,41,26492,-5433,-15464,311,5,-70,19
2,42,26497,-5469,-15445,318,4,-30,15
2,43,26502,-5457,-15459,336,4,25,15
2,44,26507,-5355,-15478,467,5,42,11
2,45,26512,-5314,-15489,564,4,52,8
2,46,26517,-5320,-15497,553,5,54,9
2,47,26522,-5366,-15469,539,3,49,8
2,48,26527,-5426,-15506,564,7,42,10
2,49,26532,-5446,-15572,634,6,29,9
2,50,26537,-5422,-15590,666,8,16,9
2,51,26542,-5413,-15583,649,10,9,11
2,52,26547,-5482,-15619,708,9,-8,11
2,53,26552,-5588,-15589,768,8,-28,8
2,54,26557,-5541,-15602,706,10,-55,11
2,55,26562,-5446,-15583,670,11,-72,14
2,56,26567,-5461,-15520,722,10,-76,10
2,57,26572,-5505,-15474,772,8,-78,9
2,58,26577,-5500,-15472,677,8,-78,8
2,59,26582,-5432,-15450,551,6,-66,7
2,60,26587,-5387,-15420,614,5,-44,5
2,61,26592,-5361,-15379,634,3,-24,5
2,62,26597,-5406,-15372,542,1,-10,4
2,63,26602,-5426,-15388,493,1,5,1
2,64,26607,-5448,-15381,576,0,26,-1
2,65,26612,-5430,-15413,650,0,43,-2
2,66,26617,-5371,-15431,646,3,43,2
2,67,26622,-5358,-15444,692,2,40,5
2,68,26627,-5376,-15458,677,-2,31,2
2,69,26632,-5373,-15485,681,-2,13,0
2,70,26637,-5410,-15489,675,-2,-10,2
2,71,26642,-5409,-15577,547,2,-24,7
2,72,26647,-5450,-15671,435,4,-27,4
2,73,26652,-5498,-15637,407,1,-19,2
2,74,26657,-5600,-15594,469,1,-10,0
2,75,26662,-5624,-15531,491,3,-4,-1
2,76,26667,-5566,-15526,523,4,-3,-3
2,77,26672,-5468,-15504,596,2,5,-2
2,78,26677,-5529,-15487,637,1,9,-1
2,79,26682,-5560,-15490,654,1,11,-1
2,80,26687,-5607,-15456,661,2,11,-3
2,81,26692,-5622,-15501,659,0,10,0
2,82,26697,-5566,-15484,721,-2,11,-4
2,83,26702,-5428,-15464,771,-3,4,-3
2,84,26707,-5447,-15477,738,-2,-10,-4
2,85,26712,-5515,-15498,680,-3,-25,-3
2,86,26717,-5559,-15587,572,-1,-34,-2
2,87,26722,-5509,-15622,507,-1,-30,-4
2,88,26727,-5554,-15631,431,-6,-17,-4
2,89,26732,-5626,-15594,476,-4,-1,-6
2,90,26737,-5677,-15601,519,-3,10,-8
2,91,26742,-5638,-15615,573,-3,13,-9
2,92,26747,-5591,-15635,686,-1,13,-9
2,93,26752,-5613,-15602,743,-5,10,-11
2,94,26757,-5663,-15531,794,-7,-1,-12
2,95,26762,-5654,-15447,740,-6,-16,-9
2,96,26767,-5613,-15466,710,-4,-21,-9
2,97,26772,-5569,-15455,723,-5,-25,-9
2,98,26777,-5518,-15438,766,-6,-34,-10
2,99,26782,-5495,-15385,751,-6,-45,-10
2,100,26787,-5466,-15381,619,-6,-47,-10
2,101,26792,-5375,-15365,590,-7,-42,-8
2,102,26797,-5273,-15354,583,-10,-29,-8
2,103,26802,-5265,-15452,512,-10,-25,-7
2,104,26807,-5269,-15468,442,-8,-19,-7
2,105,26812,-5318,-15477,413,-6,-6,-6
2,106,26817,-5361,-15505,343,-6,13,-6
2,107,26822,-5437,-15562,378,-7,37,-9
2,108,26827,-5455,-15518,374,-6,55,-7
2,109,26832,-5443,-15577,537,-5,67,-6
2,110,26837,-5444,-15567,724,-5,69,-7
2,111,26842,-5479,-15518,724,-6,61,-8
2,112,26847,-5557,-15497,807,-2,42,-5
2,113,26852,-5591,-15448,901,-2,18,-5
2,114,26857,-5586,-15473,932,-2,-7,-2
2,115,26862,-5493,-15471,899,-1,-40,-2
2,116,26867,-5507,-15458,672,1,-82,1
2,117,26872,-5548,-15498,459,0,-90,1
2,118,26877,-5584,-15465,362,-3,-80,0
2,119,26882,-5545,-15451,364,0,-56,-4
2,120,26887,-5486,-15472,329,0,-31,-3
2,121,26892,-5411,-15499,400,-1,-5,-4
2,122,26897,-5412,-15508,400,-1,18,-4
2,123,26902,-5411,-15506,379,-1,35,-5
2,124,26907,-5430,-15520,479,2,51,-5
2,125,26912,-5451,-15528,595,2,64,-4
2,126,26917,-5440,-15529,683,4,65,-4
2,127,26922,-5463,-15541,727,3,63,-6
2,128,26927,-5537,-15527,756,2,55,-5
2,129,26932,-5542,-15532,783,6,36,-3
2,130,26937,-5521,-15462,832,6,15,-5
2,131,26942,-5550,-15447,892,5,-10,-1
2,132,26947,-5604,-15427,894,8,-39,2
2,133,26952,-5631,-15388,734,7,-60,2
2,134,26957,-5547,-15389,757,8,-72,2
2,135,26962,-5476,-15387,845,5,-77,4
2,136,26967,-5455,-15343,839,3,-92,5
2,137,26972,-5445,-15360,697,9,-102,2
2,138,26977,-5447,-15391,484,8,-95,1
2,139,26982,-5461,-15379,444,5,-75,0
2,140,26987,-5369,-15406,425,5,-54,1
2,141,26992,-5313,-15421,375,4,-37,3
2,142,26997,-5285,-15435,326,7,-17,4
2,143,27002,-5332,-15444,302,10,11,4
2,144,27007,-5417,-15432,376,9,37,3
2,145,27012,-5493,-15460,471,9,60,4
2,146,27017,-5436,-15444,570,11,77,4
2,147,27022,-5378,-15457,711,13,88,4
2,148,27027,-5444,-15464,864,8,79,1
2,149,27032,-5491,-15479,960,9,47,7
2,150,27037,-5557,-15444,907,12,16,9
2,151,27042,-5587,-15437,789,15,-4,8
2,152,27047,-5646,-15465,833,15,-18,9
2,153,27052,-5687,-15420,842,13,-27,11
2,154,27058,-5638,-15388,873,13,-40,11
2,155,27062,-5599,-15388,819,14,-54,11
2,156,27067,-5590,-15402,674,13,-56,10
2,157,27072,-5556,-15462,599,14,-55,15
2,158,27077,-5575,-15471,598,11,-37,12
2,159,27082,-5556,-15420,516,11,-20,9
2,160,27087,-5520,-15392,466,12,-3,7
2,161,27092,-5492,-15444,489,12,18,4
2,162,27097,-5482,-15436,523,10,32,6
2,163,27102,-5471,-15443,681,12,34,9
2,164,27107,-5477,-15467,668,13,32,8
2,165,27112,-5471,-15480,599,15,35,6
2,166,27118,-5426,-15502,598,14,35,7
2,167,27122,-5396,-15520,711,14,25,10
2,168,27127,-5421,-15581,671,16,4,10
2,169,27132,-5445,-15612,544,17,-15,12
2,170,27137,-5532,-15650,469,18,-14,14
2,171,27142,-5598,-15603,450,15,-3,14
2,172,27147,-5570,-15557,491,19,2,12
2,173,27152,-5493,-15528,547,16,3,15
2,174,27157,-5482,-15540,585,18,2,15
2,175,27162,-5495,-15511,655,19,-1,13
2,176,27167,-5506,-15412,706,18,-6,14
2,177,27172,-5532,-15420,703,22,-12,14
2,178,27177,-5527,-15385,715,19,-9,15
2,179,27182,-5525,-15331,719,16,-5,16
2,180,27187,-5423,-15398,727,18,1,14
2,181,27192,-5468,-15395,697,16,6,15
2,182,27197,-5537,-15370,700,16,6,16
2,183,27202,-5617,-15403,623,16,7,16
2,184,27207,-5584,-15437,588,16,11,16
2,185,27212,-5513,-15431,603,16,20,16
2,186,27217,-5509,-15421,679,16,27,14
2,187,27222,-5478,-15411,750,15,20,13
2,188,27227,-5442,-15423,711,17,12,15
2,189,27232,-5556,-15479,575,15,9,17
2,190,27237,-5607,-15503,544,12,18,17
2,191,27242,-5653,-15469,567,14,20,15
2,192,27247,-5598,-15436,718,13,16,16
2,193,27252,-5560,-15452,807,13,10,15
2,194,27257,-5521,-15448,771,14,-6,15
2,195,27262,-5565,-15444,718,15,-25,19
2,196,27267,-5607,-15461,660,16,-41,16
2,197,27272,-5616,-15401,594,14,-47,18
2,198,27277,-5632,-15392,554,13,-43,19
2,199,27282,-5592,-15391,503,13,-29,16
2,200,27287,-5573,-15381,508,16,-10,15
2,201,27292,-5521,-15366,563,12,7,15
2,202,27297,-5487,-15356,615,12,15,15
2,203,27302,-5481,-15399,694,13,17,15
2,204,27307,-5534,-15342,704,11,13,16
2,205,27312,-5541,-15327,692,10,14,16
2,206,27317,-5507,-15348,695,10,11,16
2,207,27322,-5473,-15344,767,7,3,16
2,208,27327,-5509,-15362,739,9,-11,17
2,209,27332,-5619,-15337,718,8,-21,15
2,210,27337,-5672,-15379,567,12,-23,17
2,211,27342,-5658,-15361,436,8,-8,17
2,212,27347,-5603,-15402,545,8,14,13
2,213,27352,-5591,-15415,703,9,26,12
2,214,27357,-5645,-15360,697,7,28,9
2,215,27362,-5692,-15386,717,8,24,10
2,216,27367,-5710,-15355,697,8,22,11
2,217,27372,-5678,-15293,717,3,27,9
2,218,27377,-5617,-15282,802,6,27,9
2,219,27382,-5597,-15304,851,7,17,10
2,220,27387,-5633,-15299,822,5,-1,10
2,221,27392,-5661,-15291,693,6,-15,11
2,222,27397,-5646,-15359,633,5,-27,14
2,223,27402,-5581,-15360,669,6,-33,15
2,224,27407,-5541,-15348,597,3,-34,14
2,225,27412,-5534,-15422,524,2,-29,10
2,226,27417,-5551,-15416,488,3,-24,8
2,227,27422,-5586,-15446,442,0,-13,9
2,228,27427,-5634,-15433,440,1,-2,8
2,229,27432,-5631,-15509,475,5,13,6
2,230,27437,-5620,-15473,527,2,28,6
2,231,27442,-5690,-15455,539,0,39,4
2,232,27447,-5677,-15504,584,1,46,2
2,233,27452,-5671,-15523,654,-1,44,1
2,234,27457,-5650,-15504,726,0,40,2
2,235,27462,-5636,-15483,818,3,31,3
2,236,27467,-5690,-15435,844,2,16,-1
2,237,27472,-5757,-15443,774,-1,-5,1
2,238,27477,-5654,-15415,680,-1,-27,4
2,239,27482,-5560,-15452,773,-2,-49,4
2,240,27487,-5573,-15419,786,1,-67,4
2,241,27492,-5662,-15426,638,2,-76,0
2,242,27497,-5758,-15411,466,0,-72,2
2,243,27502,-5665,-15412,406,-2,-57,4
2,244,27507,-5552,-15440,475,-3,-39,1
2,245,27512,-5488,-15445,559,-1,-27,-4
2,246,27517,-5505,-15473,506,1,-18,-2
2,247,27522,-5602,-15477,422,-1,-1,-3
2,248,27527,-5688,-15465,414,-2,19,-3
2,249,27532,-5626,-15441,498,-4,37,-6
2,250,27537,-5548,-15424,661,-6,54,-10
2,251,27542,-5539,-15413,684,-4,59,-11
2,252,27547,-5582,-15389,700,-3,55,-9
2,253,27552,-5645,-15381,680,-1,48,-10
2,254,27557,-5681,-15378,809,-3,41,-8
2,255,27562,-5734,-15434,887,-5,31,-10
2,256,27567,-5702,-15394,938,-6,16,-9
2,257,27572,-5624,-15461,926,-4,0,-9
2,258,27577,-5697,-15454,904,-5,-21,-9
2,259,27582,-5735,-15472,792,-4,-47,-9
2,260,27587,-5755,-15480,626,-5,-64,-8
2,261,27592,-5760,-15529,464,-7,-63,-9
2,262,27597,-5722,-15578,441,-7,-30,-13
2,263,27602,-5662,-15586,534,-6,-17,-14
2,264,27607,-5597,-15635,530,-8,-13,-16
2,265,27612,-5549,-15564,504,-5,-7,-18
2,266,27617,-5560,-15580,535,-5,-1,-14
2,267,27622,-5587,-15555,572,-11,-7,-17
2,268,27627,-5536,-15504,540,-6,-11,-15
2,269,27632,-5515,-15529,505,-4,-7,-16
2,270,27637,-5510,-15498,609,-10,2,-16
2,271,27642,-5544,-15427,654,-9,10,-18
2,272,27647,-5582,-15433,680,-8,13,-17
2,273,27652,-5579,-15470,618,-6,19,-14
2,274,27657,-5539,-15446,600,-9,33,-16
2,275,27662,-5555,-15459,669,-12,44,-20
2,276,27667,-5562,-15452,788,-11,39,-18
2,277,27672,-5606,-15424,855,-9,24,-16
2,278,27677,-5589,-15389,831,-9,11,-16
2,279,27682,-5571,-15437,831,-14,1,-16
2,280,27687,-5668,-15417,786,-13,-11,-17
2,281,27692,-5708,-15461,762,-13,-33,-16
2,282,27697,-5630,-15503,698,-12,-47,-11
2,283,27702,-5550,-15484,633,-9,-53,-10
2,284,27707,-5584,-15506,609,-12,-47,-15
2,285,27712,-5633,-15496,559,-10,-43,-18
2,286,27717,-5673,-15467,459,-9,-45,-16
2,287,27722,-5575,-15531,404,-10,-32,-18
2,288,27727,-5499,-15510,377,-12,-11,-19
2,289,27732,-5422,-15489,345,-9,8,-21
2,290,27737,-5514,-15499,448,-10,23,-22
2,291,27742,-5554,-15513,428,-9,30,-19
2,292,27747,-5498,-15482,474,-10,37,-20
2,293,27752,-5436,-15466,589,-9,51,-21
2,294,27757,-5453,-15430,639,-8,53,-20
2,295,27762,-5460,-15440,754,-7,41,-20
2,296,27767,-5498,-15427,803,-6,21,-16
2,297,27772,-5472,-15384,800,-9,0,-11
2,298,27777,-5489,-15423,757,-6,-21,-10
2,299,27782,-5467,-15403,743,-8,-34,-12
2,300,27787,-5512,-15376,689,-8,-48,-12
2,301,27792,-5595,-15394,621,-4,-57,-10
2,302,27797,-5561,-15381,562,-3,-54,-10
2,303,27802,-5559,-15405,497,-6,-39,-13
2,304,27807,-5559,-15448,505,-9,-18,-16
2,305,27812,-5629,-15449,552,-5,-4,-15
2,306,27817,-5606,-15431,591,-5,9,-17
2,307,27822,-5580,-15343,583,-6,19,-16
2,308,27827,-5534,-15361,618,-8,24,-16
2,309,27832,-5457,-15371,662,-8,24,-15
2,310,27837,-5496,-15412,636,-5,25,-16
2,311,27842,-5508,-15402,560,-5,23,-16
2,312,27847,-5511,-15391,503,-6,28,-14
2,313,27852,-5535,-15434,536,-2,32,-13
2,314,27857,-5551,-15430,563,-3,27,-14
2,315,27862,-5541,-15427,582,-1,26,-14
2,316,27867,-5563,-15408,581,0,28,-14
2,317,27872,-5610,-15409,660,1,22,-15
2,318,27877,-5761,-15453,699,-1,8,-13
2,319,27882,-5707,-15471,728,1,-14,-12
2,320,27887,-5611,-15469,745,3,-32,-9
2,321,27892,-5590,-15422,722,-1,-41,-10
2,322,27897,-5576,-15404,721,2,-49,-11
2,323,27902,-5626,-15416,665,2,-52,-11
2,324,27907,-5655,-15465,595,3,-55,-9
2,325,27912,-5610,-15401,520,3,-43,-12
2,326,27917,-5520,-15392,596,-1,-18,-14
2,327,27922,-5563,-15411,666,2,-2,-13
2,328,27927,-5535,-15364,647,2,2,-16
2,329,27932,-5525,-15392,587,1,11,-17
2,330,27937,-5545,-15408,613,4,17,-13
2,331,27942,-5516,-15428,705,1,17,-12
2,332,27947,-5463,-15445,654,2,10,-14
2,333,27952,-5467,-15458,590,4,2,-10
2,334,27957,-5491,-15441,648,4,-7,-10
2,335,27962,-5474,-15496,524,7,-30,-8
2,336,27967,-5404,-15514,469,8,-35,-7
2,337,27972,-5385,-15526,488,6,-27,-6
2,338,27977,-5434,-15494,476,7,-22,-6
2,339,27982,-5469,-15498,421,9,-18,-6
2,340,27987,-5480,-15520,448,9,-10,-4
2,341,27992,-5528,-15529,513,9,2,-3
2,342,27997,-5568,-15533,574,8,18,-6
2,343,28002,-5565,-15492,636,7,37,-9
2,344,28007,-5587,-15470,677,8,48,-9
2,345,28012,-5608,-15466,747,7,48,-11
2,346,28017,-5587,-15484,712,6,42,-10
2,347,28022,-5615,-15478,722,7,33,-8
2,348,28027,-5629,-15496,706,9,24,-3
2,349,28032,-5648,-15501,665,8,15,-4
2,350,28037,-5580,-15469,685,9,3,-4
2,351,28042,-5428,-15470,635,10,-17,0
2,352,28047,-5395,-15452,522,9,-27,-2
2,353,28052,-5441,-15486,351,10,-30,-1
2,354,28057,-5470,-15523,241,12,-20,0
2,355,28062,-5490,-15531,235,13,2,3
2,356,28067,-5481,-15556,273,12,31,-1
2,357,28072,-5425,-15535,495,11,51,-2
2,358,28077,-5373,-15481,690,12,60,-1
2,359,28082,-5402,-15466,738,13,57,-2
2,360,28087,-5478,-15439,765,15,42,0
2,361,28092,-5569,-15394,790,13,24,1
2,362,28097,-5634,-15364,784,13,10,6
2,363,28102,-5651,-15357,734,12,6,7
2,364,28107,-5628,-15319,735,10,9,6
2,365,28112,-5660,-15329,750,12,13,6
2,366,28117,-5664,-15362,759,13,17,7
2,367,28122,-5662,-15322,750,10,17,7
2,368,28127,-5676,-15336,760,8,17,4
2,369,28132,-5580,-15392,721,10,12,5
2,370,28137,-5525,-15399,736,11,9,8
2,371,28142,-5506,-15386,727,11,-2,8
2,372,28147,-5565,-15372,583,10,-18,10
2,373,28152,-5659,-15391,480,8,-25,10
2,374,28157,-5604,-15411,346,10,-24,11
2,375,28162,-5536,-15429,327,10,-10,13
2,376,28167,-5475,-15471,347,9,11,11
2,377,28172,-5554,-15468,385,12,26,13
2,378,28177,-5591,-15490,476,11,44,10
2,379,28182,-5679,-15467,600,10,54,9
2,380,28187,-5685,-15477,750,13,51,12
2,381,28192,-5647,-15417,816,12,43,17
2,382,28197,-5602,-15406,975,11,20,16
2,383,28202,-5711,-15439,1059,11,-17,18
2,384,28207,-5783,-15447,994,14,-61,24
2,385,28212,-5823,-15447,866,14,-95,28
2,386,28217,-5860,-15516,751,13,-109,30
2,387,28222,-5852,-15544,720,13,-118,27
2,388,28227,-5917,-15486,715,15,-120,30
2,389,28232,-5949,-15357,591,16,-127,32
2,390,28237,-5986,-15371,517,14,-128,35
2,391,28242,-5985,-15423,663,14,-119,36
2,392,28247,-5994,-15447,775,11,-104,35
2,393,28252,-5969,-15413,876,9,-87,35
2,394,28257,-6034,-15387,789,11,-62,32
2,395,28262,-6195,-15445,827,12,-50,32
2,396,28267,-6136,-15412,1035,12,-60,35
2,397,28272,-5971,-15309,1194,7,-83,38
2,398,28277,-5967,-15241,1286,9,-105,44
2,399,28282,-6000,-15156,1245,10,-125,45
2,400,28287,-6107,-15142,1215,11,-141,53
2,401,28292,-6220,-15326,1249,11,-161,59
2,402,28297,-6290,-15405,1235,11,-189,61
2,403,28302,-6369,-15526,1274,16,-214,66
2,404,28307,-6430,-15451,1316,19,-248,71
2,405,28312,-6367,-15311,1316,16,-294,71
2,406,28317,-6339,-15265,1265,16,-339,77
2,407,28322,-6358,-15405,987,20,-369,82
2,408,28327,-6373,-15392,527,27,-365,90
2,409,28332,-6399,-15302,538,30,-331,90
2,410,28337,-6301,-15256,644,34,-289,92
2,411,28342,-6175,-15335,701,37,-246,96
2,412,28347,-6052,-15424,707,39,-198,100
2,413,28352,-5917,-15350,771,44,-153,101
2,414,28357,-5988,-15461,821,48,-112,112
2,415,28362,-6020,-15408,736,53,-94,114
2,416,28367,-6103,-15234,888,57,-66,113
2,417,28372,-6352,-15266,1075,62,-36,123
2,418,28377,-6276,-15216,1131,63,-12,132
2,419,28382,-6113,-15239,1081,67,18,137
2,420,28387,-6120,-15294,1197,70,38,143
2,421,28392,-6206,-15312,1313,75,22,144
2,422,28397,-6332,-15276,1351,81,-10,150
2,423,28402,-6553,-15253,1407,83,-37,165
2,424,28407,-6645,-15245,1611,89,-60,170
2,425,28412,-6482,-15230,1837,94,-91,176
2,426,28417,-6325,-15246,2033,95,-142,184
2,427,28422,-6210,-15203,2092,102,-221,194
2,428,28427,-6265,-15142,1854,108,-319,202
2,429,28432,-6297,-15088,1530,112,-406,216
2,430,28437,-6247,-15195,1195,117,-454,225
2,431,28442,-6096,-15241,862,122,-448,230
2,432,28447,-5923,-15246,629,125,-408,235
2,433,28452,-5883,-15223,647,131,-360,237
2,434,28457,-5892,-15113,641,137,-319,241
2,435,28462,-5891,-15131,524,143,-283,249
2,436,28467,-5848,-15178,572,148,-240,259
2,437,28472,-5868,-15146,746,153,-195,265
2,438,28477,-5807,-15112,967,156,-156,267
2,439,28482,-5776,-15163,1130,162,-143,277
2,440,28487,-5744,-15209,1062,171,-151,287
2,441,28492,-5957,-15241,910,174,-159,291
2,442,28497,-5989,-15238,960,180,-154,298
2,443,28502,-6033,-15399,788,181,-143,309
2,444,28507,-5884,-15372,888,185,-107,307
2,445,28512,-5974,-15443,843,193,-81,314
2,446,28517,-6070,-15384,992,196,-66,316
2,447,28522,-6190,-15173,1119,194,-57,317
2,448,28527,-6177,-15187,1412,198,-47,328
2,449,28532,-5904,-15195,1468,202,-53,334
2,450,28537,-5869,-15102,1359,201,-64,336
2,451,28542,-6119,-15019,1501,203,-75,342
2,452,28547,-6354,-14944,1699,203,-92,347
2,453,28552,-6166,-14919,1813,207,-126,354
2,454,28557,-5721,-14956,1721,210,-160,364
2,455,28562,-5598,-15040,1608,206,-187,364
2,456,28567,-5846,-15073,1506,207,-223,365
2,457,28572,-6093,-15045,1199,208,-254,370
2,458,28577,-6096,-15065,761,210,-238,375
2,459,28582,-5915,-15111,587,207,-170,377
2,460,28587,-5859,-15180,763,206,-84,371
2,461,28592,-5888,-15267,931,207,-13,364
2,462,28597,-6014,-15242,979,207,41,362
2,463,28602,-6014,-15259,988,203,96,362
2,464,28607,-5886,-15212,1132,203,142,357
2,465,28612,-5655,-15164,1341,196,178,351
2,466,28617,-5514,-15197,1383,192,204,352
2,467,28622,-5508,-15207,1211,189,230,348
2,468,28627,-5652,-15134,733,183,282,341
2,469,28632,-5923,-15036,520,176,388,333
2,470,28637,-6424,-14883,834,162,520,323
2,471,28642,-6716,-14763,1364,152,635,308
2,472,28647,-6505,-14904,2033,144,698,308
2,473,28652,-5845,-15003,2853,134,685,303
2,474,28657,-5470,-15047,3529,125,569,294
2,475,28662,-5816,-15160,3637,120,357,296
2,476,28667,-6352,-15261,2814,117,112,301
2,477,28672,-6697,-15465,1835,111,-70,304
2,478,28677,-6597,-15636,1300,99,-140,297
2,479,28682,-6433,-15782,1132,89,-141,278
2,480,28687,-6366,-15904,865,87,-125,259
2,481,28692,-6585,-15833,185,72,-61,218
2,482,28697,-6500,-15755,197,59,13,200
2,483,28702,-6217,-15740,404,49,101,181
2,484,28707,-5952,-15822,301,42,185,159
2,485,28712,-6047,-15797,291,37,269,132
2,486,28717,-6125,-15637,149,27,339,111
2,487,28722,-6363,-15498,289,14,427,91
2,488,28727,-6358,-15474,341,5,506,72
2,489,28732,-6440,-15378,501,-4,599,49
2,490,28737,-6623,-15398,957,-15,676,22
2,491,28742,-6822,-15315,1607,-27,705,-8
2,492,28747,-6818,-15203,2250,-34,662,-28
2,493,28752,-6814,-15129,2740,-43,556,-42
2,494,28757,-6756,-15110,2996,-53,406,-62
2,495,28762,-6733,-15120,3088,-62,224,-80
2,496,28767,-6713,-15250,2750,-65,22,-92
2,497,28772,-6934,-15369,2475,-74,-155,-110
2,498,28777,-7090,-15479,2023,-80,-313,-131
2,499,28782,-7258,-15530,1354,-88,-401,-153
2,500,28787,-7264,-15487,801,-102,-415,-180
2,501,28792,-7097,-15535,736,-113,-378,-213
2,502,28797,-6911,-15444,974,-124,-334,-246
2,503,28802,-6638,-15429,764,-127,-320,-273
2,504,28807,-6547,-15350,503,-133,-285,-303
2,505,28812,-6385,-15400,193,-140,-229,-330
2,506,28817,-6361,-15390,482,-156,-143,-363
2,507,28822,-6293,-15320,545,-162,-90,-389
2,508,28827,-6540,-15264,701,-164,-31,-414
2,509,28832,-6689,-15292,750,-166,30,-442
2,510,28837,-6377,-15305,907,-174,87,-469
2,511,28842,-5931,-15304,1393,-179,111,-497
2,512,28847,-5736,-15312,1957,-184,67,-518
2,513,28852,-5836,-15290,1902,-187,-40,-537
2,514,28857,-5952,-15296,1384,-188,-142,-551
2,515,28862,-6017,-15286,1082,-191,-183,-571
2,516,28867,-6057,-15309,974,-195,-179,-594
2,517,28872,-6019,-15403,1044,-201,-167,-616
2,518,28877,-5821,-15544,1065,-200,-175,-639
2,519,28882,-5519,-15616,934,-198,-196,-664
2,520,28887,-5322,-15566,798,-203,-216,-683
2,521,28892,-5382,-15465,681,-205,-222,-699
2,522,28897,-5449,-15393,349,-206,-213,-720
2,523,28902,-5352,-15350,-71,-207,-165,-740
2,524,28907,-4964,-15427,-453,-204,-87,-757
2,525,28912,-4698,-15363,-357,-207,25,-785
2,526,28917,-4717,-15412,-369,-207,146,-811
2,527,28922,-4999,-15413,-347,-203,272,-835
2,528,28927,-5192,-15365,-455,-202,400,-855
2,529,28932,-5187,-15332,-80,-202,537,-875
2,530,28937,-5059,-15307,646,-199,630,-896
2,531,28942,-4855,-15312,1419,-197,649,-916
2,532,28947,-4938,-15294,2124,-190,579,-934
2,533,28952,-5195,-15245,2476,-182,428,-942
2,534,28957,-5512,-15176,2778,-179,248,-945
2,535,28962,-5530,-15190,2852,-175,57,-950
2,536,28967,-5012,-15147,2842,-171,-124,-955
2,537,28972,-4689,-15319,2707,-170,-309,-966
2,538,28977,-5810,-15759,2595,-165,-526,-974
2,539,28982,-5475,-15622,1918,-160,-770,-972
2,540,28987,-4646,-15218,1034,-176,-878,-970
2,541,28992,-4627,-15190,802,-177,-808,-991
2,542,28997,-5066,-15378,123,-175,-693,-1020
2,543,29002,-5086,-15240,-716,-178,-578,-1033
2,544,29007,-4513,-15267,-930,-185,-437,-1044
2,545,29012,-3887,-15301,-549,-182,-265,-1068
2,546,29017,-3673,-15507,-158,-180,-88,-1088
2,547,29022,-3857,-15657,-251,-174,67,-1101
2,548,29027,-3986,-15599,-423,-169,185,-1115
2,549,29032,-3924,-15514,-105,-165,265,-1125
2,550,29037,-3599,-15533,445,-160,299,-1130
2,551,29042,-3347,-15622,929,-151,303,-1137
2,552,29047,-3348,-15709,1175,-141,266,-1141
2,553,29052,-3618,-15703,1229,-135,194,-1142
2,554,29057,-3483,-15786,1180,-126,53,-1138
2,555,29062,-3236,-15919,1262,-121,1,-1139
2,556,29067,-3744,-15822,1544,-117,-52,-1143
2,557,29072,-3403,-15923,1200,-114,-126,-1130
2,558,29077,-2437,-15699,571,-108,-202,-1141
2,559,29082,-2759,-15970,992,-114,-188,-1151
2,560,29087,-3560,-15638,885,-105,-245,-1145
2,561,29092,-2738,-15902,38,-102,-263,-1126
2,562,29097,-2503,-15838,-537,-96,-169,-1132
2,563,29102,-2085,-16267,-296,-102,-35,-1143
2,564,29107,-2613,-16085,493,-105,37,-1154
2,565,29112,-2565,-16161,337,-95,47,-1151
2,566,29117,-2632,-16173,-153,-89,94,-1145
2,567,29122,-2156,-16242,69,-91,211,-1152
2,568,29127,-2178,-16193,735,-97,292,-1157
2,569,29132,-2341,-16238,1314,-92,281,-1155
2,570,29137,-2769,-16223,1478,-84,209,-1145
2,571,29142,-2779,-16216,1239,-74,134,-1132
2,572,29147,-2638,-16234,1406,-77,108,-1130
2,573,29152,-2500,-16165,1747,-81,45,-1127
2,574,29157,-2226,-16111,2247,-81,-82,-1116
2,575,29162,-2128,-16146,2136,-76,-241,-1099
2,576,29167,-2054,-16329,1414,-72,-366,-1083
2,577,29172,-2206,-16568,679,-77,-401,-1078
2,578,29177,-2353,-16663,355,-82,-379,-1072
2,579,29182,-2262,-16756,199,-82,-346,-1067
2,580,29187,-2072,-16783,-80,-81,-297,-1064
2,581,29192,-1843,-17015,-483,-79,-217,-1058
2,582,29197,-1636,-17069,-626,-81,-103,-1060
2,583,29202,-1575,-17037,-513,-82,1,-1061
2,584,29207,-1526,-17137,-358,-77,68,-1053
2,585,29212,-1367,-17114,-478,-68,99,-1044
2,586,29217,-1171,-17097,-544,-62,141,-1034
2,587,29222,-1020,-16935,-367,-61,198,-1031
2,588,29227,-947,-16726,-16,-61,239,-1024
2,589,29232,-921,-16579,105,-53,250,-1007
2,590,29237,-939,-16504,-141,-46,265,-992
2,591,29242,-930,-16532,-120,-41,309,-982
2,592,29247,-1033,-16499,244,-44,364,-971
2,593,29252,-1094,-16537,758,-38,390,-958
2,594,29257,-730,-16665,957,-26,366,-941
2,595,29262,-28,-16719,1130,-20,303,-923
2,596,29267,244,-16637,1552,-22,193,-913
2,597,29272,-71,-16587,1831,-19,22,-893
2,598,29277,-352,-16683,1219,-13,-165,-861
2,599,29282,2372,-17341,-339,-9,-257,-835
2,600,29287,7821,-24547,10160,-80,-298,-900
2,601,29292,-28997,-11061,29373,-107,-541,-1073
2,602,29297,-32768,-11239,-19701,266,-4883,817
2,603,29302,-10597,-15033,-32768,-91,-4404,2012
2,604,29307,31431,-12497,979,-288,1887,584
2,605,29312,29511,-19401,24787,-141,2562,-238
2,606,29317,-6876,-21971,18209,56,372,-56
2,607,29322,-30282,-12740,-14153,125,-1514,598
2,608,29327,-9374,-12323,-29438,-38,-819,1116
2,609,29332,18083,-13575,-8699,-136,2430,624
2,610,29337,20701,-17707,20120,-236,4127,29
2,611,29342,-1195,-16809,29120,-148,2361,-1
2,612,29347,-12371,-14405,-2117,144,-1345,753
2,613,29352,-6281,-16293,-22881,77,-1325,1092
2,614,29357,861,-14699,-8376,-118,1606,595
2,615,29362,7229,-16658,10033,-183,2864,318
2,616,29367,466,-16438,20477,-151,2073,277
2,617,29372,-4239,-15929,1932,42,-312,605
2,618,29377,-4906,-16347,-10533,36,-747,805
2,619,29382,-3695,-15029,-3981,-113,630,592
2,620,29387,-409,-15014,8049,-158,1413,459
2,621,29392,1368,-15975,11079,-99,849,488
2,622,29397,18,-16928,2402,-15,-228,580
2,623,29402,-2995,-16356,-2098,-37,-630,596
2,624,29407,-4307,-15534,124,-94,-395,575
2,625,29412,-2736,-15488,3792,-103,-149,570
2,626,29417,489,-16524,2531,-66,-236,586
2,627,29422,459,-16945,-25,-53,-339,550
2,628,29427,-3994,-16116,444,-70,-446,528
2,629,29432,-2675,-16031,-354,-53,-361,551
2,630,29437,-63,-16732,-1427,-48,-101,552
2,631,29442,413,-16987,-440,-61,166,496
2,632,29447,-1255,-16830,1173,-60,139,468
2,633,29452,-2617,-16713,579,-36,-89,495
2,634,29457,-1996,-16711,-1684,-19,-120,517
2,635,29462,-787,-16918,-1763,-29,169,501
2,636,29467,-492,-16980,103,-43,427,461
2,637,29472,-1352,-16902,1297,-32,374,450
2,638,29477,-2011,-16855,238,-6,149,474
2,639,29482,-2067,-16865,-1139,8,102,482
2,640,29487,-1876,-16819,-783,-5,275,461
2,641,29492,-1824,-16773,925,-14,419,440
2,642,29497,-1867,-16687,1572,0,343,435
2,643,29502,-2007,-16757,973,13,165,448
2,644,29507,-2025,-16773,492,28,44,450
2,645,29512,-2047,-16668,656,25,11,440
2,646,29517,-2019,-16735,1252,23,-16,439
2,647,29522,-1853,-16740,1353,27,-96,438
2,648,29527,-1840,-16693,1060,40,-198,437
2,649,29532,-1964,-16575,614,49,-276,433
2,650,29537,-2193,-16455,512,49,-295,429
2,651,29542,-2138,-16414,442,50,-277,422
2,652,29547,-1946,-16293,347,54,-235,415
2,653,29552,-1732,-16267,282,57,-188,409
2,654,29557,-1733,-16299,297,60,-146,402
2,655,29562,-1917,-16235,277,63,-106,393
2,656,29567,-1965,-16279,98,65,-48,388
2,657,29572,-1895,-16273,-44,68,29,378
2,658,29577,-1805,-16269,113,70,102,370
2,659,29582,-1820,-16317,420,72,145,360
2,660,29587,-1937,-16296,624,74,157,354
2,661,29592,-2161,-16289,573,82,159,351
2,662,29597,-2207,-16312,613,82,173,345
2,663,29602,-2070,-16334,901,81,173,339
2,664,29607,-1920,-16428,1222,85,125,337
2,665,29612,-1925,-16501,1254,87,51,332
2,666,29617,-2140,-16569,1161,96,-31,330
2,667,29622,-2241,-16561,896,103,-102,327
2,668,29627,-2299,-16486,806,103,-146,323
2,669,29632,-2226,-16495,795,106,-184,321
2,670,29637,-2169,-16496,793,109,-212,314
2,671,29642,-2176,-16498,562,117,-239,311
2,672,29647,-2288,-16455,394,122,-227,303
2,673,29652,-2395,-16424,242,122,-198,295
2,674,29657,-2469,-16414,315,123,-155,285
2,675,29662,-2440,-16346,373,125,-118,275
2,676,29667,-2361,-16319,418,129,-83,269
2,677,29672,-2335,-16345,492,132,-50,258
2,678,29677,-2386,-16339,627,133,-19,246
2,679,29682,-2511,-16320,634,135,3,239
2,680,29687,-2523,-16370,658,136,17,234
2,681,29692,-2552,-16330,692,138,26,224
2,682,29697,-2639,-16381,806,137,38,215
2,683,29702,-2705,-16430,889,139,38,207
2,684,29707,-2786,-16443,994,143,37,199
2,685,29712,-2788,-16485,1132,142,37,193
2,686,29717,-2782,-16470,1169,145,27,185
2,687,29722,-2778,-16354,1173,147,13,175
2,688,29727,-2816,-16312,1150,146,-15,169
2,689,29732,-2806,-16177,1203,144,-56,164
2,690,29737,-2794,-16113,1269,147,-90,158
2,691,29742,-2835,-16117,1163,151,-116,150
2,692,29747,-2801,-16150,1074,150,-132,141
2,693,29752,-2751,-16109,941,148,-141,135
2,694,29757,-2650,-16074,1006,149,-157,127
2,695,29762,-2695,-16122,915,152,-171,121
2,696,29767,-2721,-16219,774,152,-183,112
2,697,29772,-2609,-16200,714,151,-178,105
2,698,29777,-2559,-16213,682,151,-165,99
2,699,29782,-2562,-16226,668,153,-142,90
2,700,29787,-2568,-16304,577,158,-121,80
2,701,29792,-2480,-16463,610,158,-64,71
2,702,29797,-2568,-16452,752,154,-35,62
2,703,29802,-2615,-16432,829,157,-12,55
2,704,29807,-2630,-16382,812,159,11,49
2,705,29812,-2547,-16373,769,160,27,44
2,706,29817,-2474,-16320,873,158,29,36
2,707,29822,-2505,-16332,1120,158,11,32
2,708,29827,-2536,-16299,1188,160,-27,30
2,709,29832,-2583,-16296,1065,159,-53,27
2,710,29837,-2606,-16346,918,158,-60,23
2,711,29842,-2639,-16338,929,155,-64,18
2,712,29847,-2624,-16330,1099,158,-78,13
2,713,29852,-2627,-16351,1134,160,-105,8
2,714,29857,-2564,-16339,1034,160,-116,7
2,715,29862,-2568,-16295,896,157,-103,0
2,716,29867,-2603,-16254,871,155,-80,-4
2,717,29872,-2642,-16259,942,153,-55,-12
2,718,29877,-2581,-16273,961,150,-33,-15
2,719,29882,-2479,-16253,861,150,2,-20
2,720,29887,-2487,-16218,760,147,50,-26
2,721,29892,-2622,-16198,844,143,95,-34
2,722,29897,-2618,-16220,919,142,134,-36
2,723,29902,-2534,-16179,877,138,175,-43
2,724,29907,-2500,-16160,892,136,223,-53
2,725,29912,-2582,-16162,916,134,269,-58
2,726,29917,-2653,-16144,1039,131,294,-62
2,727,29922,-2632,-16164,1140,129,311,-65
2,728,29927,-2653,-16115,1168,129,327,-70
2,729,29932,-3523,-16001,1843,126,336,-76
2,730,29937,-2703,-16115,1095,126,291,-61
2,731,29942,-2032,-16053,1275,119,267,-77
2,732,29947,-2891,-16044,2497,107,261,-93
2,733,29952,-3819,-15724,2318,122,122,-79
2,734,29957,-2573,-16167,790,123,21,-60
2,735,29962,-2435,-15779,1108,108,66,-78
2,736,29967,-2283,-16125,1835,103,71,-88
2,737,29972,-3077,-15953,2052,105,-12,-93
2,738,29977,-2915,-16121,738,114,-104,-80
2,739,29982,-2840,-16191,41,108,-61,-82
2,740,29987,-2578,-16144,291,97,38,-95
2,741,29992,-2735,-16164,1114,93,105,-107
2,742,29997,-2721,-16190,752,99,83,-103
2,743,30002,-2523,-16325,206,106,98,-102
2,744,30007,-2422,-16309,22,102,169,-111
2,745,30012,-2471,-16367,576,94,254,-116
2,746,30017,-2553,-16301,892,92,270,-118
2,747,30022,-2499,-16351,811,98,252,-114
2,748,30027,-2509,-16379,778,98,261,-116
2,749,30032,-2570,-16331,1089,96,263,-117
2,750,30037,-2720,-16398,1371,94,232,-115
2,751,30042,-2878,-16306,1601,93,166,-114
2,752,30047,-2795,-16388,1226,95,80,-107
2,753,30052,-2814,-16466,1389,93,19,-108
2,754,30057,-2858,-16468,1854,86,-49,-105
2,755,30062,-2632,-16457,1765,86,-124,-98
2,756,30067,-2631,-16514,1354,87,-158,-99
2,757,30072,-2780,-16510,1028,85,-162,-98
2,758,30077,-2804,-16450,1049,79,-163,-95
2,759,30082,-2687,-16383,1142,70,-173,-96
2,760,30087,-2541,-16329,1018,73,-177,-92
2,761,30092,-2395,-16382,741,73,-149,-92
2,762,30097,-2527,-16319,950,64,-78,-96
2,763,30102,-2502,-16228,985,58,-37,-92
2,764,30107,-2571,-16247,1019,56,-17,-94
2,765,30112,-2363,-16330,889,59,-20,-85
2,766,30117,-2250,-16340,1072,51,-3,-81
2,767,30122,-2253,-16324,1237,47,6,-78
2,768,30127,-2444,-16287,1253,47,2,-72
2,769,30132,-2618,-16259,884,45,-9,-68
2,770,30137,-2734,-16231,671,41,5,-60
2,771,30142,-2796,-16269,833,36,32,-59
2,772,30147,-2814,-16303,1085,36,57,-56
2,773,30152,-2771,-16315,1203,33,72,-55
2,774,30157,-2699,-16151,1208,27,81,-50
2,775,30162,-2739,-16126,1224,24,68,-42
2,776,30167,-2749,-16149,1301,17,56,-35
2,777,30172,-2604,-16116,1242,14,38,-30
2,778,30177,-2550,-16085,1274,12,28,-26
2,779,30182,-2625,-16059,1239,12,15,-20
2,780,30187,-2683,-16061,1282,9,5,-14
2,781,30192,-2687,-16054,1179,3,-7,-8
2,782,30197,-2500,-16082,1214,-1,-7,1
2,783,30202,-2555,-16103,989,2,2,3
2,784,30207,-2649,-16140,982,-5,7,10
2,785,30212,-2692,-16155,855,-7,5,15
2,786,30217,-2604,-16189,953,-8,24,23
2,787,30222,-2520,-16097,804,-12,53,22
2,788,30227,-2516,-16075,872,-16,108,25
2,789,30232,-2575,-16057,871,-19,142,29
2,790,30237,-2581,-16037,902,-24,165,33
2,791,30242,-2637,-16061,873,-25,187,39
2,792,30247,-2675,-16133,853,-25,215,43
2,793,30252,-2815,-16133,919,-30,243,45
2,794,30257,-2895,-16121,1065,-31,262,49
2,795,30262,-2907,-16067,1286,-34,267,52
2,796,30267,-2893,-16087,1486,-37,256,54
2,797,30272,-2931,-16128,1486,-39,230,55
2,798,30277,-2979,-16090,1528,-40,194,64
2,799,30282,-3019,-16078,1688,-43,148,65
2,800,30287,-3035,-16005,1862,-46,92,68
2,801,30292,-2895,-15971,1831,-47,28,80
2,802,30297,-2845,-16027,1725,-48,-30,85
2,803,30302,-2801,-16020,1634,-51,-79,87
2,804,30307,-2850,-16019,1483,-54,-117,92
2,805,30312,-2964,-16053,1207,-54,-144,98
2,806,30317,-3043,-16055,804,-53,-143,99
2,807,30322,-3035,-16020,603,-59,-110,99
2,808,30327,-2958,-16028,651,-62,-60,95
2,809,30332,-2951,-16005,808,-61,-9,95
2,810,30337,-2958,-15990,783,-61,38,93
2,811,30342,-2992,-16008,749,-65,92,89
2,812,30347,-2993,-16053,855,-66,138,92
2,813,30352,-2910,-16022,1074,-68,167,92
2,814,30357,-2822,-16021,1244,-70,175,90
2,815,30362,-2761,-15990,1322,-69,165,91
2,816,30367,-2842,-16003,1307,-67,153,94
2,817,30372,-2984,-16040,1288,-68,144,96
2,818,30377,-3030,-16097,1264,-68,129,99
2,819,30382,-2969,-16099,1230,-70,111,97
2,820,30387,-3000,-16081,1413,-74,93,96
2,821,30392,-3068,-16040,1487,-74,53,99
2,822,30397,-3109,-16044,1340,-71,20,100
2,823,30402,-3106,-16085,1170,-70,8,101
2,824,30407,-3139,-16138,1094,-72,11,99
2,825,30412,-3143,-16133,1274,-77,16,97
2,826,30417,-3127,-16135,1259,-76,-4,97
2,827,30422,-3170,-16102,1125,-72,-18,95
2,828,30427,-3130,-16072,991,-72,-10,96
2,829,30432,-3138,-16128,1041,-75,17,93
2,830,30437,-3136,-16119,1069,-76,39,91
2,831,30442,-3053,-16214,1119,-73,43,90
2,832,30447,-3057,-16195,1012,-71,53,85
2,833,30452,-3101,-16225,966,-75,72,83
2,834,30457,-3168,-16211,1033,-76,97,78
2,835,30462,-3100,-16150,1085,-77,106,77
2,836,30467,-3006,-16175,1195,-75,111,76
2,837,30472,-2966,-16239,1231,-73,106,75
2,838,30477,-3050,-16227,1229,-75,96,72
2,839,30482,-3155,-16192,1061,-75,84,72
2,840,30487,-3165,-16170,1036,-74,80,73
2,841,30492,-3136,-16208,961,-73,82,72
2,842,30497,-3173,-16210,957,-74,90,67
2,843,30502,-3230,-16221,907,-71,98,64
2,844,30507,-3264,-16179,868,-70,108,59
2,845,30512,-3233,-16149,890,-71,122,54
2,846,30517,-3180,-16123,958,-73,141,53
2,847,30522,-3096,-16122,1050,-68,147,49
2,848,30527,-3154,-16128,1007,-70,146,46
2,849,30532,-3164,-16093,1081,-70,142,47
2,850,30537,-3148,-16103,1147,-69,136,45
2,851,30542,-3159,-16152,1088,-65,124,39
2,852,30547,-3151,-16188,1054,-64,116,40
2,853,30552,-3169,-16159,1095,-66,107,37
2,854,30557,-3163,-16189,1093,-66,94,37
2,855,30562,-3110,-16154,1046,-65,77,34
2,856,30567,-3077,-16134,1038,-67,64,33
2,857,30572,-3110,-16182,932,-62,54,33
2,858,30577,-3117,-16190,801,-60,50,31
2,859,30582,-3145,-16209,793,-61,59,28
2,860,30587,-3096,-16246,739,-60,72,27
2,861,30592,-3127,-16245,774,-58,87,21
2,862,30597,-3132,-16213,815,-56,98,20
2,863,30602,-3113,-16216,831,-53,99,19
2,864,30607,-3066,-16222,867,-55,97,16
2,865,30612,-3048,-16157,970,-52,87,18
2,866,30617,-3070,-16159,1027,-48,69,18
2,867,30622,-3036,-16188,994,-50,53,15
2,868,30627,-3025,-16172,955,-48,36,13
2,869,30632,-3053,-16133,943,-46,16,12
2,870,30637,-3051,-16117,994,-44,-1,11
2,871,30642,-3006,-16050,999,-46,-16,12
2,872,30647,-2990,-16023,944,-43,-22,11
2,873,30652,-2979,-15986,903,-40,-21,14
2,874,30657,-3074,-15985,891,-40,-23,12
2,875,30662,-3060,-15895,816,-41,-30,9
2,876,30667,-2982,-15840,796,-40,-30,12
2,877,30672,-2931,-15962,793,-39,-15,13
2,878,30677,-2875,-15961,773,-38,0,7
2,879,30682,-2940,-15940,791,-37,12,4
2,880,30687,-2991,-15978,797,-37,20,5
2,881,30692,-2899,-15967,823,-36,28,4
2,882,30697,-2822,-15959,819,-36,38,5
2,883,30702,-2852,-15970,812,-37,49,3
2,884,30707,-2966,-16018,753,-33,53,-3
2,885,30712,-3078,-15989,712,-32,57,-1
2,886,30717,-3129,-16010,717,-32,59,2
2,887,30722,-3038,-16029,850,-28,63,-1
2,888,30727,-3004,-16043,967,-30,66,-2
2,889,30732,-3012,-16027,1001,-30,58,-3
2,890,30737,-3062,-16014,982,-27,41,-4
2,891,30742,-3158,-16053,963,-27,29,-3
2,892,30747,-3138,-16021,923,-28,15,-1
2,893,30752,-3076,-16040,930,-26,7,0
2,894,30757,-3108,-16015,989,-23,-4,0
2,895,30762,-3194,-16058,995,-23,-10,-2
2,896,30767,-3174,-16046,918,-23,-13,-2
2,897,30772,-3143,-16105,837,-21,-12,-1
2,898,30777,-3090,-16100,685,-20,-2,-6
2,899,30782,-3154,-16171,703,-19,7,-6
2,900,30787,-3180,-16205,718,-20,8,-6
2,901,30792,-3160,-16217,656,-20,20,-4
2,902,30797,-3014,-16305,637,-17,38,-5
2,903,30802,-3023,-16321,667,-18,56,-12
2,904,30807,-3086,-16293,674,-18,67,-13
2,905,30812,-3213,-16356,595,-17,70,-10
2,906,30817,-3222,-16337,475,-14,83,-11
2,907,30822,-3148,-16322,500,-14,105,-14
2,908,30827,-3145,-16391,616,-15,126,-14
2,909,30832,-3164,-16353,776,-11,134,-16
2,910,30837,-3230,-16320,818,-9,133,-18
2,911,30842,-3228,-16306,865,-10,133,-17
2,912,30847,-3184,-16223,863,-9,124,-15
2,913,30852,-3214,-16172,945,-9,110,-16
2,914,30857,-3198,-16235,1006,-10,89,-13
2,915,30862,-3155,-16158,926,-11,72,-16
2,916,30867,-3212,-16104,826,-11,69,-13
2,917,30872,-3383,-16238,683,-10,69,-12
2,918,30877,-3510,-16310,639,-8,72,-14
2,919,30882,-3429,-16337,734,-7,77,-12
2,920,30887,-3145,-16320,903,-10,71,-14
2,921,30892,-3243,-16319,912,-7,50,-17
2,922,30897,-3279,-16278,935,-8,12,-14
2,923,30902,-3164,-16262,890,-8,-31,-9
2,924,30907,-3099,-16273,815,-7,-58,-9
2,925,30912,-3156,-16327,735,-5,-71,-9
2,926,30917,-3182,-16347,557,-3,-70,-7
2,927,30922,-3197,-16318,385,-4,-62,-7
2,928,30927,-3174,-16221,365,-5,-40,-9
2,929,30932,-3094,-16183,370,-8,-14,-6
2,930,30937,-3032,-16210,441,-6,9,-7
2,931,30942,-3005,-16138,505,-4,34,-6
2,932,30947,-3035,-16111,537,-9,63,-5
2,933,30952,-3047,-16055,595,-8,95,-6
2,934,30957,-3091,-15991,639,-9,125,-6
2,935,30962,-3106,-15992,612,-10,146,-6
2,936,30967,-3138,-16069,652,-10,168,-1
2,937,30972,-3203,-16161,658,-9,183,1
2,938,30977,-3176,-16265,821,-8,196,-1
2,939,30982,-3162,-16104,872,-14,202,-2
2,940,30987,-3213,-16026,1038,-16,197,1
2,941,30992,-3289,-16056,936,-13,169,1
2,942,30997,-3226,-16165,757,-13,139,3
2,943,31002,-3180,-16247,816,-14,113,8
2,944,31007,-3258,-16355,842,-16,89,10
2,945,31012,-3401,-16409,830,-17,63,7
2,946,31017,-3501,-16426,685,-18,43,13
2,947,31022,-3536,-16403,553,-17,33,16
2,948,31027,-3472,-16392,624,-20,19,13
2,949,31032,-3412,-16419,843,-19,-11,12
2,950,31037,-3455,-16373,907,-16,-56,16
2,951,31042,-3420,-16375,743,-12,-94,21
2,952,31047,-3425,-16399,462,-13,-106,21
2,953,31052,-3465,-16344,436,-17,-102,20
2,954,31057,-3444,-16277,461,-17,-103,19
2,955,31062,-3384,-16298,499,-15,-107,23
2,956,31067,-3263,-16339,403,-11,-96,21
2,957,31072,-3235,-16390,256,-11,-69,20
2,958,31077,-3280,-16350,285,-15,-30,19
2,959,31082,-3334,-16308,360,-15,2,19
2,960,31087,-3282,-16269,374,-12,24,18
2,961,31092,-3420,-16248,445,-10,50,19
2,962,31097,-3396,-16140,540,-15,72,24
2,963,31102,-2639,-16341,216,-12,78,23
2,964,31107,-3731,-16185,1101,-22,128,9
2,965,31112,-3673,-16100,771,-9,75,21
2,966,31117,-3547,-16299,553,-8,71,29
2,967,31122,-3308,-16162,433,-10,78,18
2,968,31127,-3236,-16298,1251,-15,79,18
2,969,31132,-3625,-15978,1554,-14,12,20
2,970,31137,-3500,-16098,1147,-5,-67,30
2,971,31142,-3515,-15995,543,-4,-93,31
2,972,31147,-3303,-16049,651,-11,-81,28
2,973,31152,-3348,-15966,1045,-17,-88,26
2,974,31157,-3365,-16001,862,-16,-126,29
2,975,31162,-3410,-16010,383,-11,-129,28
2,976,31167,-3384,-15946,87,-12,-82,24
2,977,31172,-3321,-15928,302,-15,-27,22
2,978,31177,-3209,-15956,534,-17,-6,22
2,979,31182,-3099,-15993,591,-11,-5,23
2,980,31187,-3095,-16013,353,-9,6,22
2,981,31192,-3180,-16034,271,-8,36,18
2,982,31197,-3263,-16010,420,-11,53,17
2,983,31202,-3098,-16038,468,-10,47,21
2,984,31207,-3107,-16084,653,-9,37,22
2,985,31212,-3096,-16162,644,-6,23,25
2,986,31217,-3138,-16191,529,-5,13,26
2,987,31222,-3255,-16189,582,-4,4,25
2,988,31227,-3314,-16136,671,-2,-13,28
2,989,31232,-3216,-16157,766,1,-33,26
2,990,31237,-3148,-16185,725,-2,-50,27
2,991,31242,-3173,-16151,658,2,-59,31
2,992,31247,-3310,-16159,560,2,-67,27
2,993,31252,-3418,-16098,511,-1,-81,30
2,994,31257,-3320,-16145,439,4,-72,30
2,995,31262,-3272,-16162,400,2,-49,26
2,996,31267,-3250,-16130,489,0,-28,23
2,997,31272,-3310,-16098,514,2,-15,22
2,998,31277,-3303,-16136,488,4,-2,23
2,999,31282,-3304,-16210,489,4,17,21
3,0,33002,-3261,-16092,471,-10,-25,-14
3,1,33007,-3243,-16146,468,-12,-15,-11
3,2,33012,-3255,-16096,416,-9,-5,-17
3,3,33017,-3285,-16083,378,-10,12,-16
3,4,33022,-3339,-16097,451,-11,27,-14
3,5,33027,-3330,-16055,478,-10,31,-15
3,6,33032,-3263,-16040,530,-10,35,-16
3,7,33037,-3246,-16065,575,-10,39,-16
3,8,33042,-3253,-16099,651,-7,41,-16
3,9,33047,-3296,-16091,671,-7,32,-15
3,10,33052,-3338,-16084,613,-10,25,-17
3,11,33058,-3366,-16056,585,-5,17,-14
3,12,33062,-3366,-16056,585,-5,17,-14
3,13,33067,-3318,-16008,669,-10,13,-15
3,14,33072,-3280,-15982,713,-10,-1,-12
3,15,33077,-3309,-15971,553,-7,-35,-14
3,16,33082,-3321,-16013,460,-9,-37,-12
3,17,33087,-3347,-16048,337,-7,-28,-9
3,18,33092,-3345,-16044,281,-8,-12,-11
3,19,33097,-3374,-16083,311,-5,3,-13
3,20,33102,-3379,-16089,408,-7,20,-15
3,21,33107,-3319,-16053,431,-8,34,-14
3,22,33112,-3272,-16022,566,-7,40,-12
3,23,33118,-3235,-16067,613,-6,42,-12
3,24,33122,-3238,-16101,629,-6,33,-11
3,25,33127,-3283,-16102,585,-5,20,-13
3,26,33132,-3297,-16102,534,-5,8,-12
3,27,33137,-3315,-16133,438,-4,2,-9
3,28,33142,-3269,-16143,390,-4,-1,-6
3,29,33147,-3270,-16103,459,-3,-3,-8
3,30,33152,-3298,-16083,502,-1,1,-9
3,31,33157,-3267,-16065,464,1,3,-7
3,32,33162,-3256,-16078,462,0,2,-5
3,33,33167,-3251,-16062,456,-1,4,-7
3,34,33172,-3310,-16060,434,0,8,-6
3,35,33178,-3386,-16049,458,0,11,-6
3,36,33182,-3360,-16078,480,-1,13,-4
3,37,33187,-3332,-16104,541,-1,25,-4
3,38,33192,-3300,-16138,646,-1,37,-5
3,39,33197,-3325,-16116,609,-1,41,-6
3,40,33202,-3341,-16082,604,0,40,-9
3,41,33207,-3315,-16061,639,0,32,-7
3,42,33212,-3284,-16058,638,-3,20,-5
3,43,33217,-3345,-16047,611,-1,7,-3
3,44,33222,-3384,-16086,499,-1,2,-2
3,45,33227,-3435,-16133,408,0,4,0
3,46,33232,-3421,-16099,454,0,8,1
3,47,33238,-3408,-16039,494,-1,11,-1
3,48,33242,-3356,-16043,552,1,6,-2
3,49,33247,-3330,-16011,539,0,-1,-1
3,50,33252,-3342,-16002,475,0,-4,0
3,51,33257,-3347,-16024,496,-1,-4,1
3,52,33262,-3320,-16025,548,-1,-10,1
3,53,33267,-3283,-16051,631,2,-19,2
3,54,33272,-3280,-16053,582,3,-23,1
3,55,33277,-3319,-16054,484,2,-24,4
3,56,33282,-3332,-16082,467,1,-18,6
3,57,33287,-3312,-16090,492,-1,-9,4
3,58,33292,-3278,-16071,474,-1,-3,3
3,59,33298,-3274,-16116,484,0,2,5
3,60,33302,-3250,-16118,503,1,7,4
3,61,33307,-3292,-16092,492,-1,11,3
3,62,33312,-3307,-16092,436,0,15,4
3,63,33317,-3351,-16097,473,0,12,6
3,64,33322,-3387,-16087,483,-1,8,8
3,65,33327,-3314,-16098,518,1,-2,6
3,66,33332,-3284,-16128,575,0,-9,5
3,67,33337,-3270,-16115,551,0,-15,6
3,68,33342,-3248,-16137,502,2,-19,9
3,69,33347,-3309,-16115,459,2,-23,11
3,70,33352,-3335,-16135,410,1,-22,10
3,71,33358,-3325,-16204,362,2,-22,10
3,72,33362,-3267,-16192,375,2,-11,12
3,73,33367,-3233,-16206,455,1,4,9
3,74,33372,-3197,-16159,520,1,8,10
3,75,33377,-3218,-16095,525,-1,10,11
3,76,33382,-3252,-16103,451,-1,10,11
3,77,33387,-3309,-16158,394,3,7,14
3,78,33392,-3307,-16197,417,2,7,14
3,79,33397,-3300,-16174,474,2,13,13
3,80,33402,-3296,-16145,483,0,16,15
3,81,33407,-3300,-16141,501,0,18,12
3,82,33412,-3334,-16128,498,3,13,11
3,83,33418,-3329,-16118,562,0,0,16
3,84,33422,-3329,-16118,562,0,0,16
3,85,33427,-3332,-16152,564,0,0,17
3,86,33432,-3371,-16191,586,1,-2,15
3,87,33437,-3320,-16221,608,1,-9,16
3,88,33442,-3326,-16191,639,-2,-21,18
3,89,33447,-3340,-16179,655,0,-32,17
3,90,33452,-3357,-16190,557,0,-40,20
3,91,33457,-3350,-16171,514,-2,-38,17
3,92,33462,-3365,-16215,490,-2,-31,18
3,93,33467,-3372,-16241,504,-2,-21,18
3,94,33472,-3373,-16210,448,-3,-15,14
3,95,33478,-3403,-16204,374,-3,-5,15
3,96,33482,-3326,-16225,430,-3,7,15
3,97,33487,-3302,-16213,522,-6,15,13
3,98,33492,-3299,-16204,558,-4,17,16
3,99,33497,-3329,-16249,459,-3,16,18
3,100,33502,-3351,-16244,385,-1,18,16
3,101,33507,-3317,-16235,455,-1,16,15
3,102,33512,-3261,-16269,569,-6,5,18
3,103,33517,-3217,-16288,606,-3,-8,20
3,104,33522,-3291,-16232,514,0,-21,17
3,105,33527,-3346,-16235,384,0,-23,18
3,106,33532,-3343,-16245,339,-3,-17,17
3,107,33538,-3322,-16236,432,-3,-11,17
3,108,33542,-3254,-16219,445,0,-4,17
3,109,33547,-3263,-16234,423,-1,0,17
3,110,33552,-3406,-16251,402,-1,7,17
3,111,33557,-3438,-16218,458,0,15,13
3,112,33562,-3382,-16197,540,-1,21,14
3,113,33567,-3334,-16238,580,-1,19,16
3,114,33572,-3342,-16225,628,0,18,14
3,115,33577,-3431,-16165,619,-2,11,13
3,116,33582,-3427,-16151,576,-3,1,15
3,117,33587,-3407,-16123,572,-1,-9,17
3,118,33592,-3375,-16128,510,-3,-16,13
3,119,33598,-3400,-16119,508,0,-19,14
3,120,33602,-3348,-16143,386,0,-19,12
3,121,33607,-3400,-16094,411,-1,-13,12
3,122,33612,-3381,-16092,474,-1,-8,12
3,123,33617,-3305,-16055,533,-2,-5,9
3,124,33622,-3282,-16046,507,-3,-7,14
3,125,33627,-3357,-16037,425,-2,-7,11
3,126,33632,-3386,-16090,456,-1,-2,10
3,127,33637,-3314,-16102,552,-3,0,9
3,128,33642,-3269,-16079,543,-1,-3,11
3,129,33647,-3200,-16065,479,-1,-7,11
3,130,33652,-3245,-16036,495,-1,-7,8
3,131,33658,-3286,-16037,519,-2,-17,7
3,132,33662,-3305,-15993,454,0,-23,12
3,133,33667,-3291,-16034,381,0,-16,10
3,134,33672,-3277,-16026,369,1,-5,7
3,135,33677,-3336,-16029,391,-1,6,5
3,136,33682,-3351,-16063,493,-1,8,8
3,137,33687,-3321,-16034,498,-2,8,7
3,138,33692,-3290,-15999,459,-1,11,5
3,139,33697,-3316,-16006,525,-1,10,4
3,140,33702,-3312,-15996,501,-1,6,4
3,141,33707,-3352,-15980,526,0,-4,4
3,142,33712,-3340,-16024,548,1,-3,3
3,143,33718,-3335,-16041,469,0,-2,6
3,144,33722,-3303,-16063,433,0,-1,3
3,145,33727,-3309,-16038,447,0,1,4
3,146,33732,-3310,-16037,470,1,0,2
3,147,33737,-3315,-16024,420,0,2,-1
3,148,33742,-3270,-16026,387,0,-1,1
3,149,33747,-3251,-16029,340,2,1,4
3,150,33752,-3285,-16068,309,2,8,2
3,151,33757,-3330,-16031,340,1,16,-5
3,152,33762,-3385,-16061,375,1,21,-1
3,153,33767,-3364,-16116,332,3,27,0
3,154,33772,-3376,-16148,415,3,33,-3
3,155,33778,-3351,-16120,576,7,27,-4
3,156,33782,-3351,-16120,576,7,27,-4
3,157,33787,-3377,-16087,590,2,13,-4
3,158,33792,-3435,-16089,495,4,3,-5
3,159,33797,-3414,-16113,465,7,1,-5
3,160,33802,-3396,-16100,481,6,-7,-5
3,161,33807,-3426,-16087,472,5,-11,-7
3,162,33812,-3445,-16054,433,7,-14,-7
3,163,33817,-3461,-16040,370,5,-10,-9
3,164,33822,-3451,-16045,439,4,-7,-11
3,165,33827,-3409,-16053,472,7,-9,-11
3,166,33832,-3353,-16054,522,5,-8,-11
3,167,33837,-3361,-16057,531,5,-13,-12
3,168,33842,-3380,-16029,490,6,-18,-12
3,169,33847,-3374,-16018,476,5,-22,-11
3,170,33852,-3398,-16064,443,7,-20,-12
3,171,33857,-3366,-16086,386,6,-16,-12
3,172,33862,-3379,-16105,402,6,-6,-15
3,173,33867,-3343,-16106,392,6,3,-11
3,174,33872,-3372,-16111,417,4,12,-14
3,175,33877,-3399,-16132,426,3,20,-16
3,176,33882,-3314,-16088,434,6,25,-14
3,177,33887,-3320,-16108,423,5,33,-16
3,178,33892,-3373,-16145,440,7,29,-20
3,179,33897,-3473,-16159,460,4,23,-17
3,180,33902,-3391,-16104,481,7,15,-15
3,181,33907,-3390,-16160,518,7,10,-14
3,182,33912,-3376,-16131,521,4,1,-19
3,183,33917,-3416,-16132,510,5,-5,-18
3,184,33922,-3475,-16200,475,6,-9,-15
3,185,33927,-3467,-16170,445,6,-13,-18
3,186,33932,-3396,-16177,403,6,-11,-18
3,187,33937,-3369,-16193,477,7,-9,-17
3,188,33942,-3369,-16141,520,6,-12,-18
3,189,33947,-3442,-16128,434,4,-10,-19
3,190,33952,-3541,-16161,346,7,-9,-20
3,191,33957,-3509,-16130,378,3,-3,-21
3,192,33962,-3438,-16145,458,4,-4,-18
3,193,33967,-3391,-16169,439,6,-9,-22
3,194,33972,-3329,-16128,377,6,-4,-24
3,195,33977,-3377,-16117,367,7,-2,-21
3,196,33982,-3420,-16122,346,6,6,-22
3,197,33987,-3360,-16102,388,4,3,-23
3,198,33992,-3347,-16133,432,4,4,-23
3,199,33997,-3351,-16151,407,6,5,-21
3,200,34002,-3351,-16149,434,6,8,-23
3,201,34007,-3360,-16140,394,8,14,-25
3,202,34012,-3291,-16148,435,7,11,-22
3,203,34017,-3305,-16158,522,5,8,-21
3,204,34022,-3324,-16132,550,7,0,-22
3,205,34027,-3353,-16078,420,5,-8,-21
3,206,34032,-3392,-16094,365,7,-4,-20
3,207,34037,-3427,-16111,343,6,5,-19
3,208,34042,-3417,-16125,382,5,11,-21
3,209,34047,-3435,-16091,460,5,11,-23
3,210,34052,-3364,-16089,513,4,9,-23
3,211,34057,-3252,-16065,524,2,4,-19
3,212,34062,-3304,-16063,528,4,5,-20
3,213,34067,-3325,-16048,560,4,-2,-22
3,214,34072,-3320,-16045,545,6,-9,-18
3,215,34077,-3313,-16054,509,4,-15,-15
3,216,34082,-3271,-16067,459,3,-20,-17
3,217,34087,-3266,-16088,483,4,-23,-13
3,218,34092,-3317,-16078,470,1,-23,-11
3,219,34097,-3363,-16084,470,2,-20,-16
3,220,34102,-3295,-16091,443,2,-17,-15
3,221,34107,-3286,-16040,474,2,-11,-12
3,222,34112,-3267,-16007,526,2,-16,-12
3,223,34117,-3297,-16000,508,1,-22,-11
3,224,34122,-3340,-16058,457,1,-23,-12
3,225,34127,-3395,-16039,421,1,-21,-9
3,226,34132,-3368,-16078,463,-1,-13,-9
3,227,34137,-3371,-16067,538,-1,-14,-8
3,228,34142,-3341,-16049,642,-3,-15,-11
3,229,34147,-3310,-16049,596,-1,-24,-5
3,230,34152,-3310,-16104,448,0,-30,-5
3,231,34157,-3339,-16094,448,0,-33,-3
3,232,34162,-3308,-16052,425,-2,-32,-3
3,233,34167,-3301,-16074,448,0,-25,-4
3,234,34172,-3283,-16050,417,-1,-13,-5
3,235,34177,-3319,-16070,377,2,11,-1
3,236,34182,-3344,-16087,414,-3,19,0
3,237,34187,-3296,-16101,465,-1,21,-1
3,238,34192,-3306,-16060,506,-3,22,1
3,239,34197,-3353,-16068,512,-2,20,0
3,240,34202,-3383,-16063,502,-1,15,1
3,241,34207,-3299,-16073,525,-1,6,5
3,242,34212,-3303,-16080,506,0,-8,7
3,243,34217,-3329,-16059,495,0,-24,8
3,244,34222,-3300,-16075,464,-3,-34,10
3,245,34227,-3274,-16074,403,-1,-36,12
3,246,34232,-3324,-16051,328,-1,-29,9
3,247,34237,-3362,-16106,315,-2,-15,8
3,248,34242,-3389,-16086,343,-1,-3,9
3,249,34247,-3357,-16062,371,-1,7,13
3,250,34252,-3370,-16040,392,-1,12,12
3,251,34257,-3341,-16054,450,-1,13,13
3,252,34262,-3401,-16047,467,-1,10,12
3,253,34267,-3443,-16038,530,-4,4,15
3,254,34272,-3436,-16062,551,-1,-5,19
3,255,34277,-3413,-16097,507,-1,-12,17
3,256,34282,-3414,-16077,510,1,-20,16
3,257,34287,-3469,-16047,467,0,-27,19
3,258,34292,-3507,-16072,442,-2,-32,17
3,259,34297,-3489,-16090,405,0,-27,18
3,260,34302,-3457,-16110,410,1,-19,20
3,261,34307,-3441,-16103,416,0,-12,19
3,262,34312,-3465,-16123,386,0,-4,16
3,263,34317,-3491,-16121,412,0,4,18
3,264,34322,-3454,-16101,432,0,6,18
3,265,34327,-3425,-16076,555,-1,6,19
3,266,34332,-3377,-16061,624,-1,-3,22
3,267,34337,-3443,-16070,591,0,-10,23
3,268,34342,-3448,-16082,492,1,-19,23
3,269,34347,-3490,-16089,448,2,-25,24
3,270,34352,-3533,-16067,487,0,-29,24
3,271,34357,-3523,-16026,542,-1,-33,24
3,272,34362,-3555,-16018,603,-2,-32,26
3,273,34367,-3630,-16000,747,-1,-37,28
3,274,34372,-3642,-15989,701,0,-52,30
3,275,34377,-3563,-15991,671,2,-71,33
3,276,34382,-3677,-15987,760,1,-92,31
3,277,34387,-3789,-16009,792,2,-125,32
3,278,34392,-3799,-16013,756,2,-159,35
3,279,34397,-3549,-16056,461,0,-176,43
3,280,34402,-3443,-15996,352,0,-176,44
3,281,34407,-3655,-15995,433,-2,-178,37
3,282,34412,-3909,-15969,822,-1,-190,38
3,283,34417,-3862,-15823,433,-1,-208,48
3,284,34422,-3737,-15881,129,2,-164,46
3,285,34427,-3835,-15817,-24,0,-90,39
3,286,34432,-4060,-15734,461,-6,-39,38
3,287,34437,-4089,-15651,703,-7,-39,42
3,288,34442,-3998,-15564,583,-2,-38,48
3,289,34447,-3926,-15539,558,-4,0,47
3,290,34452,-4145,-15610,750,-8,39,45
3,291,34457,-4239,-15559,959,-11,41,41
3,292,34462,-4269,-15548,1008,-12,20,49
3,293,34467,-4230,-15699,1154,-10,1,53
3,294,34472,-4186,-15685,1349,-12,-28,52
3,295,34477,-4039,-15733,1577,-13,-85,62
3,296,34482,-3909,-15875,1653,-12,-179,70
3,297,34487,-3919,-15827,1507,-12,-295,77
3,298,34492,-4025,-15867,1431,-10,-405,94
3,299,34497,-4169,-15931,1035,-9,-491,107
3,300,34502,-4122,-15891,596,-7,-537,112
3,301,34507,-4104,-15891,338,-6,-533,120
3,302,34512,-4020,-15909,223,-5,-502,124
3,303,34517,-3969,-15815,48,-5,-462,129
3,304,34522,-4003,-15860,-42,-3,-410,136
3,305,34527,-4130,-15928,21,-5,-343,140
3,306,34532,-4059,-15891,143,-4,-275,147
3,307,34537,-4006,-15886,201,-4,-201,152
3,308,34542,-4034,-15856,649,-4,-100,161
3,309,34547,-4003,-15829,1010,-2,-101,171
3,310,34552,-3947,-15851,1059,0,-121,185
3,311,34557,-3913,-15879,1023,3,-142,199
3,312,34562,-3938,-15861,1039,2,-164,206
3,313,34567,-4121,-15925,1087,2,-198,220
3,314,34572,-4296,-15969,1015,9,-250,235
3,315,34577,-4320,-16041,846,13,-306,248
3,316,34582,-4231,-16059,789,16,-341,262
3,317,34587,-4234,-16011,816,17,-366,270
3,318,34592,-4252,-16013,941,19,-400,281
3,319,34597,-4266,-15936,893,25,-439,295
3,320,34602,-4167,-15952,578,29,-461,311
3,321,34607,-4171,-15936,370,29,-459,320
3,322,34612,-4270,-15914,358,35,-442,330
3,323,34617,-4314,-15919,297,40,-434,343
3,324,34622,-4257,-15915,392,42,-419,350
3,325,34627,-4127,-15774,436,44,-378,355
3,326,34632,-4151,-15894,519,51,-339,371
3,327,34637,-4239,-15865,597,53,-307,376
3,328,34642,-4290,-15806,573,52,-287,386
3,329,34647,-4225,-15850,674,56,-277,398
3,330,34652,-4212,-15770,881,62,-269,404
3,331,34657,-4282,-15736,979,65,-272,418
3,332,34662,-4439,-15825,779,68,-283,431
3,333,34667,-4453,-15814,703,73,-273,438
3,334,34672,-4473,-15830,749,73,-258,445
3,335,34677,-4526,-15823,948,76,-242,456
3,336,34682,-4743,-15802,1183,77,-232,463
3,337,34687,-4871,-15872,1142,84,-245,477
3,338,34692,-4736,-15904,1184,89,-270,489
3,339,34697,-4629,-15883,1170,91,-302,496
3,340,34702,-4758,-15842,1621,89,-330,502
3,341,34707,-5002,-15821,1576,96,-379,514
3,342,34712,-5141,-15832,1341,104,-418,523
3,343,34717,-4972,-15736,1104,106,-448,536
3,344,34722,-4797,-15734,1202,105,-462,545
3,345,34727,-4825,-15728,1291,108,-489,544
3,346,34732,-4972,-15735,1040,114,-513,552
3,347,34737,-5154,-15798,486,119,-492,559
3,348,34742,-5159,-15802,257,121,-424,559
3,349,34747,-5061,-15784,548,121,-347,558
3,350,34752,-5006,-15748,948,123,-300,564
3,351,34757,-4894,-15711,937,132,-282,569
3,352,34762,-4910,-15800,756,136,-247,572
3,353,34767,-4957,-15800,771,138,-202,574
3,354,34772,-4982,-15731,981,138,-173,579
3,355,34777,-5065,-15832,964,141,-164,581
3,356,34782,-5189,-15823,873,146,-147,581
3,357,34787,-5335,-15818,954,150,-112,587
3,358,34792,-5374,-15636,1298,152,-81,586
3,359,34797,-5289,-15607,1512,151,-85,588
3,360,34802,-5331,-15664,1629,156,-102,592
3,361,34807,-5332,-15597,1735,159,-137,597
3,362,34812,-5594,-15551,1943,155,-174,596
3,363,34817,-5787,-15559,1895,161,-233,604
3,364,34822,-5706,-15560,1807,164,-283,609
3,365,34827,-5522,-15579,1760,163,-335,609
3,366,34832,-5580,-15540,1791,165,-378,605
3,367,34837,-5810,-15596,1551,170,-419,609
3,368,34842,-5899,-15578,1239,173,-421,606
3,369,34847,-5892,-15604,954,173,-387,606
3,370,34852,-5808,-15560,1143,171,-326,601
3,371,34857,-5767,-15507,1339,174,-278,596
3,372,34862,-5757,-15565,1289,179,-256,597
3,373,34867,-5856,-15421,1279,177,-220,581
3,374,34872,-6013,-15362,1336,176,-188,580
3,375,34877,-6004,-15385,1663,178,-178,583
3,376,34882,-5975,-15302,1772,178,-184,578
3,377,34887,-5813,-15286,1850,180,-201,575
3,378,34892,-5801,-15302,1987,182,-218,575
3,379,34897,-5995,-15268,1938,184,-247,570
3,380,34902,-6128,-15190,1762,182,-280,566
3,381,34907,-6122,-15209,1425,184,-269,561
3,382,34912,-6108,-15123,1546,182,-239,549
3,383,34917,-6220,-15156,1698,183,-217,545
3,384,34922,-6325,-15116,1541,185,-209,539
3,385,34927,-6187,-15016,1497,185,-186,532
3,386,34932,-6151,-15172,1463,184,-158,536
3,387,34937,-6123,-15020,1589,181,-131,513
3,388,34942,-6319,-14996,1635,182,-116,510
3,389,34947,-6418,-15029,1520,184,-109,510
3,390,34952,-6265,-14955,1342,184,-84,503
3,391,34957,-6130,-14984,1400,179,-42,493
3,392,34962,-6185,-14971,1607,179,1,485
3,393,34967,-6521,-14893,1746,176,32,473
3,394,34972,-6634,-14916,1692,173,48,466
3,395,34977,-6465,-15004,1739,174,72,466
3,396,34982,-6126,-15040,1936,172,82,460
3,397,34987,-6214,-14908,2279,167,66,445
3,398,34992,-6572,-14927,2390,166,1,443
3,399,34997,-6789,-14959,1915,170,-70,441
3,400,35002,-6766,-14922,1613,166,-81,437
3,401,35007,-6767,-15028,1706,164,-57,428
3,402,35012,-6896,-15030,2022,160,-46,414
3,403,35017,-6951,-15084,2118,159,-84,408
3,404,35022,-6879,-15137,1872,159,-130,402
3,405,35027,-6839,-15125,1778,156,-145,390
3,406,35032,-6878,-15144,1766,154,-141,380
3,407,35037,-6930,-15120,1797,148,-134,370
3,408,35042,-6894,-15090,1666,148,-134,361
3,409,35047,-6864,-15028,1610,147,-112,348
3,410,35052,-6834,-15020,1593,144,-77,338
3,411,35057,-6787,-14922,1498,140,-38,319
3,412,35062,-6890,-14872,1458,137,7,313
3,413,35067,-6913,-14862,1464,134,61,301
3,414,35072,-6850,-14767,1614,129,113,289
3,415,35077,-6738,-14770,1689,127,142,281
3,416,35082,-6704,-14811,1845,121,157,269
3,417,35087,-6713,-14811,1891,118,146,259
3,418,35092,-6904,-14859,2000,116,134,250
3,419,35097,-7038,-14925,1849,110,123,238
3,420,35102,-7101,-14982,1665,109,110,229
3,421,35107,-7202,-14987,1717,105,111,217
3,422,35112,-7201,-15009,1712,101,106,204
3,423,35117,-7300,-14993,1806,102,97,188
3,424,35122,-7279,-15006,1877,95,85,177
3,425,35127,-7271,-14958,1926,91,88,163
3,426,35132,-7316,-14862,1967,89,101,149
3,427,35137,-7357,-14819,1983,83,112,132
3,428,35142,-7387,-14742,2043,77,110,119
3,429,35147,-7366,-14740,2043,72,105,106
3,430,35152,-7288,-14679,2013,66,103,95
3,431,35157,-7246,-14677,2144,61,102,79
3,432,35162,-7304,-14651,2279,56,88,64
3,433,35167,-7239,-14645,2206,51,63,51
3,434,35172,-7255,-14681,2032,45,43,37
3,435,35177,-7304,-14716,2029,40,27,22
3,436,35182,-7318,-14716,2113,32,10,6
3,437,35187,-7323,-14728,2225,29,-7,-8
3,438,35192,-7322,-14754,2114,25,-23,-21
3,439,35197,-7299,-14785,2028,21,-30,-38
3,440,35202,-7371,-14806,1950,14,-38,-57
3,441,35207,-7428,-14789,1973,7,-56,-74
3,442,35212,-7311,-14810,1858,2,-67,-88
3,443,35217,-7173,-14815,1800,-2,-62,-103
3,444,35222,-7113,-14838,1751,-8,-46,-126
3,445,35227,-7221,-14821,1764,-11,-38,-143
3,446,35232,-7272,-14794,1696,-16,-41,-158
3,447,35237,-7311,-14787,1603,-21,-42,-177
3,448,35242,-7234,-14832,1645,-26,-32,-192
3,449,35247,-7129,-14890,1838,-32,-26,-208
3,450,35252,-7048,-14838,2120,-38,-40,-222
3,451,35257,-6889,-14826,2244,-41,-75,-234
3,452,35262,-6847,-14866,2172,-45,-113,-252
3,453,35267,-6942,-14893,2059,-49,-148,-265
3,454,35272,-7099,-14945,1881,-59,-229,-294
3,455,35277,-6960,-15012,1728,-64,-249,-309
3,456,35282,-6864,-15041,1591,-69,-239,-325
3,457,35287,-6850,-14997,1488,-76,-217,-344
3,458,35292,-6911,-14959,1478,-81,-192,-363
3,459,35297,-6875,-14970,1465,-85,-166,-381
3,460,35302,-6693,-14894,1344,-88,-124,-397
3,461,35307,-6526,-14956,1368,-96,-59,-408
3,462,35312,-6455,-14905,1410,-103,0,-434
3,463,35317,-6556,-14850,1515,-103,57,-452
3,464,35322,-6598,-14927,1547,-110,97,-459
3,465,35327,-6472,-14889,1698,-116,125,-479
3,466,35332,-6262,-14876,1910,-117,135,-493
3,467,35337,-6269,-14891,2269,-123,120,-503
3,468,35342,-6291,-14858,2358,-127,69,-518
3,469,35347,-6464,-14840,2500,-129,12,-524
3,470,35352,-6435,-14828,2519,-134,-59,-528
3,471,35357,-6294,-14835,2557,-139,-113,-539
3,472,35362,-6236,-14894,2559,-145,-175,-552
3,473,35367,-6265,-14927,2494,-149,-254,-560
3,474,35372,-6343,-14937,2208,-154,-317,-572
3,475,35377,-6331,-14976,1714,-159,-340,-581
3,476,35382,-6233,-15030,1445,-166,-311,-594
3,477,35387,-6111,-15055,1518,-176,-260,-611
3,478,35392,-6010,-15006,1449,-178,-220,-622
3,479,35397,-5929,-15007,1267,-182,-171,-635
3,480,35402,-5951,-15055,1025,-187,-89,-652
3,481,35407,-5946,-15046,1039,-190,4,-666
3,482,35412,-5761,-15058,1354,-196,93,-681
3,483,35417,-5508,-15096,1587,-198,151,-690
3,484,35422,-5409,-15095,1786,-200,177,-700
3,485,35427,-5499,-15110,1849,-202,184,-708
3,486,35432,-5610,-15198,1821,-205,172,-712
3,487,35437,-5443,-15274,1865,-207,149,-715
3,488,35442,-5258,-15371,1999,-210,125,-722
3,489,35447,-5248,-15409,2084,-210,76,-732
3,490,35452,-5377,-15421,1946,-207,15,-735
3,491,35457,-5443,-15488,1568,-210,-20,-739
3,492,35462,-5444,-15533,1416,-215,-18,-745
3,493,35467,-5362,-15552,1457,-214,4,-753
3,494,35472,-5274,-15454,1511,-214,21,-757
3,495,35477,-5255,-15411,1374,-220,31,-768
3,496,35482,-5237,-15427,1258,-221,58,-779
3,497,35487,-5217,-15379,1280,-226,101,-788
3,498,35492,-5057,-15395,1396,-228,147,-795
3,499,35497,-4927,-15410,1410,-231,194,-800
3,500,35502,-4906,-15460,1381,-233,244,-813
3,501,35507,-4862,-15429,1376,-235,287,-824
3,502,35512,-4958,-15403,1508,-235,322,-827
3,503,35517,-5052,-15446,1710,-239,336,-832
3,504,35522,-4977,-15463,1967,-240,334,-837
3,505,35527,-4763,-15461,2126,-242,321,-839
3,506,35532,-4739,-15460,2370,-242,294,-845
3,507,35537,-4900,-15572,2516,-242,220,-844
3,508,35542,-4886,-15611,2380,-241,123,-845
3,509,35547,-4694,-15673,2078,-247,35,-841
3,510,35552,-4616,-15795,1961,-246,-27,-841
3,511,35557,-4681,-15920,1762,-249,-83,-848
3,512,35562,-4728,-16016,1288,-252,-127,-849
3,513,35567,-4692,-16044,833,-250,-131,-847
3,514,35572,-4615,-16124,503,-253,-99,-852
3,515,35577,-4509,-16258,390,-255,-46,-857
3,516,35582,-4344,-16354,297,-255,6,-863
3,517,35587,-4167,-16403,150,-255,60,-871
3,518,35592,-3984,-16488,-87,-250,119,-874
3,519,35597,-4013,-16440,-155,-255,217,-881
3,520,35602,-3899,-16426,-101,-249,309,-885
3,521,35607,-3960,-16398,71,-251,399,-890
3,522,35612,-4040,-16491,415,-245,468,-891
3,523,35617,-3972,-16531,850,-238,506,-887
3,524,35622,-3527,-16486,1300,-239,509,-885
3,525,35627,-3148,-16341,1886,-238,455,-887
3,526,35632,-3270,-16265,2415,-236,323,-886
3,527,35637,-3664,-16260,2179,-226,-66,-848
3,528,35642,-3494,-16281,1718,-228,-166,-840
3,529,35647,-3368,-16250,1643,-231,-209,-835
3,530,35652,-3477,-16247,1720,-234,-262,-836
3,531,35657,-3503,-16201,1514,-234,-341,-829
3,532,35662,-3334,-16204,755,-231,-384,-819
3,533,35667,-3242,-16192,477,-240,-322,-822
3,534,35672,-3125,-16155,487,-244,-225,-824
3,535,35677,-3024,-15999,462,-245,-141,-826
3,536,35682,-2770,-15961,68,-244,-88,-819
3,537,35687,-2606,-15918,-231,-247,6,-819
3,538,35692,-2442,-15933,-171,-250,143,-824
3,539,35697,-2487,-15900,-92,-251,287,-824
3,540,35702,-2537,-15839,-82,-250,437,-827
3,541,35707,-2810,-15736,188,-250,596,-829
3,542,35712,-3036,-15865,722,-249,721,-828
3,543,35717,-2965,-15776,1700,-248,777,-821
3,544,35722,-2058,-15630,2441,-242,707,-805
3,545,35727,-1623,-15479,3279,-239,543,-802
3,546,35732,-1882,-15413,3634,-238,266,-784
3,547,35737,-2508,-15438,3337,-234,-29,-753
3,548,35742,-2634,-15659,2176,-226,-263,-726
3,549,35747,-2477,-15830,1322,-231,-354,-715
3,550,35752,-2387,-15945,1104,-239,-380,-711
3,551,35757,-2640,-15980,1037,-239,-408,-707
3,552,35762,-2630,-15981,340,-234,-432,-704
3,553,35767,-2413,-15983,-574,-233,-388,-695
3,554,35772,-1998,-16004,-834,-236,-259,-694
3,555,35777,-1697,-16074,-474,-243,-120,-694
3,556,35782,-1470,-16168,-423,-235,-31,-689
3,557,35787,-1359,-16265,-853,-225,59,-683
3,558,35792,-1347,-16309,-1192,-224,187,-678
3,559,35797,-1470,-16347,-1089,-224,340,-682
3,560,35802,-1645,-16326,-789,-221,477,-679
3,561,35807,-1730,-16342,-232,-215,583,-671
3,562,35812,-1591,-16409,-137,-207,663,-665
3,563,35817,-1465,-16446,256,-201,728,-659
3,564,35822,-1247,-16400,773,-198,732,-654
3,565,35827,-1353,-16292,1634,-196,659,-643
3,566,35832,-1272,-16328,1855,-183,491,-621
3,567,35837,-1340,-16322,1842,-181,321,-601
3,568,35842,-1279,-16350,1482,-175,167,-585
3,569,35847,-1473,-16412,1488,-172,45,-568
3,570,35852,-1647,-16410,1410,-170,-90,-552
3,571,35857,-1720,-16416,1096,-168,-208,-540
3,572,35862,-1569,-16456,762,-166,-275,-530
3,573,35867,-1375,-16374,423,-166,-297,-521
3,574,35872,-1290,-16305,279,-168,-282,-514
3,575,35877,-1279,-16300,58,-166,-269,-505
3,576,35882,-1139,-16241,-273,-160,-254,-497
3,577,35887,-988,-16203,-516,-162,-211,-489
3,578,35892,-729,-16237,-508,-160,-142,-479
3,579,35897,-659,-16256,-377,-160,-50,-476
3,580,35902,-649,-16227,-677,-159,41,-467
3,581,35907,-709,-16208,-905,-157,153,-463
3,582,35912,-681,-16203,-950,-159,279,-455
3,583,35917,-555,-16299,-570,-156,408,-447
3,584,35922,-441,-16355,-317,-152,499,-443
3,585,35927,-394,-16424,-378,-146,558,-434
3,586,35932,-492,-16518,-314,-147,598,-426
3,587,35937,-612,-16598,43,-143,608,-416
3,588,35942,-566,-16676,300,-134,577,-400
3,589,35947,-498,-16638,412,-126,526,-386
3,590,35952,-440,-16551,367,-122,449,-372
3,591,35957,-683,-16580,531,-124,368,-359
3,592,35962,-881,-16625,690,-118,262,-343
3,593,35967,-891,-16638,564,-111,152,-325
3,594,35972,-784,-16646,223,-105,75,-309
3,595,35977,-760,-16708,25,-102,33,-301
3,596,35982,-762,-16700,47,-103,-8,-292
3,597,35987,-607,-16602,-18,-97,-62,-276
3,598,35992,-325,-17082,-274,-94,-87,-264
3,599,35997,1317,-18649,-788,-103,-108,-265
3,600,36002,-16700,-12052,25175,-148,-1885,-232
3,601,36007,-4949,-16949,-15718,175,-5391,709
3,602,36012,3159,-19777,-30859,-68,-3737,621
3,603,36017,-5251,-15962,-13711,-291,239,-168
3,604,36022,-4021,-15812,2538,-218,1169,-142
3,605,36027,-1363,-16071,3157,-101,1065,-46
3,606,36032,3766,-16691,-11222,12,909,34
3,607,36037,4432,-18187,-10847,-105,1864,3
3,608,36042,-381,-15816,2950,-230,2736,-211
3,609,36047,-1979,-15054,8884,-158,2153,-99
3,610,36052,1764,-16393,515,-34,1195,109
3,611,36057,3937,-16997,-4327,-40,1301,100
3,612,36062,1766,-16608,1123,-117,1722,9
3,613,36067,-1872,-15644,7618,-125,1434,-3
3,614,36072,-1999,-15525,4594,-54,497,120
3,615,36077,580,-16212,-1382,-22,25,213
3,616,36082,1574,-16458,-1284,-77,258,162
3,617,36087,-308,-16059,3298,-110,427,98
3,618,36092,-1821,-15832,4565,-78,39,136
3,619,36097,-1063,-16091,602,-30,-450,214
3,620,36102,308,-16364,-2588,-32,-468,223
3,621,36107,59,-16319,-613,-73,-155,173
3,622,36112,-926,-16236,2291,-87,-99,151
3,623,36117,-1094,-16347,1493,-55,-358,183
3,624,36122,-46,-16568,-1778,-29,-509,216
3,625,36127,243,-16499,-2228,-48,-286,191
3,626,36132,-458,-16287,186,-65,-41,158
3,627,36137,-971,-16183,1056,-54,-67,167
3,628,36142,-605,-16364,-908,-32,-191,195
3,629,36147,-144,-16495,-2306,-30,-105,192
3,630,36152,-444,-16451,-1028,-49,136,159
3,631,36157,-811,-16243,464,-49,248,147
3,632,36162,-670,-16271,-2,-29,203,162
3,633,36167,-155,-16396,-1177,-19,192,168
3,634,36172,-53,-16371,-919,-27,273,156
3,635,36177,-319,-16271,212,-31,319,146
3,636,36182,-444,-16282,484,-25,266,155
3,637,36187,-253,-16384,-372,-10,197,165
3,638,36192,-122,-16462,-832,-5,208,160
3,639,36197,-389,-16484,-238,-10,245,150
3,640,36202,-873,-16335,477,-10,221,147
3,641,36207,-982,-16244,426,0,143,160
3,642,36212,-806,-16190,-57,6,102,156
3,643,36217,-760,-16074,119,4,103,146
3,644,36222,-753,-16032,790,1,60,141
3,645,36227,-651,-16058,1080,7,-52,147
3,646,36232,-359,-16083,707,17,-175,155
3,647,36237,-67,-16171,324,22,-258,158
3,648,36242,-126,-16160,205,22,-311,156
3,649,36247,-407,-16154,59,23,-363,158
3,650,36252,-540,-16200,-398,30,-401,163
3,651,36257,-456,-16314,-741,35,-388,163
3,652,36262,-398,-16386,-791,36,-328,157
3,653,36267,-392,-16455,-613,39,-268,150
3,654,36272,-435,-16504,-563,40,-226,147
3,655,36277,-425,-16514,-749,48,-180,143
3,656,36282,-344,-16488,-857,52,-119,139
3,657,36287,-337,-16532,-713,53,-59,135
3,658,36292,-344,-16621,-662,58,-20,134
3,659,36297,-348,-16681,-569,65,11,131
3,660,36302,-484,-16697,-539,67,35,130
3,661,36307,-574,-16777,-479,70,53,132
3,662,36312,-622,-16753,-418,74,77,129
3,663,36317,-647,-16805,-244,75,90,124
3,664,36322,-648,-16723,-96,80,79,126
3,665,36327,-598,-16639,3,87,56,126
3,666,36332,-496,-16647,43,90,25,132
3,667,36337,-434,-16608,37,94,-7,134
3,668,36342,-360,-16586,132,98,-32,134
3,669,36347,-315,-16549,29,99,-60,137
3,670,36352,-452,-16526,69,100,-89,136
3,671,36357,-492,-16518,-113,105,-121,143
3,672,36362,-562,-16483,-354,109,-120,144
3,673,36367,-572,-16528,-341,109,-60,143
3,674,36372,-613,-16522,-328,117,-44,142
3,675,36377,-690,-16569,-410,118,-30,142
3,676,36382,-730,-16628,-548,123,-13,143
3,677,36387,-802,-16629,-463,121,15,140
3,678,36392,-849,-16591,-294,121,35,139
3,679,36397,-937,-16589,-114,126,38,142
3,680,36402,-930,-16603,-54,129,23,140
3,681,36407,-925,-16667,28,134,10,138
3,682,36412,-958,-16637,148,136,-8,139
3,683,36417,-962,-16624,191,136,-36,142
3,684,36422,-984,-16644,140,140,-66,145
3,685,36427,-966,-16673,-4,141,-92,144
3,686,36432,-1062,-16715,-31,141,-111,143
3,687,36437,-1077,-16757,-15,141,-121,143
3,688,36442,-2856,-15725,-1740,145,-138,145
3,689,36447,1543,-18034,1794,147,-115,173
3,690,36452,-1274,-16249,-504,147,-81,99
3,691,36457,-982,-17057,90,159,-26,142
3,692,36462,-2283,-16145,-327,148,-160,148
3,693,36467,-106,-16803,-485,161,-187,157
3,694,36472,-769,-16537,-277,150,-122,142
3,695,36477,-781,-16783,123,157,-75,133
3,696,36482,-1261,-16708,79,160,-80,139
3,697,36487,-1164,-16641,-776,168,-97,147
3,698,36492,-1035,-16715,-244,163,-50,145
3,699,36497,-903,-16457,282,158,-40,137
3,700,36502,-906,-16652,851,160,-45,137
3,701,36507,-1071,-16593,236,167,-106,142
3,702,36512,-1009,-16587,171,167,-106,142
3,703,36517,-1034,-16473,245,163,-117,140
3,704,36522,-960,-16488,638,163,-147,141
3,705,36527,-798,-16516,642,163,-206,147
3,706,36532,-803,-16483,448,165,-248,148
3,707,36537,-844,-16493,324,166,-259,149
3,708,36542,-960,-16433,122,164,-253,150
3,709,36547,-937,-16397,173,162,-242,146
3,710,36552,-954,-16341,41,165,-233,151
3,711,36557,-921,-16436,-114,164,-213,151
3,712,36562,-948,-16438,-302,167,-184,148
3,713,36567,-1064,-16470,-377,163,-132,145
3,714,36572,-1117,-16392,-249,163,-77,145
3,715,36577,-1128,-16276,-119,161,-31,142
3,716,36582,-1180,-16411,-144,160,11,134
3,717,36587,-1327,-16405,-155,162,52,135
3,718,36592,-945,-16761,-86,160,92,131
3,719,36597,-1130,-16426,384,157,122,126
3,720,36602,-1358,-16550,287,160,121,124
3,721,36607,-1474,-16602,292,161,104,130
3,722,36612,-1305,-16648,199,160,86,131
3,723,36617,-1336,-16671,586,159,84,127
3,724,36622,-1407,-16677,584,157,43,126
3,725,36627,-1535,-16621,816,157,11,125
3,726,36632,-1461,-16592,431,158,-32,130
3,727,36637,-1512,-16558,473,153,-35,125
3,728,36642,-1559,-16525,480,153,-47,122
3,729,36647,-1457,-16580,589,150,-77,121
3,730,36652,-1447,-16579,683,152,-101,118
3,731,36657,-1344,-16554,496,150,-116,121
3,732,36662,-1296,-16609,486,148,-112,118
3,733,36667,-1360,-16495,402,141,-107,113
3,734,36672,-1481,-16520,386,143,-107,116
3,735,36677,-1486,-16507,339,142,-111,114
3,736,36682,-1374,-16435,299,135,-109,109
3,737,36687,-1335,-16492,346,137,-88,110
3,738,36692,-1376,-16570,363,137,-60,104
3,739,36697,-1375,-16615,347,133,-34,98
3,740,36702,-1361,-16578,410,127,-14,100
3,741,36707,-1388,-16514,492,125,2,96
3,742,36712,-1460,-16552,469,125,14,93
3,743,36717,-1478,-16541,324,125,27,93
3,744,36722,-1529,-16522,421,121,46,91
3,745,36727,-1597,-16515,552,117,51,85
3,746,36732,-1618,-16452,594,116,32,84
3,747,36737,-1613,-16448,526,116,34,80
3,748,36742,-1562,-16464,599,110,30,78
3,749,36747,-1532,-16352,820,106,19,75
3,750,36752,-1509,-16332,781,104,0,76
3,751,36757,-1513,-16410,694,106,-8,75
3,752,36762,-1452,-16359,650,101,-3,70
3,753,36767,-1442,-16260,767,98,4,66
3,754,36772,-1478,-16286,649,96,6,66
3,755,36777,-1503,-16301,407,92,11,66
3,756,36782,-1462,-16351,390,92,20,65
3,757,36787,-1417,-16428,488,88,37,60
3,758,36792,-1380,-16428,629,81,54,56
3,759,36797,-1425,-16468,474,85,71,58
3,760,36802,-1481,-16519,269,86,98,53
3,761,36807,-1440,-16567,316,78,126,48
3,762,36812,-1376,-16526,669,72,146,46
3,763,36817,-1413,-16481,760,72,147,46
3,764,36822,-1509,-16573,409,78,147,43
3,765,36827,-1655,-16638,330,76,163,39
3,766,36832,-1676,-16442,431,66,171,38
3,767,36837,-1642,-16437,713,67,168,37
3,768,36842,-1603,-16618,702,68,155,31
3,769,36847,-1482,-16584,1027,65,157,30
3,770,36852,-1270,-16553,1369,56,154,33
3,771,36857,-1244,-16347,1436,57,142,28
3,772,36862,-1340,-16294,1186,58,105,27
3,773,36867,-1362,-16264,1026,52,55,31
3,774,36872,-1345,-16116,1150,46,-2,36
3,775,36877,-1324,-16154,1102,42,-48,37
3,776,36882,-1428,-16204,852,45,-65,37
3,777,36887,-1557,-16274,627,45,-58,36
3,778,36892,-1636,-16243,533,39,-33,30
3,779,36897,-1647,-16223,511,37,-11,27
3,780,36902,-1543,-16301,498,30,13,23
3,781,36907,-1436,-16294,580,29,40,22
3,782,36912,-1419,-16257,529,27,71,18
3,783,36917,-1555,-16332,340,29,96,14
3,784,36922,-1659,-16446,267,24,108,9
3,785,36927,-1638,-16532,568,20,122,8
3,786,36932,-1582,-16533,758,22,123,6
3,787,36937,-1512,-16517,752,23,124,1
3,788,36942,-1623,-16523,675,23,115,-4
3,789,36947,-1635,-16481,754,18,97,-3
3,790,36952,-1572,-16396,974,14,69,3
3,791,36957,-1478,-16404,1005,13,37,2
3,792,36962,-1528,-16400,845,15,9,-3
3,793,36967,-1629,-16375,720,12,-12,-5
3,794,36972,-1743,-16367,694,12,-34,-5
3,795,36977,-1739,-16370,698,11,-48,-4
3,796,36982,-1719,-16314,676,10,-48,-6
3,797,36987,-1690,-16361,635,8,-42,-9
3,798,36992,-1706,-16321,666,5,-30,-13
3,799,36997,-1629,-16232,726,1,-20,-18
3,800,37002,-1573,-16216,825,0,-6,-19
3,801,37007,-1443,-16221,747,-3,10,-21
3,802,37012,-1442,-16221,745,-2,20,-24
3,803,37017,-1477,-16252,825,-8,27,-27
3,804,37022,-1532,-16280,868,-14,31,-30
3,805,37027,-1456,-16243,881,-17,43,-29
3,806,37032,-1418,-16253,817,-14,57,-27
3,807,37037,-1441,-16310,758,-17,62,-31
3,808,37042,-1464,-16273,776,-20,57,-34
3,809,37047,-1438,-16346,836,-22,41,-31
3,810,37052,-1432,-16357,785,-22,22,-31
3,811,37057,-1474,-16333,755,-23,12,-33
3,812,37062,-1529,-16334,666,-24,7,-35
3,813,37067,-1598,-16346,568,-25,3,-32
3,814,37072,-1572,-16313,567,-27,-5,-33
3,815,37077,-1542,-16336,628,-27,-10,-37
3,816,37082,-1514,-16348,652,-28,-15,-37
3,817,37087,-1533,-16308,674,-27,-15,-36
3,818,37092,-1486,-16266,679,-30,-9,-41
3,819,37097,-1415,-16266,685,-34,16,-41
3,820,37102,-1359,-16208,802,-34,20,-43
3,821,37107,-1374,-16236,791,-36,21,-42
3,822,37112,-1487,-16266,661,-37,27,-44
3,823,37117,-1629,-16302,469,-38,37,-46
3,824,37122,-1667,-16319,423,-41,49,-46
3,825,37127,-1606,-16331,599,-42,56,-43
3,826,37132,-1495,-16307,717,-42,52,-46
3,827,37137,-1498,-16329,809,-42,50,-51
3,828,37142,-1567,-16370,717,-43,48,-50
3,829,37147,-1446,-16304,628,-43,49,-50
3,830,37152,-1497,-16248,718,-50,55,-51
3,831,37157,-1505,-16364,791,-49,50,-49
3,832,37162,-1556,-16389,735,-47,37,-53
3,833,37167,-1604,-16411,592,-48,29,-52
3,834,37172,-1550,-16422,586,-50,34,-52
3,835,37177,-1481,-16439,649,-51,38,-55
3,836,37182,-1356,-16438,756,-51,35,-52
3,837,37187,-1289,-16404,737,-49,24,-52
3,838,37192,-1288,-16419,610,-50,12,-51
3,839,37197,-1403,-16368,541,-52,2,-49
3,840,37202,-1423,-16317,612,-55,3,-47
3,841,37207,-1363,-16296,573,-56,5,-44
3,842,37212,-1339,-16291,586,-56,14,-49
3,843,37217,-1389,-16275,518,-54,28,-49
3,844,37222,-1415,-16292,507,-56,43,-50
3,845,37227,-1347,-16234,534,-57,55,-48
3,846,37232,-1305,-16240,532,-61,69,-47
3,847,37237,-1308,-16308,584,-57,82,-48
3,848,37242,-1319,-16270,581,-60,95,-48
3,849,37247,-1333,-16304,578,-61,104,-46
3,850,37252,-1378,-16307,579,-61,111,-44
3,851,37257,-1314,-16321,581,-61,115,-43
3,852,37262,-1356,-16328,637,-63,116,-43
3,853,37267,-1439,-16396,660,-62,109,-42
3,854,37272,-1479,-16362,732,-64,92,-43
3,855,37277,-1448,-16342,753,-63,76,-40
3,856,37282,-1435,-16362,714,-61,64,-38
3,857,37287,-1423,-16355,740,-63,49,-38
3,858,37292,-1504,-16335,757,-66,35,-37
3,859,37297,-1423,-16378,652,-63,13,-33
3,860,37302,-1443,-16390,588,-64,1,-31
3,861,37307,-1457,-16349,536,-65,-5,-33
3,862,37312,-1435,-16306,489,-64,-8,-32
3,863,37317,-1452,-16438,426,-61,-7,-30
3,864,37322,-1350,-16395,413,-63,-3,-34
3,865,37327,-1275,-16327,465,-66,9,-32
3,866,37332,-1219,-16377,463,-63,24,-26
3,867,37337,-1184,-16330,367,-63,35,-28
3,868,37342,-1198,-16335,358,-65,48,-26
3,869,37347,-1224,-16393,331,-64,60,-23
3,870,37352,-1188,-16375,316,-61,73,-24
3,871,37357,-1162,-16389,330,-62,93,-19
3,872,37362,-1233,-16380,315,-60,109,-20
3,873,37367,-1246,-16413,331,-59,123,-20
3,874,37372,-1284,-16473,258,-60,134,-18
3,875,37377,-1325,-16524,278,-59,147,-15
3,876,37382,-1443,-16534,268,-56,153,-16
3,877,37387,-1545,-16557,333,-55,149,-16
3,878,37392,-1544,-16538,435,-55,146,-14
3,879,37397,-1534,-16488,564,-55,139,-14
3,880,37402,-1441,-16436,653,-53,127,-13
3,881,37407,-1425,-16421,732,-51,112,-11
3,882,37412,-1416,-16378,675,-49,87,-10
3,883,37417,-1440,-16380,786,-50,64,-8
3,884,37422,-1529,-16342,677,-50,35,-5
3,885,37427,-1491,-16330,594,-49,11,-5
3,886,37432,-1465,-16308,548,-48,2,1
3,887,37437,-1390,-16339,537,-48,8,4
3,888,37442,-1353,-16275,547,-51,12,0
3,889,37447,-1375,-16233,517,-51,17,1
3,890,37452,-1457,-16257,460,-48,22,4
3,891,37457,-1415,-16277,352,-48,37,5
3,892,37462,-1424,-16317,315,-50,59,5
3,893,37467,-1457,-16264,267,-46,93,3
3,894,37472,-1450,-16300,260,-47,107,4
3,895,37477,-1398,-16305,322,-45,118,6
3,896,37482,-1414,-16353,342,-43,129,6
3,897,37487,-1432,-16444,276,-45,146,4
3,898,37492,-1509,-16415,297,-42,159,4
3,899,37497,-1537,-16436,328,-44,170,6
3,900,37502,-1524,-16462,284,-40,174,9
3,901,37507,-1532,-16525,286,-40,180,7
3,902,37512,-1597,-16565,325,-38,181,8
3,903,37517,-1692,-16586,300,-36,175,10
3,904,37522,-1735,-16567,405,-36,159,9
3,905,37527,-1707,-16522,555,-32,143,11
3,906,37532,-1654,-16460,645,-30,118,13
3,907,37537,-1622,-16416,675,-31,88,14
3,908,37542,-1624,-16449,688,-27,51,17
3,909,37547,-1600,-16402,611,-25,13,18
3,910,37552,-1559,-16429,572,-28,-16,23
3,911,37557,-1532,-16489,524,-23,-39,25
3,912,37562,-1535,-16491,399,-25,-50,27
3,913,37567,-1578,-16506,317,-23,-48,25
3,914,37572,-1656,-16464,230,-23,-31,25
3,915,37577,-1638,-16443,166,-22,-7,25
3,916,37582,-1548,-16460,149,-20,18,23
3,917,37587,-1499,-16435,193,-19,44,23
3,918,37592,-1445,-16475,260,-20,60,21
3,919,37597,-1472,-16440,318,-15,75,24
3,920,37602,-1508,-16401,297,-18,91,24
3,921,37607,-1513,-16410,293,-16,102,24
3,922,37612,-1479,-16395,200,-17,112,24
3,923,37617,-1524,-16387,369,-12,119,27
3,924,37622,-1504,-16398,329,-12,116,27
3,925,37627,-1629,-16381,380,-13,117,29
3,926,37632,-1718,-16380,384,-9,109,30
3,927,37637,-1728,-16415,377,-9,105,31
3,928,37642,-1672,-16393,400,-8,96,32
3,929,37647,-1685,-16375,557,-8,88,29
3,930,37652,-1701,-16430,658,-5,69,33
3,931,37657,-1746,-16480,617,-3,43,34
3,932,37662,-1711,-16381,579,-5,26,31
3,933,37667,-1647,-16417,608,-6,12,34
3,934,37672,-1631,-16425,648,-2,-8,35
3,935,37677,-1668,-16343,577,0,-30,35
3,936,37682,-1661,-16367,423,-1,-44,40
3,937,37687,-1695,-16386,282,0,-50,41
3,938,37692,-1710,-16410,166,0,-45,38
3,939,37697,-1660,-16459,124,0,-34,41
3,940,37702,-1630,-16457,178,1,-19,39
3,941,37707,-1607,-16447,203,4,-4,36
3,942,37712,-1633,-16465,194,6,12,40
3,943,37717,-1630,-16426,198,5,28,34
3,944,37722,-1561,-16351,230,6,42,34
3,945,37727,-1590,-16363,286,5,50,35
3,946,37732,-1605,-16387,277,7,53,35
3,947,37737,-1585,-16392,316,9,46,38
3,948,37742,-1565,-16443,388,11,43,40
3,949,37747,-1539,-16479,450,12,37,40
3,950,37752,-1527,-16448,479,13,29,40
3,951,37757,-1489,-16397,516,11,22,41
3,952,37762,-1533,-16361,427,13,11,44
3,953,37767,-1523,-16317,351,15,6,46
3,954,37772,-1530,-16267,345,16,4,46
3,955,37777,-1577,-16233,344,15,8,45
3,956,37782,-1689,-16248,289,16,13,45
3,957,37787,-1785,-16293,264,17,24,43
3,958,37792,-1797,-16340,256,16,39,42
3,959,37797,-1757,-16338,355,16,45,42
3,960,37802,-1713,-16365,502,16,36,41
3,961,37807,-1618,-16414,644,19,13,43
3,962,37812,-1612,-16433,672,17,-14,45
3,963,37817,-1657,-16436,626,17,-38,49
3,964,37822,-1701,-16429,508,19,-54,46
3,965,37827,-1671,-16358,415,17,-61,48
3,966,37832,-1656,-16400,193,21,-71,49
3,967,37837,-1666,-16438,141,22,-66,46
3,968,37842,-1638,-16448,31,22,-56,48
3,969,37847,-1666,-16448,-32,23,-40,43
3,970,37852,-1607,-16488,-59,24,-25,43
3,971,37857,-1594,-16505,-57,27,-5,45
3,972,37862,-1567,-16517,57,28,10,45
3,973,37867,-1545,-16483,104,31,22,43
3,974,37872,-1592,-16460,78,33,34,45
3,975,37877,-1615,-16443,134,33,47,46
3,976,37882,-1639,-16438,181,31,62,43
3,977,37887,-1644,-16373,274,30,67,41
3,978,37892,-1613,-16334,384,34,66,44
3,979,37897,-1617,-16324,459,34,62,45
3,980,37902,-1606,-16294,530,34,53,45
3,981,37907,-1597,-16276,571,37,41,45
3,982,37912,-1599,-16252,650,34,25,45
3,983,37917,-1622,-16252,645,32,5,45
3,984,37922,-1686,-16249,617,34,-15,47
3,985,37927,-1735,-16252,553,32,-30,47
3,986,37932,-1767,-16247,489,31,-43,49
3,987,37937,-1727,-16300,433,32,-45,50
3,988,37942,-1761,-16338,366,31,-43,49
3,989,37947,-1815,-16341,303,31,-36,42
3,990,37952,-1815,-16333,342,31,-23,41
3,991,37957,-1819,-16354,325,29,-7,44
3,992,37962,-1743,-16386,213,28,8,40
3,993,37967,-1727,-16438,159,29,21,37
3,994,37972,-1725,-16475,259,28,31,38
3,995,37977,-1729,-16400,410,28,28,35
3,996,37982,-1695,-16413,360,31,18,39
3,997,37987,-1652,-16451,245,32,18,37
3,998,37992,-1635,-16431,217,30,23,33
3,999,37997,-1761,-16415,314,31,24,33
4,0,39102,-1664,-16379,350,16,13,11
4,1,39107,-1672,-16355,383,16,7,13
4,2,39112,-1675,-16345,350,19,-2,16
4,3,39117,-1741,-16314,366,17,-2,17
4,4,39122,-1774,-16313,369,18,-2,17
4,5,39127,-1838,-16346,294,18,-2,16
4,6,39132,-1858,-16349,280,17,2,14
4,7,39138,-1828,-16316,260,20,6,17
4,8,39142,-1774,-16309,261,20,5,17
4,9,39147,-1752,-16325,349,19,2,14
4,10,39152,-1782,-16302,330,19,-2,14
4,11,39157,-1745,-16257,302,18,-7,19
4,12,39162,-1758,-16269,301,20,-9,19
4,13,39167,-1855,-16269,296,21,-6,13
4,14,39172,-1842,-16242,354,20,-2,13
4,15,39177,-1807,-16253,365,22,-3,15
4,16,39182,-1777,-16282,375,23,1,14
4,17,39187,-1725,-16316,414,19,4,13
4,18,39192,-1729,-16303,460,20,4,14
4,19,39197,-1685,-16316,482,18,-2,15
4,20,39202,-1759,-16294,527,18,-7,15
4,21,39207,-1821,-16260,410,18,-8,15
4,22,39212,-1886,-16299,409,17,-7,14
4,23,39217,-1934,-16354,353,15,-6,13
4,24,39223,-1921,-16384,347,20,-5,11
4,25,39227,-1921,-16376,389,18,-3,10
4,26,39232,-1870,-16395,350,16,-3,10
4,27,39237,-1814,-16376,383,17,-9,11
4,28,39242,-1859,-16386,425,17,-12,11
4,29,39247,-1818,-16367,336,17,-9,13
4,30,39252,-1812,-16375,360,17,-9,10
4,31,39257,-1797,-16360,371,15,-8,10
4,32,39262,-1758,-16363,361,15,-14,11
4,33,39267,-1747,-16358,360,16,-16,11
4,34,39272,-1725,-16350,371,16,-18,7
4,35,39277,-1737,-16325,350,15,-17,8
4,36,39283,-1783,-16335,313,16,-12,11
4,37,39287,-1783,-16335,313,16,-12,11
4,38,39292,-1831,-16325,342,14,-10,6
4,39,39297,-1846,-16284,333,14,-12,7
4,40,39302,-1782,-16321,342,13,-10,9
4,41,39307,-1780,-16327,326,15,-5,8
4,42,39312,-1811,-16318,389,12,-3,8
4,43,39317,-1846,-16345,398,14,-3,4
4,44,39322,-1827,-16368,353,14,-1,7
4,45,39327,-1746,-16366,368,12,2,8
4,46,39332,-1744,-16338,396,10,4,6
4,47,39337,-1748,-16326,412,8,6,5
4,48,39343,-1704,-16354,421,9,4,6
4,49,39347,-1733,-16298,409,9,1,5
4,50,39352,-1816,-16328,397,11,-1,6
4,51,39357,-1918,-16378,259,8,-4,6
4,52,39362,-1929,-16425,213,8,-5,6
4,53,39367,-1915,-16424,252,9,-2,7
4,54,39372,-1840,-16413,398,10,-4,4
4,55,39377,-1790,-16383,456,12,-12,2
4,56,39382,-1822,-16366,457,11,-24,2
4,57,39387,-1869,-16346,361,11,-29,2
4,58,39392,-1870,-16309,342,10,-30,5
4,59,39397,-1847,-16313,447,7,-31,5
4,60,39403,-1914,-16360,360,10,-31,4
4,61,39407,-1869,-16362,295,6,-30,3
4,62,39412,-1799,-16406,259,6,-23,2
4,63,39417,-1748,-16399,351,6,-15,1
4,64,39422,-1711,-16362,457,8,-14,0
4,65,39427,-1701,-16346,415,8,-20,1
4,66,39432,-1776,-16304,362,7,-21,3
4,67,39437,-1808,-16289,276,8,-16,3
4,68,39442,-1838,-16313,283,5,-8,-1
4,69,39447,-1878,-16398,292,3,0,-2
4,70,39452,-1848,-16401,369,3,3,-1
4,71,39457,-1773,-16383,408,8,5,3
4,72,39463,-1816,-16361,412,4,11,1
4,73,39467,-1839,-16335,437,6,13,0
4,74,39472,-1800,-16285,489,3,6,-2
4,75,39477,-1791,-16274,451,4,-4,1
4,76,39482,-1745,-16286,438,5,-11,2
4,77,39487,-1764,-16285,438,3,-15,-3
4,78,39492,-1822,-16240,430,-2,-14,-2
4,79,39497,-1866,-16247,393,2,-10,1
4,80,39502,-1934,-16323,295,4,-9,3
4,81,39507,-1922,-16336,226,-1,-1,-3
4,82,39512,-1844,-16373,315,-1,5,-2
4,83,39517,-1854,-16350,369,2,9,-4
4,84,39523,-1841,-16328,435,0,5,-6
4,85,39527,-1829,-16275,431,-1,0,-4
4,86,39532,-1802,-16276,444,0,-6,-4
4,87,39537,-1788,-16253,507,0,-13,-1
4,88,39542,-1746,-16268,534,-2,-29,-4
4,89,39547,-1800,-16269,516,-3,-29,-2
4,90,39552,-1847,-16276,392,-2,-28,-1
4,91,39557,-1915,-16295,292,-1,-23,-3
4,92,39562,-1858,-16340,277,-2,-12,-3
4,93,39567,-1837,-16376,307,-4,-4,-5
4,94,39572,-1851,-16340,369,-5,4,-5
4,95,39577,-1856,-16355,327,-5,11,-4
4,96,39583,-1905,-16364,304,-5,19,-6
4,97,39587,-1982,-16418,226,-4,27,-8
4,98,39592,-2020,-16435,228,-3,24,-9
4,99,39597,-1927,-16389,333,-4,19,-8
4,100,39602,-1838,-16359,427,-3,8,-9
4,101,39607,-1797,-16344,494,0,-7,-7
4,102,39612,-1768,-16344,504,-3,-16,-6
4,103,39617,-1820,-16314,447,-3,-20,-8
4,104,39622,-1840,-16265,434,-3,-29,-6
4,105,39627,-1841,-16278,461,-3,-41,-5
4,106,39632,-1838,-16301,437,-6,-45,-7
4,107,39637,-1766,-16353,404,-4,-43,-4
4,108,39643,-1796,-16298,369,-7,-22,-7
4,109,39647,-1796,-16298,369,-7,-22,-7
4,110,39652,-1835,-16365,355,-5,-19,-7
4,111,39657,-1764,-16393,343,-8,-13,-5
4,112,39662,-1765,-16402,379,-8,-7,-8
4,113,39667,-1801,-16398,358,-8,-1,-11
4,114,39672,-1848,-16379,312,-9,5,-10
4,115,39677,-1891,-16455,359,-10,5,-7
4,116,39682,-1837,-16430,369,-7,-3,-6
4,117,39687,-1828,-16376,415,-9,-5,-5
4,118,39692,-1838,-16417,413,-8,-5,-5
4,119,39697,-1836,-16385,418,-7,-7,-10
4,120,39703,-1888,-16389,404,-7,-11,-7
4,121,39707,-1916,-16364,394,-9,-15,-5
4,122,39712,-1850,-16339,427,-9,-22,-5
4,123,39717,-1815,-16358,429,-8,-25,-6
4,124,39722,-1750,-16326,440,-8,-28,-7
4,125,39727,-1733,-16328,461,-10,-25,-7
4,126,39732,-1748,-16337,410,-9,-28,-4
4,127,39737,-1730,-16319,385,-8,-28,-3
4,128,39742,-1699,-16332,335,-9,-33,-3
4,129,39747,-1670,-16376,327,-8,-34,-4
4,130,39752,-1666,-16364,298,-11,-29,-2
4,131,39757,-1648,-16375,306,-10,-21,0
4,132,39763,-1682,-16418,273,-7,-13,-3
4,133,39767,-1725,-16441,211,-6,-5,-5
4,134,39772,-1731,-16463,244,-10,3,-5
4,135,39777,-1793,-16440,199,-8,9,-3
4,136,39782,-1765,-16464,187,-8,18,-3
4,137,39787,-1756,-16423,280,-6,23,-3
4,138,39792,-1781,-16440,324,-6,24,-3
4,139,39797,-1796,-16457,362,-7,23,-2
4,140,39802,-1863,-16450,363,-7,23,-1
4,141,39807,-1887,-16448,389,-5,17,-1
4,142,39812,-1808,-16429,493,-9,7,0
4,143,39817,-1804,-16378,553,-5,-6,1
4,144,39823,-1775,-16366,541,-6,-21,-1
4,145,39827,-1825,-16372,521,-8,-37,3
4,146,39832,-1835,-16384,443,-9,-45,5
4,147,39837,-1864,-16424,414,-5,-46,6
4,148,39842,-1826,-16420,312,-5,-42,3
4,149,39847,-1823,-16422,296,-6,-36,1
4,150,39852,-1774,-16434,319,-9,-25,2
4,151,39857,-1773,-16409,298,-7,-20,0
4,152,39862,-1765,-16454,267,-5,-16,2
4,153,39867,-1765,-16442,271,-4,-12,1
4,154,39872,-1763,-16449,230,-8,-7,1
4,155,39877,-1737,-16479,230,-5,-7,2
4,156,39883,-1751,-16499,182,-4,-3,1
4,157,39887,-1803,-16509,160,-3,3,1
4,158,39892,-1815,-16469,159,0,15,0
4,159,39897,-1844,-16467,221,0,20,1
4,160,39902,-1827,-16471,224,1,24,2
4,161,39907,-1813,-16469,227,2,32,-1
4,162,39912,-1849,-16422,307,2,39,-1
4,163,39917,-1897,-16426,402,0,43,-3
4,164,39922,-1907,-16402,452,1,42,-1
4,165,39927,-1936,-16396,496,2,38,0
4,166,39932,-2001,-16389,561,0,34,-1
4,167,39937,-1962,-16382,599,0,29,-1
4,168,39943,-1994,-16390,714,1,17,-2
4,169,39947,-1949,-16371,657,3,0,-2
4,170,39952,-1837,-16334,615,0,-17,-1
4,171,39957,-1852,-16354,595,-2,-35,-1
4,172,39962,-1840,-16358,584,-4,-52,-2
4,173,39967,-1836,-16354,430,-1,-65,-4
4,174,39972,-1908,-16357,283,1,-68,-2
4,175,39977,-1933,-16363,175,1,-62,1
4,176,39982,-1859,-16409,140,2,-46,1
4,177,39987,-1848,-16415,139,1,-30,-2
4,178,39992,-1881,-16408,130,2,-7,-5
4,179,39997,-1873,-16447,104,3,10,-7
4,180,40003,-1891,-16417,214,5,43,-10
4,181,40007,-1891,-16417,214,5,43,-10
4,182,40012,-1827,-16439,311,4,47,-6
4,183,40017,-1769,-16432,341,5,39,-8
4,184,40022,-1785,-16411,390,7,29,-7
4,185,40027,-1805,-16426,408,7,19,-6
4,186,40032,-1843,-16421,449,10,4,-4
4,187,40037,-1883,-16425,401,12,-6,-6
4,188,40042,-1899,-16397,430,10,-14,-7
4,189,40047,-1891,-16377,469,11,-22,-6
4,190,40052,-1879,-16353,471,12,-30,-6
4,191,40057,-1876,-16356,472,10,-36,-7
4,192,40063,-1866,-16371,472,8,-39,-5
4,193,40067,-1902,-16325,438,10,-44,-5
4,194,40072,-1868,-16326,441,9,-48,-6
4,195,40077,-1835,-16270,370,9,-49,-7
4,196,40082,-1846,-16284,328,10,-48,-7
4,197,40087,-1796,-16293,279,11,-44,-8
4,198,40092,-1783,-16288,224,11,-33,-9
4,199,40097,-1808,-16299,197,13,-21,-9
4,200,40102,-1798,-16264,227,12,-7,-5
4,201,40107,-1787,-16260,239,11,6,-8
4,202,40112,-1795,-16309,225,9,18,-10
4,203,40117,-1774,-16306,257,12,26,-12
4,204,40123,-1867,-16322,314,16,32,-10
4,205,40127,-1817,-16313,371,15,32,-9
4,206,40132,-1819,-16336,452,15,28,-11
4,207,40137,-1827,-16321,488,15,21,-13
4,208,40142,-1881,-16307,479,19,10,-8
4,209,40147,-1951,-16373,455,18,-1,-7
4,210,40152,-1967,-16330,500,17,-13,-8
4,211,40157,-1973,-16312,551,18,-29,-7
4,212,40162,-1914,-16274,610,19,-46,-7
4,213,40167,-1845,-16253,604,18,-62,-8
4,214,40172,-1819,-16298,556,16,-75,-6
4,215,40177,-1928,-16271,527,18,-90,-5
4,216,40183,-2000,-16304,510,22,-105,-2
4,217,40187,-1954,-16300,464,18,-112,-2
4,218,40192,-1840,-16278,468,18,-109,-3
4,219,40197,-1831,-16241,527,17,-105,-7
4,220,40202,-1869,-16204,496,21,-106,-4
4,221,40207,-1851,-16239,410,20,-113,-2
4,222,40212,-1911,-16235,415,19,-110,-1
4,223,40217,-1852,-16261,352,19,-106,-1
4,224,40222,-1787,-16327,305,19,-94,-2
4,225,40227,-1826,-16297,283,20,-85,-1
4,226,40232,-1811,-16315,223,22,-75,1
4,227,40237,-1908,-16359,177,23,-67,0
4,228,40243,-1889,-16346,130,25,-52,1
4,229,40247,-1861,-16358,192,20,-32,1
4,230,40252,-1879,-16405,291,24,-16,-1
4,231,40257,-1858,-16349,363,26,-10,-5
4,232,40262,-1781,-16221,394,25,2,-1
4,233,40267,-1826,-16346,444,28,6,6
4,234,40272,-1841,-16280,426,24,-1,0
4,235,40277,-1850,-16260,452,26,-9,3
4,236,40282,-1928,-16271,500,28,-14,7
4,237,40287,-1911,-16306,472,27,-18,7
4,238,40292,-1870,-16292,541,23,-21,12
4,239,40297,-1858,-16305,589,28,-27,15
4,240,40303,-1818,-16267,642,28,-40,13
4,241,40307,-1741,-16278,577,28,-56,18
4,242,40312,-1750,-16308,512,25,-72,18
4,243,40317,-1793,-16254,510,28,-82,19
4,244,40322,-1850,-16327,467,29,-91,26
4,245,40327,-1796,-16314,398,27,-92,23
4,246,40332,-1797,-16351,344,29,-82,28
4,247,40337,-1862,-16394,295,28,-62,27
4,248,40342,-1910,-16386,283,29,-39,24
4,249,40347,-1900,-16356,267,30,-22,25
4,250,40352,-1897,-16382,330,29,-7,28
4,251,40357,-1872,-16417,453,26,2,28
4,252,40363,-1851,-16411,481,26,13,27
4,253,40367,-1851,-16411,481,26,13,27
4,254,40372,-1896,-16381,456,28,12,29
4,255,40377,-1905,-16407,521,29,4,32
4,256,40382,-1863,-16325,632,29,-25,38
4,257,40387,-1863,-16331,593,29,-45,40
4,258,40392,-1899,-16372,493,27,-56,38
4,259,40397,-1886,-16417,456,30,-62,44
4,260,40402,-1908,-16388,504,31,-62,43
4,261,40407,-1924,-16430,476,25,-68,42
4,262,40412,-1920,-16384,505,29,-79,44
4,263,40417,-1874,-16341,511,32,-84,44
4,264,40423,-1805,-16336,462,28,-86,48
4,265,40427,-1804,-16337,469,27,-88,52
4,266,40432,-1840,-16332,503,29,-86,49
4,267,40437,-1896,-16350,499,29,-79,51
4,268,40442,-1899,-16368,410,29,-67,56
4,269,40447,-1866,-16323,370,28,-46,51
4,270,40452,-1921,-16308,419,25,-28,53
4,271,40457,-1888,-16298,452,26,-18,52
4,272,40462,-1872,-16320,442,28,-10,52
4,273,40467,-1885,-16303,435,25,-4,56
4,274,40472,-1970,-16375,411,27,8,56
4,275,40477,-2009,-16331,462,26,15,57
4,276,40483,-2043,-16377,513,24,14,55
4,277,40487,-2046,-16415,541,23,17,54
