event_id,seq,ts_ms,ax,ay,az,gx,gy,gz
1,0,22178,-2123,-16239,-1322,4,-9,0
1,1,22183,-2127,-16284,-1338,5,-9,-2
1,2,22188,-2120,-16280,-1302,4,-9,-3
1,3,22193,-2158,-16234,-1324,4,-8,-4
1,4,22198,-2133,-16259,-1267,2,-8,-4
1,5,22203,-2154,-16211,-1289,2,-8,-2
1,6,22208,-2157,-16240,-1293,2,-8,-2
1,7,22213,-2145,-16251,-1322,4,-8,-3
1,8,22218,-2132,-16219,-1268,4,-8,-3
1,9,22223,-2145,-16254,-1264,1,-6,-2
1,10,22228,-2145,-16213,-1288,2,-6,-3
1,11,22233,-2113,-16268,-1294,3,-9,-3
1,12,22238,-2158,-16273,-1286,2,-7,-4
1,13,22243,-2113,-16271,-1272,4,-8,0
1,14,22248,-2156,-16232,-1261,4,-9,-3
1,15,22253,-2166,-16271,-1270,2,-8,-4
1,16,22258,-2142,-16291,-1283,4,-8,-1
1,17,22263,-2138,-16255,-1277,2,-8,-4
1,18,22268,-2150,-16225,-1282,-1,-7,-4
1,19,22273,-2154,-16261,-1265,2,-11,-3
1,20,22278,-2162,-16267,-1267,1,-8,-5
1,21,22283,-2141,-16198,-1266,1,-9,-5
1,22,22288,-2154,-16226,-1312,1,-8,-5
1,23,22293,-2153,-16269,-1279,1,-6,-4
1,24,22298,-2160,-16248,-1261,1,-5,-5
1,25,22303,-2162,-16261,-1293,3,-10,-5
1,26,22308,-2142,-16243,-1233,2,-9,-4
1,27,22313,-2184,-16253,-1295,2,-8,-4
1,28,22318,-2145,-16243,-1299,3,-10,-3
1,29,22323,-2104,-16241,-1309,1,-7,-5
1,30,22328,-2111,-16244,-1274,1,-7,-5
1,31,22333,-2087,-16255,-1308,1,-6,-3
1,32,22338,-2090,-16261,-1321,4,-8,-2
1,33,22343,-2130,-16235,-1327,1,-8,-3
1,34,22348,-2125,-16258,-1318,-1,-8,-6
1,35,22353,-2100,-16258,-1319,-1,-8,-4
1,36,22358,-2123,-16243,-1298,2,-5,-3
1,37,22363,-2152,-16276,-1307,1,-6,-3
1,38,22368,-2107,-16273,-1340,1,-7,-5
1,39,22373,-2112,-16230,-1283,4,-7,-5
1,40,22378,-2136,-16247,-1276,1,-10,-4
1,41,22383,-2099,-16249,-1323,3,-8,-4
1,42,22388,-2117,-16242,-1313,3,-8,-3
1,43,22393,-2169,-16260,-1314,0,-10,-4
1,44,22398,-2143,-16250,-1305,1,-9,-4
1,45,22403,-2110,-16248,-1301,0,-6,-1
1,46,22408,-2126,-16251,-1253,1,-8,-2
1,47,22413,-2141,-16232,-1267,2,-8,-1
1,48,22418,-2185,-16231,-1266,3,-9,-4
1,49,22423,-2155,-16242,-1311,5,-7,-5
1,50,22428,-2147,-16252,-1297,4,-9,-2
1,51,22433,-2119,-16244,-1241,2,-8,-2
1,52,22438,-2153,-16278,-1306,3,-9,-4
1,53,22443,-2141,-16272,-1284,-1,-9,-6
1,54,22448,-2129,-16254,-1299,1,-8,-4
1,55,22453,-2136,-16255,-1272,2,-9,-3
1,56,22458,-2146,-16308,-1310,3,-9,-6
1,57,22463,-2152,-16245,-1305,1,-8,-4
1,58,22468,-2123,-16237,-1351,2,-8,-4
1,59,22473,-2134,-16290,-1302,2,-10,-4
1,60,22478,-2164,-16233,-1330,3,-10,-3
1,61,22483,-2120,-16229,-1345,2,-6,-3
1,62,22488,-2122,-16251,-1289,1,-6,-3
1,63,22493,-2134,-16241,-1314,2,-7,-3
1,64,22498,-2140,-16247,-1308,3,-5,-7
1,65,22503,-2127,-16244,-1277,2,-8,-4
1,66,22508,-2123,-16256,-1278,1,-8,-3
1,67,22513,-2121,-16273,-1240,1,-8,-3
1,68,22518,-2134,-16246,-1290,0,-10,-4
1,69,22523,-2136,-16246,-1306,1,-6,-4
1,70,22528,-2120,-16231,-1268,2,-8,-2
1,71,22533,-2105,-16239,-1322,2,-8,-3
1,72,22538,-2131,-16245,-1322,1,-10,-2
1,73,22543,-2131,-16230,-1331,0,-9,-2
1,74,22548,-2134,-16251,-1314,1,-9,-3
1,75,22553,-2136,-16230,-1266,2,-8,-5
1,76,22558,-2144,-16220,-1264,4,-7,-5
1,77,22563,-2128,-16253,-1286,4,-7,-3
1,78,22568,-2130,-16252,-1282,2,-9,-3
1,79,22573,-2162,-16231,-1266,5,-10,-2
1,80,22578,-2154,-16254,-1289,3,-7,-6
1,81,22583,-2163,-16251,-1297,0,-5,-4
1,82,22588,-2163,-16242,-1270,0,-8,-5
1,83,22593,-2144,-16216,-1316,1,-8,-5
1,84,22598,-2154,-16265,-1283,2,-5,-4
1,85,22603,-2149,-16244,-1261,2,-7,-5
1,86,22608,-2125,-16259,-1277,3,-10,-2
1,87,22613,-2132,-16293,-1308,2,-5,-3
1,88,22618,-2146,-16254,-1301,0,-8,-4
1,89,22623,-2169,-16242,-1280,2,-9,0
1,90,22628,-2165,-16249,-1260,2,-7,-3
1,91,22633,-2132,-16222,-1302,-1,-8,-2
1,92,22638,-2158,-16247,-1328,2,-10,-3
1,93,22643,-2176,-16246,-1273,2,-9,-3
1,94,22648,-2124,-16259,-1332,2,-8,-4
1,95,22653,-2131,-16232,-1329,0,-9,-5
1,96,22658,-2120,-16257,-1300,2,-9,-5
1,97,22663,-2113,-16252,-1335,0,-6,-5
1,98,22668,-2158,-16275,-1317,2,-4,-4
1,99,22673,-2128,-16239,-1306,1,-7,-4
1,100,22678,-2129,-16242,-1305,1,-9,-1
1,101,22683,-2141,-16258,-1348,0,-10,-2
1,102,22688,-2133,-16265,-1324,3,-9,-1
1,103,22693,-2134,-16252,-1306,2,-9,-4
1,104,22698,-2099,-16233,-1323,2,-7,-4
1,105,22703,-2110,-16265,-1313,3,-8,-1
1,106,22708,-2112,-16282,-1311,4,-8,-2
1,107,22713,-2102,-16233,-1337,3,-7,-5
1,108,22718,-2133,-16282,-1340,2,-8,-2
1,109,22723,-2164,-16250,-1304,0,-7,-2
1,110,22728,-2146,-16256,-1333,2,-9,-2
1,111,22733,-2117,-16256,-1306,5,-7,-2
1,112,22738,-2141,-16256,-1252,5,-8,-5
1,113,22743,-2194,-16213,-1314,2,-6,-5
1,114,22748,-2157,-16230,-1319,4,-9,-5
1,115,22753,-2164,-16258,-1284,3,-9,-4
1,116,22758,-2162,-16234,-1256,3,-9,-5
1,117,22763,-2143,-16253,-1269,3,-9,-3
1,118,22768,-2136,-16252,-1268,4,-12,-4
1,119,22773,-2164,-16279,-1290,2,-8,-5
1,120,22778,-2184,-16233,-1238,3,-7,-1
1,121,22783,-2173,-16244,-1269,4,-10,-4
1,122,22788,-2164,-16261,-1206,2,-11,-4
1,123,22793,-2139,-16262,-1311,3,-8,-4
1,124,22798,-2177,-16236,-1252,2,-8,-6
1,125,22803,-2124,-16239,-1247,1,-8,-4
1,126,22808,-2153,-16256,-1254,2,-9,0
1,127,22813,-2151,-16251,-1261,1,-5,-5
1,128,22818,-2135,-16241,-1329,1,-8,-5
1,129,22823,-2136,-16254,-1299,2,-7,-6
1,130,22828,-2133,-16241,-1265,4,-9,-4
1,131,22833,-2115,-16266,-1290,2,-9,-3
1,132,22838,-2134,-16237,-1273,1,-6,-4
1,133,22843,-2147,-16234,-1298,3,-8,-4
1,134,22848,-2163,-16268,-1270,2,-7,-3
1,135,22853,-2125,-16228,-1332,4,-11,-4
1,136,22858,-2140,-16235,-1322,2,-9,-5
1,137,22863,-2127,-16235,-1322,2,-8,-5
1,138,22868,-2109,-16228,-1297,2,-7,-4
1,139,22873,-2138,-16246,-1313,2,-6,-4
1,140,22878,-2152,-16216,-1300,2,-8,-4
1,141,22883,-2138,-16249,-1304,1,-9,-3
1,142,22888,-2155,-16266,-1282,-1,-8,-4
1,143,22893,-2111,-16213,-1313,0,-8,-6
1,144,22898,-2133,-16216,-1305,-1,-7,-4
1,145,22903,-2134,-16275,-1276,-3,-7,-1
1,146,22908,-2119,-16260,-1327,1,-9,-3
1,147,22913,-2126,-16244,-1366,1,-9,-4
1,148,22918,-2137,-16240,-1293,1,-9,-6
1,149,22923,-2167,-16224,-1284,0,-9,-6
1,150,22928,-2110,-16251,-1299,3,-7,-3
1,151,22933,-2126,-16239,-1300,3,-6,-1
1,152,22938,-2131,-16213,-1268,2,-9,-3
1,153,22943,-2129,-16223,-1295,1,-8,-3
1,154,22948,-2128,-16236,-1311,3,-7,-3
1,155,22953,-2124,-16249,-1293,3,-8,-6
1,156,22958,-2137,-16264,-1341,3,-9,-5
1,157,22963,-2139,-16270,-1328,4,-10,0
1,158,22968,-2149,-16250,-1294,2,-9,-1
1,159,22973,-2137,-16278,-1318,3,-7,-3
1,160,22978,-2113,-16279,-1346,1,-8,-2
1,161,22983,-2120,-16261,-1330,2,-8,-3
1,162,22988,-2129,-16238,-1271,4,-8,-3
1,163,22993,-2135,-16226,-1260,3,-7,-3
1,164,22998,-2146,-16245,-1277,1,-8,-1
1,165,23003,-2170,-16254,-1294,1,-9,-2
1,166,23008,-2139,-16263,-1277,4,-6,-4
1,167,23013,-2167,-16265,-1305,3,-7,-5
1,168,23018,-2180,-16242,-1294,2,-8,-4
1,169,23023,-2113,-16226,-1290,1,-8,-5
1,170,23028,-2146,-16256,-1312,0,-7,-3
1,171,23033,-2178,-16274,-1314,1,-6,-2
1,172,23038,-2119,-16244,-1319,5,-8,-2
1,173,23043,-2109,-16258,-1281,2,-8,-4
1,174,23048,-2144,-16233,-1249,-2,-7,-5
1,175,23053,-2127,-16237,-1316,2,-8,-4
1,176,23058,-2144,-16225,-1280,1,-6,-3
1,177,23063,-2170,-16229,-1255,2,-7,-1
1,178,23068,-2127,-16248,-1311,4,-10,-3
1,179,23073,-2146,-16210,-1335,1,-7,-3
1,180,23078,-2140,-16272,-1310,3,-8,-4
1,181,23083,-2124,-16283,-1275,1,-10,-3
1,182,23088,-2138,-16238,-1330,3,-8,-2
1,183,23093,-2141,-16252,-1282,3,-6,-5
1,184,23098,-2141,-16231,-1265,5,-7,-5
1,185,23103,-2124,-16252,-1305,5,-9,-3
1,186,23108,-2161,-16263,-1276,2,-7,-4
1,187,23113,-2174,-16258,-1279,1,-7,-4
1,188,23118,-2158,-16269,-1271,2,-8,-6
1,189,23123,-2144,-16217,-1326,3,-11,-4
1,190,23128,-2129,-16224,-1306,3,-7,-3
1,191,23133,-2114,-16275,-1329,2,-7,-3
1,192,23138,-2134,-16236,-1284,-1,-6,-6
1,193,23143,-2119,-16236,-1300,0,-7,-5
1,194,23148,-2128,-16258,-1314,2,-8,-1
1,195,23153,-2121,-16242,-1336,2,-7,-5
1,196,23158,-2153,-16237,-1256,3,-5,-4
1,197,23163,-2142,-16228,-1303,3,-8,-3
1,198,23168,-2117,-16235,-1283,2,-7,-2
1,199,23173,-2123,-16223,-1297,2,-10,-2
1,200,23178,-2120,-16215,-1286,2,-13,-3
1,201,23183,-2124,-16217,-1276,3,-10,-1
1,202,23188,-2130,-16234,-1265,1,-5,-1
1,203,23193,-2169,-16280,-1320,2,-8,-2
1,204,23198,-2139,-16234,-1280,2,-7,-4
1,205,23203,-2147,-16225,-1274,2,-11,-5
1,206,23208,-2154,-16225,-1273,2,-10,-4
1,207,23213,-2127,-16245,-1306,0,-8,-2
1,208,23218,-2138,-16266,-1307,3,-10,-4
1,209,23223,-2106,-16272,-1290,0,-6,-1
1,210,23228,-2181,-16231,-1302,0,-5,-3
1,211,23233,-2163,-16240,-1305,2,-9,-3
1,212,23238,-2121,-16253,-1283,3,-9,-1
1,213,23243,-2159,-16263,-1276,3,-11,-2
1,214,23248,-2137,-16259,-1283,0,-8,-3
1,215,23253,-2129,-16279,-1255,2,-9,-4
1,216,23258,-2153,-16231,-1252,4,-7,-4
1,217,23263,-2143,-16277,-1278,4,-9,-2
1,218,23268,-2137,-16239,-1299,3,-7,-4
1,219,23273,-2120,-16238,-1289,-1,-7,-3
1,220,23278,-2148,-16238,-1295,1,-6,-2
1,221,23283,-2168,-16225,-1283,2,-6,-3
1,222,23288,-2121,-16249,-1274,5,-9,-5
1,223,23293,-2139,-16227,-1285,3,-7,-6
1,224,23298,-2166,-16278,-1328,1,-7,-2
1,225,23303,-2129,-16236,-1264,2,-7,-3
1,226,23308,-2141,-16257,-1263,1,-9,-3
1,227,23313,-2138,-16277,-1272,3,-7,-5
1,228,23318,-2125,-16258,-1284,3,-7,-4
1,229,23323,-2128,-16238,-1261,-1,-6,-4
1,230,23328,-2182,-16214,-1277,2,-8,-3
1,231,23333,-2112,-16276,-1312,-1,-8,-2
1,232,23338,-2159,-16251,-1303,0,-9,-3
1,233,23343,-2151,-16266,-1316,1,-12,-4
1,234,23348,-2171,-16243,-1295,2,-7,-3
1,235,23353,-2114,-16214,-1262,1,-5,-3
1,236,23358,-2103,-16231,-1287,3,-8,-5
1,237,23363,-2116,-16263,-1291,3,-8,-2
1,238,23368,-2145,-16245,-1298,2,-10,-2
1,239,23373,-2105,-16245,-1332,2,-10,-3
1,240,23378,-2121,-16251,-1277,4,-7,-7
1,241,23383,-2170,-16236,-1287,2,-7,-5
1,242,23388,-2133,-16234,-1280,1,-7,-4
1,243,23393,-2136,-16227,-1249,3,-6,-6
1,244,23398,-2142,-16269,-1296,2,-7,-2
1,245,23403,-2087,-16243,-1268,2,-9,0
1,246,23408,-2126,-16238,-1300,1,-10,-3
1,247,23413,-2138,-16226,-1302,1,-7,-2
1,248,23418,-2159,-16230,-1270,0,-6,-4
1,249,23423,-2110,-16252,-1252,3,-7,-5
1,250,23428,-2165,-16238,-1279,1,-9,-2
1,251,23433,-2159,-16263,-1295,1,-10,-4
1,252,23438,-2118,-16272,-1285,4,-8,0
1,253,23443,-2142,-16242,-1310,4,-9,-3
1,254,23448,-2136,-16257,-1281,3,-10,-3
1,255,23453,-2132,-16221,-1312,2,-7,-3
1,256,23458,-2131,-16246,-1299,3,-6,-3
1,257,23463,-2137,-16279,-1285,0,-8,0
1,258,23468,-2160,-16249,-1293,3,-8,-3
1,259,23473,-2169,-16241,-1296,4,-8,-3
1,260,23478,-2152,-16275,-1270,2,-10,-3
1,261,23483,-2150,-16260,-1296,3,-8,-4
1,262,23488,-2153,-16250,-1301,2,-9,-4
1,263,23493,-2162,-16227,-1286,0,-8,-3
1,264,23498,-2141,-16265,-1269,2,-7,-5
1,265,23503,-2132,-16273,-1312,2,-8,-4
1,266,23508,-2151,-16249,-1311,4,-6,2
1,267,23513,-2140,-16250,-1297,2,-6,-4
1,268,23518,-2143,-16227,-1287,0,-8,-5
1,269,23523,-2129,-16230,-1296,1,-5,-4
1,270,23528,-2132,-16251,-1328,2,-8,-3
1,271,23533,-2118,-16243,-1289,3,-7,-7
1,272,23538,-2115,-16214,-1281,3,-7,-4
1,273,23543,-2141,-16242,-1315,3,-9,-3
1,274,23548,-2136,-16266,-1307,0,-6,-5
1,275,23553,-2131,-16249,-1332,1,-7,-4
1,276,23558,-2108,-16251,-1291,2,-9,-3
1,277,23563,-2129,-16260,-1287,2,-10,-2
1,278,23568,-2160,-16255,-1283,0,-7,-3
1,279,23573,-2149,-16233,-1254,1,-9,-3
1,280,23578,-2114,-16251,-1255,2,-8,-2
1,281,23583,-2136,-16265,-1291,4,-7,-4
1,282,23588,-2113,-16277,-1287,0,-7,-2
1,283,23593,-2111,-16231,-1277,1,-9,-3
1,284,23598,-2153,-16232,-1329,5,-8,-3
1,285,23603,-2170,-16254,-1337,0,-10,-5
1,286,23608,-2137,-16201,-1291,3,-6,-2
1,287,23613,-2155,-16224,-1268,5,-8,-3
1,288,23618,-2137,-16254,-1269,3,-9,-2
1,289,23623,-2115,-16269,-1259,1,-10,0
1,290,23628,-2165,-16258,-1302,2,-10,-5
1,291,23633,-2135,-16219,-1284,4,-9,-3
1,292,23638,-2130,-16242,-1283,2,-9,-1
1,293,23643,-2141,-16233,-1304,3,-8,-6
1,294,23648,-2164,-16255,-1288,0,-8,-8
1,295,23653,-2154,-16288,-1281,1,-7,-4
1,296,23658,-2157,-16247,-1263,2,-6,-3
1,297,23663,-2150,-16265,-1270,0,-8,-5
1,298,23668,-2120,-16260,-1317,2,-7,-4
1,299,23673,-2148,-16252,-1294,2,-6,-3
1,300,23678,-2155,-16248,-1260,3,-9,-3
1,301,23683,-2148,-16252,-1277,4,-9,-3
1,302,23688,-2152,-16211,-1299,2,-8,-5
1,303,23693,-2121,-16254,-1290,4,-9,-4
1,304,23698,-2105,-16219,-1325,2,-8,-3
1,305,23703,-2150,-16266,-1283,-1,-9,-4
1,306,23708,-2126,-16260,-1283,-1,-8,-4
1,307,23713,-2125,-16248,-1301,3,-9,-3
1,308,23718,-2142,-16214,-1324,2,-8,-2
1,309,23723,-2123,-16226,-1296,3,-10,-3
1,310,23728,-2117,-16235,-1300,5,-9,-4
1,311,23733,-2151,-16236,-1291,3,-7,-2
1,312,23738,-2146,-16238,-1263,3,-7,-4
1,313,23743,-2118,-16259,-1274,2,-8,-4
1,314,23748,-2118,-16259,-1270,3,-11,-2
1,315,23753,-2140,-16217,-1272,2,-10,-4
1,316,23758,-2126,-16224,-1312,1,-7,-5
1,317,23763,-2103,-16248,-1305,5,-8,-2
1,318,23768,-2135,-16228,-1309,3,-9,-2
1,319,23773,-2167,-16252,-1321,0,-9,-4
1,320,23778,-2117,-16255,-1286,2,-9,-5
1,321,23783,-2140,-16243,-1301,0,-7,-4
1,322,23788,-2154,-16223,-1314,1,-9,-4
1,323,23793,-2157,-16238,-1316,2,-7,-2
1,324,23798,-2098,-16239,-1359,3,-5,-2
1,325,23803,-2137,-16279,-1298,2,-10,-4
1,326,23808,-2163,-16249,-1301,2,-11,-3
1,327,23813,-2149,-16233,-1327,1,-9,-3
1,328,23818,-2127,-16262,-1302,2,-9,-4
1,329,23823,-2135,-16257,-1299,4,-9,-4
1,330,23828,-2143,-16249,-1302,3,-8,-3
1,331,23833,-2078,-16240,-1328,3,-7,-3
1,332,23838,-1841,-16233,-1511,5,-8,-2
1,333,23843,-1779,-16213,-1346,6,2,-2
1,334,23848,-1703,-16259,-1357,4,-6,1
1,335,23853,-1746,-16211,-1483,4,-17,5
1,336,23858,-1696,-16299,-1681,8,-23,13
1,337,23863,-1676,-16259,-1775,6,-14,10
1,338,23868,-1089,-16270,-2466,10,-14,13
1,339,23873,-182,-16317,-3408,19,16,25
1,340,23878,-600,-16311,-2444,22,66,29
1,341,23883,-3264,-16189,323,24,9,11
1,342,23888,-5671,-16337,2005,12,-177,-13
1,343,23893,-3450,-15990,-732,16,-288,-14
1,344,23898,-1589,-15564,-3455,30,-20,72
1,345,23903,33,-17248,-3245,32,274,85
1,346,23908,-188,-16408,104,-6,209,-73
1,347,23913,-2637,-15192,850,5,-237,-39
1,348,23918,-3370,-16382,-1387,69,-615,103
1,349,23923,-2600,-16755,-3472,58,-536,76
1,350,23928,-2542,-16266,-2671,16,-272,12
1,351,23933,-3763,-16118,-1576,29,-268,31
1,352,23938,-3849,-17070,-2452,80,-578,80
1,353,23943,-5502,-16232,-4138,103,-849,92
1,354,23948,-4851,-16761,-7181,103,-866,149
1,355,23953,-2985,-16182,-1760,17,-157,-21
1,356,23958,-2583,-15653,744,69,-402,11
1,357,23963,-2353,-16425,-1238,142,-777,38
1,358,23968,-2895,-16786,-3855,151,-715,57
1,359,23973,-950,-17125,-5707,120,-426,79
1,360,23978,-1359,-16549,-939,72,-101,19
1,361,23983,-2486,-15799,204,91,-344,6
1,362,23988,-3722,-16220,-687,135,-727,67
1,363,23993,-3836,-16447,-3920,156,-843,76
1,364,23998,-3383,-16742,-3780,136,-557,52
1,365,24003,-2890,-16547,-2149,112,-277,27
1,366,24008,-2929,-16128,-1127,114,-279,19
1,367,24013,-2724,-16184,-1654,151,-519,28
1,368,24018,-2475,-16585,-2107,171,-678,40
1,369,24023,-1618,-16601,-3139,161,-672,46
1,370,24028,-734,-16287,-2520,143,-500,43
1,371,24033,-401,-16067,-619,146,-403,31
1,372,24038,-184,-15934,-899,174,-509,49
1,373,24043,-94,-16309,-2752,203,-601,76
1,374,24048,-649,-16617,-4630,212,-511,68
1,375,24053,-1631,-16815,-4884,213,-294,63
1,376,24058,-2364,-16695,-4687,212,-72,65
1,377,24063,-3012,-16934,-3687,225,148,57
1,378,24068,-4164,-17536,-2287,250,401,41
1,379,24073,-4933,-18268,-2764,281,654,32
1,380,24078,-5521,-18582,-1986,283,959,11
1,381,24083,-5373,-18199,266,274,1104,-11
1,382,24088,-4551,-17674,2901,268,984,-4
1,383,24093,-3301,-17340,3348,291,663,20
1,384,24098,-2246,-17212,2354,303,387,38
1,385,24103,-1722,-17038,1480,308,201,54
1,386,24108,-1739,-16618,1150,311,29,76
1,387,24113,-1722,-16307,339,324,-179,109
1,388,24118,-1914,-16777,-1153,333,-290,129
1,389,24123,-2800,-16714,-1866,345,-232,142
1,390,24128,-3331,-17050,-3209,344,-25,140
1,391,24133,-4726,-17070,-2387,339,325,120
1,392,24138,-5002,-17429,-2716,343,606,116
1,393,24143,-4973,-17734,-2190,349,896,109
1,394,24148,-4348,-17878,-1831,355,1089,109
1,395,24153,-3594,-17802,109,350,1203,106
1,396,24158,-3413,-17434,2128,345,1160,115
1,397,24163,-3470,-17346,3310,353,997,144
1,398,24168,-3524,-17215,2962,362,771,175
1,399,24173,-3431,-17093,2656,360,572,200
1,400,24178,-3487,-16900,2927,354,361,226
1,401,24183,-3496,-16853,2846,350,117,253
1,402,24188,-3492,-16889,1847,360,-104,282
1,403,24193,-3273,-16814,496,365,-205,309
1,404,24198,-3347,-16733,-278,357,-177,323
1,405,24203,-3764,-16586,-518,349,-89,324
1,406,24208,-4005,-16523,-943,347,41,330
1,407,24213,-3499,-16503,-1525,354,222,344
1,408,24218,-2684,-16507,-1508,347,458,352
1,409,24223,-2231,-16433,-559,338,672,356
1,410,24228,-2444,-16468,281,333,784,364
1,411,24233,-2915,-16471,346,335,804,388
1,412,24238,-3145,-16513,354,334,814,416
1,413,24243,-3210,-16515,1291,324,835,439
1,414,24248,-3203,-16309,2711,315,795,455
1,415,24253,-3355,-16189,3305,313,654,479
1,416,24258,-3536,-16007,3010,315,468,507
1,417,24263,-3471,-15709,2336,312,289,534
1,418,24268,-3452,-15449,2094,295,158,561
1,419,24273,-3546,-15396,1825,289,42,585
1,420,24278,-3738,-15376,1305,289,-40,602
1,421,24283,-3710,-15285,765,283,-63,619
1,422,24288,-3679,-15292,447,278,-14,629
1,423,24293,-3518,-15178,402,270,92,634
1,424,24298,-3374,-14908,325,260,218,642
1,425,24303,-3271,-14737,443,253,340,656
1,426,24308,-3234,-14595,704,246,424,662
1,427,24313,-3284,-14446,908,239,466,672
1,428,24318,-3430,-14401,1291,225,507,702
1,429,24323,-3526,-14244,1636,216,518,715
1,430,24328,-3665,-14165,1995,208,506,729
1,431,24333,-4007,-14007,2151,196,463,742
1,432,24338,-4240,-13998,2021,190,386,760
1,433,24343,-4361,-14239,1783,186,312,774
1,434,24348,-4280,-14477,1644,180,242,783
1,435,24353,-4327,-14591,1610,172,173,791
1,436,24358,-4591,-14625,1386,168,102,797
1,437,24363,-5017,-14651,989,166,48,802
1,438,24368,-5187,-14781,562,162,23,810
1,439,24373,-4955,-14855,521,153,35,810
1,440,24378,-4553,-14757,449,152,57,815
1,441,24383,-4239,-14747,447,151,95,812
1,442,24388,-4280,-14712,453,150,131,811
1,443,24393,-4429,-14638,481,145,165,811
1,444,24398,-4440,-14590,481,140,194,816
1,445,24403,-4253,-14586,528,133,221,819
1,446,24408,-4083,-14608,706,127,248,824
1,447,24413,-4168,-14633,997,124,248,824
1,448,24418,-4495,-14644,1050,123,220,822
1,449,24423,-4731,-14586,913,117,178,826
1,450,24428,-4816,-14501,799,112,146,830
1,451,24433,-4932,-14712,902,109,111,831
1,452,24438,-4731,-14386,955,105,66,826
1,453,24443,-5149,-15042,1305,105,17,850
1,454,24448,-4950,-14699,561,100,-43,812
1,455,24453,-5118,-14485,786,97,-2,809
1,456,24458,-5054,-14828,151,95,-15,834
1,457,24463,-4797,-14576,179,86,-6,813
1,458,24468,-4552,-14573,-19,86,2,805
1,459,24473,-4634,-14773,-276,85,28,805
1,460,24478,-4938,-15239,-563,84,83,795
1,461,24483,-5207,-15531,-828,85,153,784
1,462,24488,-5226,-15791,-519,77,228,770
1,463,24493,-5143,-15811,109,74,276,759
1,464,24498,-5175,-15768,422,73,277,749
1,465,24503,-5268,-15808,464,73,249,739
1,466,24508,-5495,-15925,528,70,205,735
1,467,24513,-5480,-15893,698,64,156,722
1,468,24518,-5548,-15811,1043,56,106,715
1,469,24523,-5545,-15835,908,60,48,707
1,470,24528,-5723,-15754,748,58,12,688
1,471,24533,-5756,-15711,680,52,-25,677
1,472,24538,-5741,-15639,736,46,-54,663
1,473,24543,-5616,-15536,754,43,-74,649
1,474,24548,-5583,-15602,414,43,-77,632
1,475,24553,-5671,-15633,46,38,-61,611
1,476,24558,-5776,-15746,-41,36,-46,593
1,477,24563,-5923,-15789,160,31,-41,574
1,478,24568,-6088,-15897,288,26,-37,555
1,479,24573,-6237,-15965,290,24,-18,536
1,480,24578,-6279,-15964,267,20,7,510
1,481,24583,-6120,-15881,467,16,17,491
1,482,24588,-6120,-15796,835,11,10,468
1,483,24593,-6259,-15756,1059,11,-26,449
1,484,24598,-6450,-15737,931,9,-74,427
1,485,24603,-6548,-15798,737,5,-105,407
1,486,24608,-6581,-15846,645,0,-111,384
1,487,24613,-6499,-15847,633,-2,-114,362
1,488,24618,-6426,-15854,584,-5,-111,340
1,489,24623,-6477,-15916,233,-6,-109,313
1,490,24628,-6642,-15939,-14,-11,-85,288
1,491,24633,-6668,-15862,-157,-16,-39,260
1,492,24638,-6527,-15847,-152,-18,28,234
1,493,24643,-6375,-15773,-96,-21,92,207
1,494,24648,-6473,-15681,104,-25,151,178
1,495,24653,-6762,-15652,380,-28,193,151
1,496,24658,-6899,-15573,488,-30,216,130
1,497,24663,-6696,-15629,418,-34,232,105
1,498,24668,-6493,-15583,700,-38,250,82
1,499,24673,-6487,-15575,1119,-42,229,53
1,500,24678,-6650,-15568,1258,-45,156,31
1,501,24683,-6695,-15616,758,-44,32,-6
1,502,24688,-6603,-15689,705,-49,13,-33
1,503,24693,-6548,-15658,688,-54,-11,-57
1,504,24698,-6315,-15600,352,-53,-53,-74
1,505,24703,-6295,-15658,12,-53,-74,-88
1,506,24708,-6177,-15580,-235,-56,-68,-118
1,507,24713,-6278,-15526,-248,-58,-31,-143
1,508,24718,-6397,-15510,-197,-62,17,-165
1,509,24723,-6458,-15523,-196,-62,72,-191
1,510,24728,-6449,-15543,-249,-60,127,-215
1,511,24733,-6307,-15637,-203,-64,176,-240
1,512,24738,-6305,-15548,58,-70,211,-266
1,513,24743,-6256,-15599,316,-75,223,-291
1,514,24748,-6333,-15591,639,-75,222,-312
1,515,24753,-6241,-15705,584,-73,205,-330
1,516,24758,-6173,-15775,433,-75,186,-351
1,517,24763,-6116,-15791,321,-76,164,-376
1,518,24768,-6237,-15747,464,-78,118,-397
1,519,24773,-6352,-15635,428,-83,58,-415
1,520,24778,-6485,-15668,270,-85,26,-436
1,521,24783,-6547,-15773,79,-88,35,-463
1,522,24788,-6432,-15827,20,-90,75,-488
1,523,24793,-6374,-15699,149,-98,111,-514
1,524,24798,-6099,-15557,83,-99,112,-538
1,525,24803,-5994,-15491,108,-102,103,-558
1,526,24808,-5936,-15487,60,-103,89,-584
1,527,24813,-5913,-15481,140,-108,80,-606
1,528,24818,-5804,-15508,137,-113,78,-628
1,529,24823,-5682,-15567,191,-113,78,-646
1,530,24828,-5606,-15513,286,-117,75,-670
1,531,24833,-5614,-15433,265,-121,51,-691
1,532,24838,-5836,-15307,233,-125,21,-711
1,533,24843,-5778,-15329,116,-130,-7,-730
1,534,24848,-5633,-15397,207,-137,-26,-752
1,535,24853,-5419,-15495,362,-142,-42,-774
1,536,24858,-5340,-15509,424,-146,-66,-793
1,537,24863,-5327,-15519,405,-149,-99,-813
1,538,24868,-5285,-15559,303,-155,-137,-831
1,539,24873,-5148,-15466,88,-159,-168,-848
1,540,24878,-4892,-15435,-103,-165,-182,-866
1,541,24883,-4621,-15396,-434,-169,-187,-883
1,542,24888,-4232,-15356,-802,-170,-183,-894
1,543,24893,-3936,-15373,-1058,-171,-158,-907
1,544,24898,-3946,-15395,-1285,-176,-106,-927
1,545,24903,-4161,-15463,-1403,-178,-28,-947
1,546,24908,-4259,-15525,-1481,-182,75,-967
1,547,24913,-4104,-15634,-1370,-187,194,-985
1,548,24918,-3864,-15660,-1132,-190,315,-1004
1,549,24923,-3741,-15606,-761,-188,402,-1023
1,550,24928,-3821,-15556,-498,-191,434,-1035
1,551,24933,-3938,-15516,-306,-189,430,-1046
1,552,24938,-4005,-15531,-18,-192,413,-1058
1,553,24943,-4114,-15530,222,-194,390,-1068
1,554,24948,-4246,-15437,426,-194,354,-1076
1,555,24953,-4260,-15379,541,-198,296,-1087
1,556,24958,-4045,-15321,543,-197,225,-1094
1,557,24963,-3658,-15313,624,-202,153,-1101
1,558,24968,-3311,-15441,467,-209,83,-1109
1,559,24973,-3169,-15550,21,-209,31,-1118
1,560,24978,-3310,-15560,-510,-209,1,-1123
1,561,24983,-3538,-15576,-778,-217,-3,-1130
1,562,24988,-3511,-15634,-1018,-218,17,-1135
1,563,24993,-3288,-15648,-1253,-224,95,-1145
1,564,24998,-2893,-15697,-1571,-222,192,-1156
1,565,25003,-2857,-15637,-1460,-224,294,-1171
1,566,25008,-2901,-15570,-1397,-228,349,-1178
1,567,25013,-3066,-15535,-1179,-228,400,-1183
1,568,25018,-2841,-15641,-1227,-224,451,-1183
1,569,25023,-2655,-15738,-1077,-226,529,-1193
1,570,25028,-2556,-15784,-799,-226,586,-1201
1,571,25033,-2700,-15826,-335,-228,588,-1208
1,572,25038,-2645,-15916,-147,-223,535,-1204
1,573,25043,-2601,-16000,-274,-217,485,-1201
1,574,25048,-2377,-16099,-420,-220,425,-1205
1,575,25053,-2582,-16008,-220,-222,380,-1207
1,576,25058,-2919,-15949,-185,-221,316,-1203
1,577,25063,-2870,-15953,-489,-217,273,-1201
1,578,25068,-2557,-15917,-764,-216,266,-1202
1,579,25073,-2339,-15930,-589,-223,279,-1205
1,580,25078,-2275,-15860,-291,-230,250,-1208
1,581,25083,-2106,-15870,-295,-227,184,-1201
1,582,25088,-1940,-15882,-742,-223,130,-1195
1,583,25093,-1912,-16012,-1130,-229,128,-1195
1,584,25098,-2079,-16112,-814,-236,158,-1197
1,585,25103,-1927,-16256,-739,-232,157,-1196
1,586,25108,-1639,-16361,-869,-234,139,-1194
1,587,25113,-1462,-16405,-1254,-228,124,-1188
1,588,25118,-1610,-16451,-1254,-233,142,-1192
1,589,25123,-1626,-16522,-1135,-235,145,-1190
1,590,25128,-1505,-16501,-1152,-233,137,-1186
1,591,25133,-1493,-16439,-1185,-237,135,-1183
1,592,25138,-1674,-16491,-1057,-237,145,-1182
1,593,25143,-1794,-16452,-892,-238,150,-1184
1,594,25148,-1602,-16424,-669,-239,151,-1176
1,595,25153,-1351,-16404,-539,-241,140,-1177
1,596,25158,-1270,-16328,-391,-243,103,-1175
1,597,25163,-1332,-12534,-578,-247,45,-1166
1,598,25168,13108,-20387,-6929,-194,-5,-1143
1,599,25173,-17395,-10910,-13409,-107,1065,-1803
1,600,25178,-32768,4101,28220,-289,1706,594
1,601,25183,-12390,-417,-14587,744,-2181,3137
1,602,25188,32767,-24175,-32768,508,284,1768
1,603,25193,15591,-14940,14513,-365,8277,-2223
1,604,25198,-32768,-12582,32767,-456,5066,-1675
1,605,25203,-32768,-3113,5604,680,-9716,1657
1,606,25208,7309,-22015,-32768,829,-11471,3307
1,607,25213,32767,-21250,-32768,-1,-1437,958
1,608,25218,18197,-18934,4411,-345,9870,-1477
1,609,25223,-32768,-6568,32767,-558,7386,-1420
1,610,25228,-32768,-10357,2369,707,-7536,1399
1,611,25233,5541,-23028,-32768,893,-9350,2620
1,612,25238,31745,-20256,-32768,-1,-1575,695
1,613,25243,10284,-15393,4221,-221,6705,-895
1,614,25248,-29462,-9937,32767,-282,6033,-721
1,615,25253,-17845,-12180,6558,444,-3378,1018
1,616,25258,12411,-21513,-32768,643,-5603,1861
1,617,25263,14590,-20037,-28890,18,-266,535
1,618,25268,-2629,-14776,11758,-142,3850,-424
1,619,25273,-15612,-11713,32767,-71,2625,-149
1,620,25278,-5425,-14240,2546,420,-1927,900
1,621,25283,9498,-20569,-31928,436,-2570,1172
1,622,25288,4023,-17566,-15630,24,658,306
1,623,25293,-7231,-14551,14406,-97,1863,-27
1,624,25298,-9326,-13324,19900,77,258,294
1,625,25303,363,-16408,-5548,339,-1550,799
1,626,25308,5807,-19221,-19986,259,-638,683
1,627,25313,-1555,-17081,-4092,21,1255,194
1,628,25318,-7671,-15141,12152,2,951,160
1,629,25323,-5434,-14898,8379,151,-698,451
1,630,25328,1647,-17401,-7596,260,-1326,667
1,631,25333,2263,-18292,-10366,154,-66,448
1,632,25338,-3852,-16851,2077,33,965,196
1,633,25343,-6302,-15755,7558,73,192,270
1,634,25348,-3196,-16084,1474,178,-992,475
1,635,25353,1031,-17333,-6657,194,-1060,510
1,636,25358,-424,-17338,-3866,106,-63,333
1,637,25363,-3933,-16573,2970,63,340,241
1,638,25368,-4370,-16105,2630,108,-272,320
1,639,25373,-1690,-16473,-2695,158,-857,408
1,640,25378,-51,-16796,-4416,137,-649,370
1,641,25383,-1641,-16646,-667,91,-106,279
1,642,25388,-3255,-16347,1681,90,-29,261
1,643,25393,-2662,-16485,-605,123,-318,312
1,644,25398,-1085,-16688,-3522,130,-425,322
1,645,25403,-678,-16723,-2362,108,-216,278
1,646,25408,-1728,-16542,760,89,-53,242
1,647,25413,-1779,-16694,-1887,119,-238,274
1,648,25418,-1281,-16731,-2844,107,-113,255
1,649,25423,-1519,-16594,-763,85,30,223
1,650,25428,-1912,-16454,733,87,-44,221
1,651,25433,-1939,-16550,-310,104,-191,237
1,652,25438,-1696,-16648,-1793,108,-171,235
1,653,25443,-1933,-16566,-1519,91,-15,209
1,654,25448,-2313,-16429,73,80,41,190
1,655,25453,-2234,-16358,236,83,-84,194
1,656,25458,-2004,-16359,-542,91,-182,197
1,657,25463,-1964,-16303,-799,83,-143,182
1,658,25468,-2223,-16208,-229,73,-64,163
1,659,25473,-2320,-16136,121,68,-91,160
1,660,25478,-2040,-16143,-211,68,-183,162
1,661,25483,-1851,-16132,-555,66,-222,155
1,662,25488,-1954,-16124,-426,61,-197,142
1,663,25493,-2062,-16187,-316,58,-168,132
1,664,25498,-2055,-16229,-581,54,-166,127
1,665,25503,-1947,-16227,-792,53,-160,121
1,666,25508,-1903,-16270,-654,48,-141,110
1,667,25513,-1992,-16312,-415,41,-125,101
1,668,25518,-1988,-16335,-480,41,-119,96
1,669,25523,-1959,-16324,-675,38,-103,90
1,670,25528,-1856,-16377,-733,35,-80,85
1,671,25533,-1903,-16444,-581,30,-64,75
1,672,25538,-1936,-16518,-590,28,-76,70
1,673,25543,-1928,-16544,-590,31,-82,67
1,674,25548,-1860,-16518,-680,27,-75,60
1,675,25553,-1935,-16510,-660,22,-60,51
1,676,25558,-1967,-16476,-561,19,-56,45
1,677,25563,-1931,-16477,-602,18,-62,43
1,678,25568,-1748,-16414,-663,17,-65,37
1,679,25573,-1654,-16437,-682,12,-58,31
1,680,25578,-1662,-16415,-707,10,-54,28
1,681,25583,-1764,-16410,-774,8,-48,21
1,682,25588,-1834,-16434,-873,7,-39,19
1,683,25593,-1865,-16452,-862,6,-22,15
1,684,25598,-1839,-16423,-897,7,2,10
1,685,25603,-1908,-16478,-900,5,28,6
1,686,25608,-1911,-16536,-823,4,52,1
1,687,25613,-1850,-16475,-780,1,80,-2
1,688,25618,-1856,-16433,-703,2,103,-10
1,689,25623,-1954,-16403,-578,-3,109,-16
1,690,25628,-2092,-16408,-500,-4,99,-14
1,691,25633,-2114,-16391,-424,-5,88,-18
1,692,25638,-2076,-16396,-322,-10,76,-22
1,693,25643,-2046,-16373,-207,-10,57,-23
1,694,25648,-2022,-16397,-226,-9,22,-25
1,695,25653,-1969,-16443,-334,-8,-15,-28
1,696,25658,-1972,-16421,-401,-12,-55,-28
1,697,25663,-1966,-16378,-403,-13,-85,-27
1,698,25668,-1885,-16344,-567,-15,-88,-32
1,699,25673,-1808,-16305,-774,-13,-75,-33
1,700,25678,-1728,-16214,-994,-16,-49,-34
1,701,25683,-1590,-16196,-1179,-16,-21,-34
1,702,25688,-1430,-16207,-1283,-15,13,-37
1,703,25693,-1454,-16190,-1339,-17,60,-41
1,704,25698,-1605,-16191,-1336,-15,113,-42
1,705,25703,-1673,-16212,-1334,-17,176,-44
1,706,25708,-1712,-16270,-1316,-18,248,-47
1,707,25713,-1634,-16305,-1138,-16,316,-49
1,708,25718,-1602,-16294,-789,-15,359,-49
1,709,25723,-1751,-16269,-657,-17,375,-51
1,710,25728,-1927,-16258,-641,-16,380,-51
1,711,25733,-2087,-16195,-545,-18,384,-51
1,712,25738,-2193,-16158,-315,-21,392,-51
1,713,25743,-2308,-16136,-31,-21,382,-54
1,714,25748,-2391,-16126,116,-20,357,-53
1,715,25753,-2509,-16146,196,-24,323,-53
1,716,25758,-2591,-16138,237,-24,283,-55
1,717,25763,-2665,-16103,291,-28,235,-55
1,718,25768,-2645,-16080,348,-29,178,-55
1,719,25773,-2479,-16022,322,-31,121,-54
1,720,25778,-2297,-15995,186,-30,69,-53
1,721,25783,-2377,-16097,-310,-35,-6,-57
1,722,25788,-2353,-16089,-672,-36,-27,-52
1,723,25793,-2262,-16091,-878,-40,-18,-51
1,724,25798,-2122,-16148,-987,-39,9,-53
1,725,25803,-2133,-16311,-1014,-38,51,-54
1,726,25808,-2220,-16443,-1213,-38,101,-57
1,727,25813,-2210,-16468,-1255,-37,165,-59
1,728,25818,-1942,-16417,-1192,-38,227,-62
1,729,25823,-1986,-16369,-936,-39,280,-63
1,730,25828,-1980,-16408,-890,-38,303,-62
1,731,25833,-2005,-16403,-975,-34,315,-60
1,732,25838,-2018,-16424,-997,-33,330,-55
1,733,25843,-2075,-16427,-670,-34,345,-55
1,734,25848,-2176,-16414,-404,-31,336,-54
1,735,25853,-2346,-16351,-379,-30,314,-50
1,736,25858,-2436,-16391,-421,-29,295,-46
1,737,25863,-2519,-16350,-240,-32,281,-45
1,738,25868,-2432,-16309,-98,-34,246,-45
1,739,25873,-2315,-16271,-9,-34,204,-41
1,740,25878,-2220,-16270,-62,-33,152,-36
1,741,25883,-2234,-16270,-213,-31,114,-36
1,742,25888,-2198,-16242,-388,-32,78,-28
1,743,25893,-2223,-16255,-500,-33,56,-22
1,744,25898,-2243,-16302,-657,-35,51,-23
1,745,25903,-2171,-16332,-731,-35,57,-20
1,746,25908,-2107,-16412,-819,-36,77,-21
1,747,25913,-2153,-16430,-957,-35,99,-21
1,748,25918,-2186,-16411,-1025,-33,113,-17
1,749,25923,-2192,-16373,-1097,-33,133,-15
1,750,25928,-2156,-16366,-1126,-33,154,-15
1,751,25933,-2097,-16386,-1006,-31,183,-13
1,752,25938,-2147,-16430,-944,-29,207,-9
1,753,25943,-2189,-16408,-845,-29,227,-7
1,754,25948,-2259,-16387,-830,-29,239,-9
1,755,25953,-2277,-16382,-779,-28,242,-8
1,756,25958,-2340,-16397,-635,-29,241,-4
1,757,25963,-2328,-16455,-456,-29,229,0
1,758,25968,-2294,-16499,-424,-28,209,2
1,759,25973,-2355,-16514,-388,-28,186,4
1,760,25978,-2463,-16486,-313,-28,163,8
1,761,25983,-2613,-16402,-269,-27,132,9
1,762,25988,-2602,-16327,-280,-29,98,9
1,763,25993,-2547,-16319,-308,-28,71,13
1,764,25998,-2536,-16291,-316,-30,50,17
1,765,26003,-2539,-16322,-314,-31,33,17
1,766,26008,-2550,-16322,-492,-34,22,16
1,767,26013,-2545,-16296,-656,-35,19,18
1,768,26018,-2443,-16281,-802,-32,25,19
1,769,26023,-2349,-16322,-934,-35,34,18
1,770,26028,-2211,-16305,-1011,-39,41,18
1,771,26033,-2253,-16307,-1008,-40,58,17
1,772,26038,-2307,-16312,-1078,-34,76,17
1,773,26043,-2359,-16350,-1154,-32,102,19
1,774,26048,-2358,-16407,-1126,-35,136,19
1,775,26053,-2325,-16433,-990,-34,163,16
1,776,26058,-2356,-16402,-818,-34,174,17
1,777,26063,-2439,-16361,-741,-34,174,17
1,778,26068,-2474,-16364,-685,-35,164,19
1,779,26073,-2436,-16341,-497,-34,150,20
1,780,26078,-2413,-16333,-386,-34,125,21
1,781,26083,-2468,-16314,-302,-34,97,23
1,782,26088,-2556,-16340,-374,-32,57,24
1,783,26093,-2643,-16351,-424,-33,21,28
1,784,26098,-2611,-16329,-481,-33,-7,30
1,785,26103,-2473,-16318,-473,-34,-31,28
1,786,26108,-2370,-16330,-593,-36,-50,27
1,787,26113,-2387,-16296,-679,-37,-59,29
1,788,26118,-2423,-16240,-784,-37,-65,28
1,789,26123,-2445,-16249,-873,-36,-64,30
1,790,26128,-2394,-16255,-984,-37,-58,32
1,791,26133,-2315,-16260,-1030,-37,-40,32
1,792,26138,-2268,-16264,-1081,-38,-22,27
1,793,26143,-2214,-16270,-1117,-37,8,29
1,794,26148,-2198,-16260,-1136,-35,28,28
1,795,26153,-2237,-16293,-1158,-36,54,28
1,796,26158,-2320,-16299,-1127,-35,84,28
1,797,26163,-2331,-16335,-1012,-36,109,27
1,798,26168,-2393,-16399,-905,-33,122,24
1,799,26173,-2474,-16411,-845,-37,129,27
1,800,26178,-2532,-16448,-763,-35,128,27
1,801,26183,-2536,-16408,-562,-37,115,24
1,802,26188,-2522,-16331,-503,-35,89,25
1,803,26193,-2459,-16295,-489,-31,57,29
1,804,26198,-2464,-16241,-610,-31,21,26
1,805,26203,-2590,-16246,-723,-36,-6,28
1,806,26208,-2607,-16245,-713,-37,-28,32
1,807,26213,-2565,-16239,-751,-35,-42,30
1,808,26218,-2463,-16266,-889,-36,-37,28
1,809,26223,-2391,-16301,-976,-35,-18,26
1,810,26228,-2348,-16304,-1083,-36,2,25
1,811,26233,-2336,-16316,-1151,-36,20,24
1,812,26238,-2282,-16330,-1195,-36,34,21
1,813,26243,-2211,-16332,-1190,-36,48,24
1,814,26248,-2244,-16415,-1200,-35,67,27
1,815,26253,-2276,-16473,-1322,-37,87,23
1,816,26258,-2366,-16513,-1345,-34,112,22
1,817,26263,-2430,-16493,-1333,-32,133,22
1,818,26268,-2456,-16453,-1216,-32,141,22
1,819,26273,-2365,-16368,-994,-32,143,18
1,820,26278,-2311,-16297,-828,-31,138,19
1,821,26283,-2356,-16306,-805,-28,134,21
1,822,26288,-2448,-16321,-864,-27,129,22
1,823,26293,-2399,-16350,-803,-31,118,18
1,824,26298,-2366,-16277,-639,-33,96,22
1,825,26303,-2410,-16270,-501,-30,62,22
1,826,26308,-2463,-16227,-634,-30,28,22
1,827,26313,-2473,-16241,-825,-28,11,25
1,828,26318,-2458,-16202,-877,-30,-1,26
1,829,26323,-2383,-16171,-861,-31,-17,25
1,830,26328,-2298,-16185,-844,-28,-35,28
1,831,26333,-2251,-16230,-1010,-29,-48,28
1,832,26338,-2337,-16256,-1207,-27,-44,26
1,833,26343,-2447,-16332,-1307,-27,-23,24
1,834,26348,-2470,-16361,-1270,-29,-1,25
1,835,26353,-2432,-16342,-1139,-28,17,24
1,836,26358,-2393,-16342,-1115,-28,36,21
1,837,26363,-2406,-16373,-1080,-26,60,19
1,838,26368,-2479,-16336,-1054,-27,80,18
1,839,26373,-2505,-16305,-977,-28,86,19
1,840,26378,-2435,-16293,-924,-27,82,18
1,841,26383,-2418,-16258,-819,-25,76,15
1,842,26388,-2442,-16260,-805,-27,65,17
1,843,26393,-2517,-16252,-769,-27,52,15
1,844,26398,-2554,-16258,-794,-27,38,15
1,845,26403,-2562,-16246,-848,-26,22,15
1,846,26408,-2527,-16228,-830,-23,9,15
1,847,26413,-2453,-16214,-864,-27,-5,14
1,848,26418,-2450,-16091,-907,-28,-22,12
1,849,26423,-2517,-16047,-989,-28,-38,12
1,850,26428,-2526,-16045,-1043,-23,-43,10
1,851,26433,-2480,-16032,-1062,-23,-42,12
1,852,26438,-2395,-16027,-973,-25,-37,12
1,853,26443,-2275,-16018,-926,-25,-32,7
1,854,26448,-2207,-16066,-930,-25,-32,12
1,855,26453,-2204,-16086,-1056,-23,-29,12
1,856,26458,-2171,-16086,-1214,-26,-21,8
1,857,26463,-2119,-16100,-1196,-27,-12,9
1,858,26468,-2118,-16171,-1241,-21,-4,13
1,859,26473,-2153,-16187,-1224,-20,1,11
1,860,26478,-2134,-16206,-1218,-20,13,10
1,861,26483,-2146,-16193,-1272,-21,27,10
1,862,26488,-2185,-16186,-1232,-21,36,10
1,863,26493,-2262,-16162,-1195,-18,40,12
1,864,26498,-2251,-16182,-1180,-17,37,12
1,865,26503,-2293,-16175,-1048,-15,37,12
1,866,26508,-2362,-16158,-1002,-16,37,12
1,867,26513,-2374,-16071,-935,-14,42,10
1,868,26518,-2411,-16094,-978,-17,38,9
1,869,26523,-2411,-16089,-899,-16,28,8
1,870,26528,-2416,-16069,-865,-15,16,11
1,871,26533,-2407,-16028,-810,-15,0,7
1,872,26538,-2359,-15929,-809,-15,-12,9
1,873,26543,-2297,-15841,-909,-13,-24,8
1,874,26548,-2263,-15826,-1027,-13,-35,7
1,875,26553,-2263,-15814,-1120,-13,-53,8
1,876,26558,-2168,-15810,-1179,-12,-70,10
1,877,26563,-2076,-15809,-1255,-9,-78,13
1,878,26568,-2086,-15790,-1326,-12,-67,9
1,879,26573,-2097,-15873,-1386,-9,-47,8
1,880,26578,-2148,-15926,-1420,-6,-24,8
1,881,26583,-2130,-15999,-1438,-8,3,8
1,882,26588,-2107,-16041,-1359,-8,35,6
1,883,26593,-2061,-16093,-1203,-7,61,4
1,884,26598,-2091,-16091,-1139,-6,73,2
1,885,26603,-2097,-16096,-1096,-3,78,6
1,886,26608,-2131,-16086,-1034,-3,77,6
1,887,26613,-2179,-16096,-904,-1,66,3
1,888,26618,-2268,-16122,-838,0,46,4
1,889,26623,-2358,-16205,-956,-1,25,6
1,890,26628,-2444,-16292,-1006,-2,7,5
1,891,26633,-2543,-16336,-989,-1,-2,4
1,892,26638,-2588,-16372,-904,1,-12,3
1,893,26643,-2615,-16359,-905,3,-20,0
1,894,26648,-2585,-16337,-964,4,-26,0
1,895,26653,-2599,-16358,-1122,1,-25,-3
1,896,26658,-2602,-16323,-1170,1,-24,-7
1,897,26663,-2537,-16343,-1117,2,-22,-9
1,898,26668,-2499,-16343,-1097,1,-16,-12
1,899,26673,-2451,-16323,-1148,2,-7,-11
1,900,26678,-2443,-16323,-1296,3,7,-15
1,901,26683,-2501,-16331,-1316,4,28,-18
1,902,26688,-2468,-16355,-1293,0,50,-23
1,903,26693,-2397,-16360,-1185,3,60,-22
1,904,26698,-2322,-16352,-1118,2,67,-23
1,905,26703,-2271,-16329,-1036,2,72,-26
1,906,26708,-2339,-16343,-1041,2,74,-28
1,907,26713,-2379,-16340,-1028,5,70,-27
1,908,26718,-2428,-16330,-917,5,60,-26
1,909,26723,-2415,-16318,-837,4,41,-27
1,910,26728,-2471,-16272,-840,4,25,-28
1,911,26733,-2462,-16285,-910,3,14,-27
1,912,26738,-2504,-16291,-917,3,7,-29
1,913,26743,-2466,-16279,-884,1,-1,-29
1,914,26748,-2437,-16217,-905,3,-13,-30
1,915,26753,-2407,-16223,-958,3,-22,-31
1,916,26758,-2402,-16268,-1043,1,-26,-33
1,917,26763,-2375,-16235,-1107,0,-31,-31
1,918,26768,-2338,-16237,-1097,-2,-31,-31
1,919,26773,-2256,-16220,-1108,-1,-24,-31
1,920,26778,-2207,-16229,-1226,0,-12,-37
1,921,26783,-2216,-16250,-1312,1,4,-37
1,922,26788,-2191,-16280,-1323,2,26,-36
1,923,26793,-2219,-16328,-1304,-3,46,-39
1,924,26798,-2182,-16380,-1287,-1,66,-40
1,925,26803,-2227,-16400,-1230,-1,80,-42
1,926,26808,-2258,-16422,-1232,0,90,-39
1,927,26813,-2233,-16441,-1176,1,95,-39
1,928,26818,-2311,-16476,-1047,-3,87,-39
1,929,26823,-2391,-16422,-1034,1,74,-37
1,930,26828,-2422,-16469,-1025,1,59,-34
1,931,26833,-2490,-16487,-1024,-1,46,-37
1,932,26838,-2429,-16458,-955,-2,33,-38
1,933,26843,-2438,-16439,-868,-1,15,-38
1,934,26848,-2384,-16370,-863,-1,-7,-39
1,935,26853,-2384,-16369,-960,-3,-25,-38
1,936,26858,-2426,-16356,-1065,-2,-34,-39
1,937,26863,-2446,-16360,-1073,-3,-39,-40
1,938,26868,-2399,-16311,-1062,-3,-37,-36
1,939,26873,-2322,-16292,-1121,-2,-27,-38
1,940,26878,-2313,-16274,-1321,-3,8,-42
1,941,26883,-2349,-16254,-1323,-3,24,-41
1,942,26888,-2352,-16269,-1306,-3,36,-42
1,943,26893,-2262,-16293,-1293,-6,50,-43
1,944,26898,-2206,-16328,-1210,-3,68,-44
1,945,26903,-2296,-16302,-1112,-6,79,-45
1,946,26908,-2310,-16322,-1112,-5,83,-44
1,947,26913,-2252,-16286,-1090,-6,79,-44
1,948,26918,-2246,-16245,-951,-8,71,-43
1,949,26923,-2242,-16254,-923,-7,62,-42
1,950,26928,-2291,-16249,-921,-7,46,-44
1,951,26933,-2301,-16196,-921,-8,29,-42
1,952,26938,-2371,-16203,-974,-7,14,-38
1,953,26943,-2407,-16261,-1015,-8,5,-38
1,954,26948,-2384,-16252,-1075,-9,-4,-38
1,955,26953,-2364,-16319,-1117,-9,-8,-37
1,956,26958,-2320,-16314,-1117,-10,-8,-40
1,957,26963,-2286,-16242,-1085,-11,-11,-40
1,958,26968,-2204,-16222,-1089,-10,-12,-38
1,959,26973,-2141,-16165,-1144,-12,-14,-36
1,960,26978,-2079,-16117,-1231,-13,-14,-35
1,961,26983,-2019,-16064,-1280,-11,-14,-38
1,962,26988,-1983,-16055,-1385,-8,-14,-34
1,963,26993,-1981,-16084,-1418,-10,-8,-31
1,964,26998,-1960,-16071,-1374,-10,6,-30
1,965,27003,-2006,-16065,-1411,-10,27,-30
1,966,27008,-2047,-16086,-1478,-8,55,-30
1,967,27013,-2093,-16154,-1418,-11,82,-31
1,968,27018,-2087,-16149,-1285,-11,99,-29
1,969,27023,-2110,-16195,-1203,-12,108,-29
1,970,27028,-2154,-16266,-1126,-13,101,-26
1,971,27033,-2178,-16277,-1070,-10,94,-25
1,972,27038,-2210,-16260,-996,-13,83,-24
1,973,27043,-2246,-16295,-925,-11,65,-23
1,974,27048,-2273,-16301,-940,-11,42,-24
1,975,27053,-2258,-16305,-937,-11,15,-21
1,976,27058,-2201,-16237,-972,-10,-6,-21
1,977,27063,-2232,-16187,-947,-10,-24,-18
1,978,27068,-2307,-16141,-1019,-9,-40,-19
1,979,27073,-2218,-16120,-1107,-10,-52,-20
1,980,27078,-2170,-16073,-1142,-13,-56,-18
1,981,27083,-2086,-16049,-1129,-15,-52,-21
1,982,27088,-2138,-16044,-1110,-13,-46,-21
1,983,27093,-2179,-16025,-1214,-15,-43,-19
1,984,27098,-2176,-16041,-1291,-13,-35,-20
1,985,27103,-2113,-16054,-1313,-14,-24,-19
1,986,27108,-2088,-16055,-1194,-15,-16,-19
1,987,27113,-2044,-16113,-1191,-14,-15,-18
1,988,27118,-2046,-16165,-1350,-14,-9,-18
1,989,27123,-2041,-16229,-1466,-12,3,-15
1,990,27128,-2052,-16280,-1486,-14,19,-16
1,991,27133,-2082,-16325,-1422,-12,23,-16
1,992,27138,-2051,-16349,-1345,-13,26,-15
1,993,27143,-2030,-16378,-1328,-10,29,-15
1,994,27148,-2036,-16442,-1321,-9,37,-17
1,995,27153,-2125,-16510,-1299,-9,43,-18
1,996,27158,-2221,-16545,-1189,-10,40,-16
1,997,27163,-2281,-16637,-1110,-10,30,-17
1,998,27168,-2249,-16635,-1030,-9,24,-13
1,999,27173,-2293,-16571,-1005,-8,19,-14
2,0,31313,-2002,-16328,-1274,9,-1,4
2,1,31318,-1937,-16312,-1230,7,-3,1
2,2,31323,-1920,-16255,-1227,8,-7,2
2,3,31328,-1910,-16241,-1222,8,-13,4
2,4,31333,-1935,-16236,-1298,6,-16,3
2,5,31338,-1917,-16205,-1310,6,-19,4
2,6,31343,-1861,-16251,-1264,6,-20,3
2,7,31348,-1889,-16248,-1240,6,-15,4
2,8,31353,-1871,-16243,-1353,5,-8,5
2,9,31358,-1929,-16249,-1381,3,3,5
2,10,31363,-1970,-16255,-1342,4,7,6
2,11,31368,-1975,-16271,-1318,4,10,5
2,12,31373,-1937,-16288,-1286,5,15,6
2,13,31378,-1888,-16289,-1282,6,17,4
2,14,31383,-1955,-16305,-1280,4,22,4
2,15,31388,-1986,-16275,-1179,2,19,4
2,16,31393,-1986,-16252,-1182,1,10,7
2,17,31398,-1922,-16269,-1162,1,-1,9
2,18,31403,-1886,-16233,-1155,5,-9,8
2,19,31408,-1881,-16234,-1227,3,-9,7
2,20,31413,-1917,-16214,-1296,1,-11,8
2,21,31418,-1981,-16223,-1247,0,-10,7
2,22,31423,-2019,-16242,-1290,1,-12,6
2,23,31428,-1935,-16292,-1317,-2,-10,6
2,24,31433,-1900,-16277,-1293,-2,-2,5
2,25,31438,-1895,-16268,-1319,-3,1,7
2,26,31443,-1977,-16268,-1334,-1,2,7
2,27,31448,-2017,-16269,-1359,-1,3,6
2,28,31453,-2015,-16317,-1312,-3,7,9
2,29,31458,-2029,-16294,-1269,-3,14,7
2,30,31463,-2028,-16299,-1223,-4,13,6
2,31,31468,-2051,-16311,-1154,-3,12,5
2,32,31473,-2048,-16314,-1168,-5,12,7
2,33,31478,-2001,-16294,-1171,-9,10,6
2,34,31483,-1962,-16284,-1155,-3,5,3
2,35,31488,-1957,-16281,-1143,-5,-4,1
2,36,31493,-1998,-16275,-1128,-7,-14,5
2,37,31498,-1981,-16313,-1176,-8,-18,2
2,38,31503,-1972,-16320,-1229,-8,-14,5
2,39,31508,-1940,-16354,-1264,-7,-13,6
2,40,31513,-1966,-16371,-1307,-11,-10,3
2,41,31518,-1980,-16343,-1305,-9,-9,5
2,42,31523,-1978,-16347,-1286,-8,-5,6
2,43,31528,-1961,-16393,-1315,-9,-1,3
2,44,31533,-1994,-16363,-1362,-8,5,3
2,45,31538,-1984,-16403,-1358,-10,9,2
2,46,31543,-2040,-16430,-1276,-9,12,3
2,47,31548,-2021,-16391,-1218,-10,11,4
2,48,31553,-1993,-16412,-1161,-10,7,1
2,49,31558,-1992,-16370,-1194,-9,3,2
2,50,31563,-1992,-16386,-1226,-9,1,1
2,51,31568,-1984,-16379,-1196,-10,-6,1
2,52,31573,-1951,-16337,-1193,-10,-16,3
2,53,31578,-1910,-16347,-1267,-7,-24,3
2,54,31583,-1904,-16335,-1340,-10,-27,4
2,55,31588,-1865,-16372,-1377,-12,-23,3
2,56,31593,-1904,-16368,-1418,-10,-19,1
2,57,31598,-1938,-16343,-1416,-9,-15,3
2,58,31603,-1884,-16359,-1347,-7,-9,5
2,59,31608,-1884,-16346,-1374,-8,-7,4
2,60,31613,-1840,-16383,-1409,-8,-1,0
2,61,31618,-1837,-16351,-1370,-6,4,2
2,62,31623,-1860,-16287,-1303,-7,4,3
2,63,31628,-1838,-16249,-1285,-5,0,5
2,64,31633,-1839,-16231,-1289,-4,-7,6
2,65,31638,-1806,-16207,-1375,-2,-13,8
2,66,31643,-1790,-16156,-1318,-3,-8,9
2,67,31648,-1833,-16161,-1342,0,-4,10
2,68,31653,-1870,-16142,-1354,-2,4,8
2,69,31658,-1870,-16159,-1358,-5,12,4
2,70,31663,-1891,-16213,-1314,-3,21,3
2,71,31668,-1903,-16168,-1343,-3,23,4
2,72,31673,-1920,-16152,-1257,-2,22,5
2,73,31678,-1955,-16115,-1268,-2,19,6
2,74,31683,-1961,-16093,-1291,1,13,5
2,75,31688,-1952,-16081,-1262,1,11,6
2,76,31693,-1965,-16008,-1244,3,8,6
2,77,31698,-1948,-16019,-1201,2,4,5
2,78,31703,-1936,-16033,-1201,1,4,3
2,79,31708,-1983,-16079,-1239,2,3,7
2,80,31713,-2013,-16110,-1235,3,5,4
2,81,31718,-2063,-16182,-1247,2,4,3
2,82,31723,-2043,-16208,-1246,5,1,5
2,83,31728,-2021,-16228,-1287,2,0,1
2,84,31733,-1971,-16234,-1243,0,-2,3
2,85,31738,-1933,-16263,-1206,1,-6,1
2,86,31743,-2003,-16248,-1288,1,-7,0
2,87,31748,-2019,-16243,-1313,5,-7,1
2,88,31753,-2014,-16257,-1399,6,-4,2
2,89,31758,-1991,-16195,-1308,6,0,-1
2,90,31763,-1953,-16190,-1273,7,2,-3
2,91,31768,-1959,-16174,-1308,8,0,-2
2,92,31773,-2000,-16158,-1352,9,5,-3
2,93,31778,-1998,-16202,-1334,8,9,-5
2,94,31783,-1957,-16198,-1296,7,11,-5
2,95,31788,-1919,-16189,-1241,8,11,-4
2,96,31793,-1892,-16220,-1214,10,11,-7
2,97,31798,-1962,-16134,-1231,9,6,-5
2,98,31803,-1978,-16089,-1296,9,3,-5
2,99,31808,-1966,-16094,-1272,10,6,-5
2,100,31813,-1970,-16009,-1221,10,12,-3
2,101,31818,-1980,-15983,-1205,10,18,-6
2,102,31823,-2007,-15922,-1220,12,23,-9
2,103,31828,-2060,-15914,-1183,10,30,-11
2,104,31833,-2035,-15892,-1115,8,35,-10
2,105,31838,-1998,-15896,-989,9,36,-9
2,106,31843,-1953,-15891,-978,10,28,-10
2,107,31848,-1938,-15888,-1010,7,21,-13
2,108,31853,-1975,-15931,-1061,10,11,-9
2,109,31858,-2004,-15950,-1066,9,8,-10
2,110,31863,-2034,-15999,-1032,7,2,-10
2,111,31868,-2041,-16065,-1017,7,-4,-11
2,112,31873,-1986,-16091,-1141,8,-7,-13
2,113,31878,-1946,-16067,-1139,6,-6,-13
2,114,31883,-1954,-16088,-1083,6,-4,-15
2,115,31888,-1941,-16097,-1087,6,-9,-18
2,116,31893,-1886,-16148,-1081,2,-14,-14
2,117,31898,-1864,-16193,-1058,4,-13,-13
2,118,31903,-1822,-16222,-1026,4,-12,-14
2,119,31908,-1770,-16242,-1042,0,-16,-15
2,120,31913,-1826,-16333,-1077,0,-23,-15
2,121,31918,-1826,-16376,-1148,1,-31,-14
2,122,31923,-1746,-16408,-1147,-1,-34,-13
2,123,31928,-1724,-16432,-1136,-2,-32,-11
2,124,31933,-1703,-16515,-1139,-3,-28,-12
2,125,31938,-1765,-16556,-1232,-2,-25,-11
2,126,31943,-1791,-16642,-1327,-4,-16,-8
2,127,31948,-1800,-16673,-1391,-3,-6,-11
2,128,31953,-1751,-16733,-1287,-5,-1,-8
2,129,31958,-1703,-16757,-1291,-7,0,-8
2,130,31963,-1776,-16792,-1335,-5,3,-10
2,131,31968,-1804,-16835,-1401,-6,9,-7
2,132,31973,-1818,-16845,-1430,-7,16,-5
2,133,31978,-1782,-16829,-1334,-7,20,-9
2,134,31983,-1712,-16853,-1275,-7,13,-6
2,135,31988,-1737,-16844,-1242,-5,6,-3
2,136,31993,-1725,-16820,-1264,-3,1,-1
2,137,31998,-1721,-16857,-1386,-2,3,-3
2,138,32003,-1729,-16862,-1360,-6,6,0
2,139,32008,-1741,-16893,-1395,-6,8,3
2,140,32013,-1814,-16884,-1397,-5,11,3
2,141,32018,-1887,-16886,-1458,-5,21,4
2,142,32023,-1862,-16873,-1478,-5,32,4
2,143,32028,-1899,-16861,-1476,-6,47,1
2,144,32033,-1940,-16801,-1431,-6,55,1
2,145,32038,-1928,-16751,-1406,-3,58,4
2,146,32043,-1975,-16769,-1363,-4,55,1
2,147,32048,-1949,-16691,-1385,-3,52,3
2,148,32053,-1957,-16673,-1399,-3,46,3
2,149,32058,-1948,-16635,-1388,0,42,3
2,150,32063,-1988,-16551,-1423,-2,41,3
2,151,32068,-2001,-16488,-1442,-3,40,3
2,152,32073,-2086,-16440,-1498,0,40,2
2,153,32078,-2052,-16420,-1402,2,44,0
2,154,32083,-2015,-16308,-1428,3,45,3
2,155,32088,-2004,-16228,-1395,2,44,2
2,156,32093,-1978,-16167,-1407,5,39,0
2,157,32098,-2009,-16116,-1393,2,42,1
2,158,32103,-2005,-16106,-1452,3,42,3
2,159,32108,-1965,-16071,-1422,6,33,2
2,160,32113,-1964,-16082,-1403,7,32,0
2,161,32118,-1954,-16082,-1410,6,32,0
2,162,32123,-2015,-16018,-1420,6,33,1
2,163,32128,-2030,-16018,-1463,6,33,2
2,164,32133,-2029,-16022,-1402,7,37,0
2,165,32138,-2061,-16076,-1364,7,38,1
2,166,32143,-2046,-16074,-1381,10,39,-3
2,167,32148,-2067,-16091,-1434,12,46,-1
2,168,32153,-2129,-16100,-1392,7,48,-4
2,169,32158,-2164,-16101,-1332,9,41,-7
2,170,32163,-2110,-16097,-1329,10,29,-5
2,171,32168,-2147,-16076,-1353,13,22,-4
2,172,32173,-2127,-16107,-1338,13,21,-8
2,173,32178,-2105,-16090,-1317,11,17,-8
2,174,32183,-2139,-16035,-1283,14,9,-7
2,175,32188,-2158,-16053,-1262,15,-1,-10
2,176,32193,-2133,-16038,-1293,13,-7,-12
2,177,32198,-2047,-15983,-1292,14,-10,-8
2,178,32203,-2042,-15965,-1298,14,-11,-8
2,179,32208,-2075,-15949,-1307,15,-14,-11
2,180,32213,-2074,-15948,-1321,18,-17,-12
2,181,32218,-2057,-15958,-1370,16,-19,-11
2,182,32223,-2023,-15921,-1335,13,-15,-9
2,183,32228,-2003,-15908,-1312,15,-11,-14
2,184,32233,-2014,-15874,-1276,16,-8,-17
2,185,32238,-1993,-15873,-1313,16,-10,-15
2,186,32243,-1977,-15845,-1310,16,-13,-10
2,187,32248,-1971,-15833,-1320,16,-13,-11
2,188,32253,-1932,-15847,-1278,18,-13,-13
2,189,32258,-1923,-15848,-1224,18,-16,-13
2,190,32263,-1927,-15861,-1285,17,-13,-15
2,191,32268,-1923,-15882,-1373,16,-5,-14
2,192,32273,-1988,-15971,-1327,19,0,-15
2,193,32278,-1982,-16023,-1254,20,4,-15
2,194,32283,-1949,-16025,-1160,23,2,-13
2,195,32288,-1980,-16028,-1125,18,-5,-13
2,196,32293,-1964,-16065,-1148,16,-7,-14
2,197,32298,-1952,-16051,-1169,19,-13,-15
2,198,32303,-1934,-16086,-1107,18,-20,-15
2,199,32308,-1981,-16125,-1118,17,-29,-13
2,200,32313,-2012,-16197,-1123,16,-44,-14
2,201,32318,-2010,-16221,-1109,15,-47,-14
2,202,32323,-2022,-16250,-1169,13,-49,-15
2,203,32328,-2027,-16269,-1174,14,-45,-15
2,204,32333,-1948,-16290,-1099,14,-44,-15
2,205,32338,-1897,-16341,-1079,13,-48,-14
2,206,32343,-1920,-16349,-1133,12,-56,-14
2,207,32348,-1925,-16345,-1263,10,-60,-14
2,208,32353,-1856,-16401,-1293,10,-64,-11
2,209,32358,-1798,-16446,-1294,11,-68,-12
2,210,32363,-1745,-16451,-1261,11,-72,-12
2,211,32368,-1716,-16425,-1484,14,-72,-6
2,212,32373,-1682,-16439,-1551,10,-67,-7
2,213,32378,-1637,-16466,-1574,9,-54,-6
2,214,32383,-1618,-16447,-1522,11,-40,-5
2,215,32388,-1596,-16450,-1501,12,-29,-6
2,216,32393,-1611,-16451,-1526,12,-11,-3
2,217,32398,-1719,-16514,-1525,11,7,-3
2,218,32403,-1749,-16538,-1470,13,22,-2
2,219,32408,-1752,-16534,-1333,11,34,-2
2,220,32413,-1712,-16554,-1245,12,36,-1
2,221,32418,-1772,-16517,-1245,13,35,2
2,222,32423,-1858,-16536,-1314,13,33,3
2,223,32428,-1928,-16581,-1288,15,28,5
2,224,32433,-1950,-16525,-1219,13,17,5
2,225,32438,-1944,-16569,-1123,11,5,7
2,226,32443,-1955,-16522,-1195,11,-9,7
2,227,32448,-1940,-16469,-1270,13,-21,6
2,228,32453,-2019,-16457,-1249,12,-29,4
2,229,32458,-2051,-16418,-1225,12,-35,5
2,230,32463,-2075,-16377,-1258,10,-40,5
2,231,32468,-2055,-16361,-1333,14,-42,6
2,232,32473,-2053,-16296,-1396,13,-31,4
2,233,32478,-2110,-16250,-1433,8,-19,1
2,234,32483,-2073,-16193,-1336,10,-11,-2
2,235,32488,-2036,-16165,-1310,10,-2,2
2,236,32493,-2014,-16118,-1297,9,9,2
2,237,32498,-1994,-16090,-1236,8,10,-1
2,238,32503,-1995,-16068,-1166,10,12,-3
2,239,32508,-1978,-16013,-1135,8,10,-1
2,240,32513,-1942,-16001,-1092,7,7,-2
2,241,32518,-1894,-16004,-1085,4,1,-1
2,242,32523,-1902,-16020,-1123,5,-7,-1
2,243,32528,-1914,-16012,-1128,4,-16,-1
2,244,32533,-1927,-16076,-1115,4,-22,0
2,245,32538,-1934,-16118,-1158,5,-27,-1
2,246,32543,-1972,-16122,-1150,2,-28,-2
2,247,32548,-2051,-16218,-1146,3,-29,0
2,248,32553,-2045,-16281,-1207,4,-32,2
2,249,32558,-1974,-16255,-1208,3,-35,-3
2,250,32563,-1970,-16282,-1216,2,-36,-2
2,251,32568,-1940,-16274,-1183,2,-39,-3
2,252,32573,-1964,-16298,-1248,0,-47,-5
2,253,32578,-1942,-16319,-1251,-2,-47,-1
2,254,32583,-1919,-16319,-1278,0,-43,-3
2,255,32588,-1889,-16285,-1229,0,-35,-4
2,256,32593,-1849,-16328,-1260,-1,-28,-2
2,257,32598,-1874,-16333,-1288,-1,-25,-2
2,258,32603,-1850,-16358,-1346,0,-21,-3
2,259,32608,-1785,-16356,-1341,-1,-17,-2
2,260,32613,-1770,-16337,-1289,-2,-17,1
2,261,32618,-1790,-16389,-1307,-1,-13,0
2,262,32623,-1824,-16380,-1356,-2,-7,1
2,263,32628,-1917,-16433,-1382,0,0,3
2,264,32633,-1903,-16419,-1330,-4,6,1
2,265,32638,-1938,-16421,-1255,-5,11,1
2,266,32643,-1976,-16412,-1204,-5,15,2
2,267,32648,-1951,-16428,-1243,-4,16,0
2,268,32653,-2026,-16417,-1242,-5,16,-1
2,269,32658,-2066,-16469,-1168,-5,9,0
2,270,32663,-2056,-16456,-1120,-6,-1,0
2,271,32668,-2105,-16478,-1181,-6,-10,1
2,272,32673,-2094,-16433,-1163,-5,-16,1
2,273,32678,-2108,-16399,-1146,-6,-20,-1
2,274,32683,-2067,-16353,-1118,-5,-28,-2
2,275,32688,-2090,-16369,-1155,-7,-38,-1
2,276,32693,-2075,-16349,-1231,-8,-43,-1
2,277,32698,-2008,-16329,-1269,-7,-43,1
2,278,32703,-2018,-16299,-1210,-8,-39,-2
2,279,32708,-1969,-16231,-1223,-6,-39,-1
2,280,32713,-1995,-16197,-1223,-9,-39,-3
2,281,32718,-1966,-16177,-1288,-9,-36,-2
2,282,32723,-1948,-16214,-1337,-10,-28,0
2,283,32728,-1943,-16190,-1267,-12,-20,-4
2,284,32733,-1928,-16308,-1209,-8,-16,-2
2,285,32738,-1932,-16343,-1191,-8,-12,0
2,286,32743,-1948,-16348,-1167,-10,-12,-2
2,287,32748,-1896,-16332,-1154,-9,-17,-3
2,288,32753,-1837,-16321,-1115,-9,-28,-2
2,289,32758,-1808,-16295,-1087,-9,-37,0
2,290,32763,-1820,-16253,-1118,-10,-47,-1
2,291,32768,-1868,-16208,-1189,-9,-59,-1
2,292,32773,-1858,-16221,-1244,-9,-67,0
2,293,32778,-1830,-16215,-1237,-12,-71,2
2,294,32783,-1804,-16134,-1354,-12,-64,3
2,295,32788,-1770,-16132,-1314,-10,-55,3
2,296,32793,-1770,-16098,-1302,-10,-51,0
2,297,32798,-1816,-16091,-1326,-10,-45,1
2,298,32803,-1813,-16080,-1346,-10,-35,2
2,299,32808,-1799,-16051,-1371,-9,-22,5
2,300,32813,-1770,-15987,-1294,-8,-11,3
2,301,32818,-1744,-15988,-1201,-11,-5,4
2,302,32823,-1748,-15997,-1189,-10,0,4
2,303,32828,-1762,-16010,-1233,-10,2,4
2,304,32833,-1801,-16027,-1260,-12,8,5
2,305,32838,-1787,-16087,-1227,-11,13,6
2,306,32843,-1836,-16157,-1130,-12,12,4
2,307,32848,-1864,-16184,-1092,-11,8,8
2,308,32853,-1837,-16266,-1110,-10,4,7
2,309,32858,-1858,-16242,-1145,-9,2,7
2,310,32863,-1846,-16213,-1162,-9,1,7
2,311,32868,-1840,-16222,-1152,-9,-10,8
2,312,32873,-1853,-16219,-1218,-10,-18,8
2,313,32878,-1914,-16229,-1292,-9,-20,9
2,314,32883,-1931,-16273,-1352,-9,-15,8
2,315,32888,-1934,-16282,-1345,-8,-13,7
2,316,32893,-1914,-16295,-1271,-7,-13,5
2,317,32898,-1874,-16299,-1300,-7,-7,5
2,318,32903,-1880,-16273,-1370,-6,-1,6
2,319,32908,-1860,-16266,-1344,-6,5,7
2,320,32913,-1888,-16258,-1282,-6,10,4
2,321,32918,-1915,-16271,-1273,-3,11,4
2,322,32923,-1933,-16294,-1336,-4,17,4
2,323,32928,-1903,-16336,-1425,-5,29,5
2,324,32933,-1907,-16328,-1339,-4,41,3
2,325,32938,-1980,-16356,-1256,-3,40,6
2,326,32943,-1982,-16383,-1187,-4,34,5
2,327,32948,-1932,-16360,-1269,-4,30,6
2,328,32953,-2003,-16402,-1306,-4,30,3
2,329,32958,-2051,-16400,-1261,-4,31,2
2,330,32963,-2132,-16428,-1241,-1,26,2
2,331,32968,-2106,-16418,-1226,0,20,2
2,332,32973,-2096,-16463,-1232,0,12,4
2,333,32978,-2143,-16482,-1235,-1,13,1
2,334,32983,-2106,-16426,-1187,1,11,-2
2,335,32988,-2110,-16443,-1218,-1,1,-2
2,336,32993,-2090,-16399,-1229,0,-8,-4
2,337,32998,-2081,-16391,-1215,-1,-15,-3
2,338,33003,-2135,-16401,-1240,-2,-18,-2
2,339,33008,-2114,-16410,-1326,2,-18,-5
2,340,33013,-2090,-16400,-1414,2,-14,-4
2,341,33018,-2072,-16388,-1384,1,-12,-2
2,342,33023,-1955,-16389,-1337,-2,-10,-2
2,343,33028,-1940,-16324,-1325,-1,-11,-3
2,344,33033,-1975,-16306,-1334,1,-11,-6
2,345,33038,-1997,-16352,-1442,3,-7,-6
2,346,33043,-2021,-16352,-1459,1,1,-7
2,347,33048,-1984,-16345,-1300,-1,6,-9
2,348,33053,-1929,-16315,-1211,2,11,-10
2,349,33058,-1935,-16354,-1258,3,9,-8
2,350,33063,-1952,-16377,-1353,3,10,-8
2,351,33068,-1998,-16410,-1318,2,12,-7
2,352,33073,-1982,-16419,-1262,1,15,-7
2,353,33078,-1905,-16398,-1202,3,13,-8
2,354,33083,-1935,-16382,-1174,2,2,-7
2,355,33088,-1985,-16386,-1250,4,-7,-10
2,356,33093,-2094,-16412,-1266,4,-13,-8
2,357,33098,-2071,-16358,-1222,2,-19,-8
2,358,33103,-2025,-16333,-1155,2,-24,-10
2,359,33108,-2012,-16312,-1212,4,-31,-11
2,360,33113,-2038,-16314,-1229,4,-39,-9
2,361,33118,-2033,-16309,-1197,3,-44,-8
2,362,33123,-1961,-16220,-1242,2,-47,-13
2,363,33128,-1880,-16215,-1274,6,-47,-9
2,364,33133,-1888,-16235,-1372,6,-45,-12
2,365,33138,-1865,-16143,-1384,4,-44,-14
2,366,33143,-1869,-16127,-1370,4,-41,-11
2,367,33148,-1803,-16114,-1422,5,-33,-8
2,368,33153,-1762,-16170,-1500,4,-20,-9
2,369,33158,-1773,-16186,-1524,4,-3,-11
2,370,33163,-1762,-16217,-1462,6,8,-10
2,371,33168,-1761,-16198,-1435,8,11,-9
2,372,33173,-1715,-16226,-1337,8,12,-9
2,373,33178,-1794,-16265,-1326,11,16,-6
2,374,33183,-1830,-16255,-1305,10,15,-9
2,375,33188,-1869,-16244,-1247,12,12,-7
2,376,33193,-1904,-16227,-1207,13,3,-4
2,377,33198,-1884,-16226,-1191,9,-5,-4
2,378,33203,-1947,-16283,-1180,11,-15,-8
2,379,33208,-2080,-16255,-1196,13,-21,-5
2,380,33213,-2122,-16252,-1171,14,-31,-4
2,381,33218,-2076,-16170,-1071,11,-38,-2
2,382,33223,-2201,-16073,-871,10,-49,-1
2,383,33228,-2252,-15970,-648,9,-71,1
2,384,33233,-2322,-15908,-555,8,-108,4
2,385,33238,-2187,-15950,-510,10,-155,8
2,386,33243,-1999,-15974,-517,8,-212,13
2,387,33248,-1843,-16016,-474,3,-283,18
2,388,33253,-1803,-15966,-700,5,-369,23
2,389,33258,-1688,-15965,-1069,8,-435,34
2,390,33263,-1608,-15993,-1452,9,-465,41
2,391,33268,-1542,-16132,-1873,9,-452,45
2,392,33273,-1544,-16265,-2187,8,-411,51
2,393,33278,-1566,-16350,-2430,7,-343,55
2,394,33283,-1823,-16440,-2358,9,-255,60
2,395,33288,-2269,-16494,-2133,10,-160,57
2,396,33293,-2636,-16547,-1974,11,-67,63
2,397,33298,-2836,-16567,-1717,8,26,74
2,398,33303,-2754,-16577,-1184,5,89,76
2,399,33308,-2687,-16544,-489,4,86,81
2,400,33313,-2731,-16391,199,5,8,92
2,401,33318,-3097,-16173,663,4,-122,106
2,402,33323,-3545,-16171,939,1,-270,127
2,403,33328,-3492,-16225,668,0,-426,144
2,404,33333,-2909,-16121,726,2,-538,160
2,405,33338,-2575,-16211,402,-1,-682,185
2,406,33343,-2585,-16266,137,1,-838,195
2,407,33348,-2904,-16175,-729,5,-978,208
2,408,33353,-3061,-16341,-1789,7,-1033,236
2,409,33358,-2839,-16436,-2277,3,-974,253
2,410,33363,-2796,-16427,-2703,2,-859,258
2,411,33368,-2923,-16234,-2701,5,-708,259
2,412,33373,-3185,-16218,-2961,10,-562,277
2,413,33378,-2914,-16067,-3186,16,-407,292
2,414,33383,-2394,-15877,-3055,18,-237,304
2,415,33388,-1936,-15757,-2462,19,-88,319
2,416,33393,-1732,-15786,-2067,22,2,338
2,417,33398,-1800,-15610,-2155,32,55,367
2,418,33403,-1697,-15727,-2229,41,108,391
2,419,33408,-2158,-15636,-2141,44,162,410
2,420,33413,-2405,-15658,-1805,44,203,437
2,421,33418,-2822,-15652,-1324,47,231,461
2,422,33423,-2822,-15743,-1187,54,251,486
2,423,33428,-3019,-15720,-946,55,279,509
2,424,33433,-3246,-15710,-556,56,270,530
2,425,33438,-3567,-15632,-126,59,218,550
2,426,33443,-3687,-15534,-49,66,129,584
2,427,33448,-3652,-15545,-33,68,54,609
2,428,33453,-3593,-15465,-11,67,6,631
2,429,33458,-3606,-15395,15,69,-41,653
2,430,33463,-3864,-15337,-303,71,-99,674
2,431,33468,-4069,-15187,-740,78,-149,716
2,432,33473,-3972,-15198,-718,76,-112,735
2,433,33478,-3968,-15138,-728,77,-71,750
2,434,33483,-4062,-15102,-684,83,-49,764
2,435,33488,-4264,-15035,-804,85,-48,781
2,436,33493,-4154,-15022,-838,90,-48,802
2,437,33498,-3932,-15074,-813,93,-30,819
2,438,33503,-3890,-15017,-721,97,-8,833
2,439,33508,-4068,-15016,-683,100,0,848
2,440,33513,-4349,-15003,-818,105,-8,863
2,441,33518,-4496,-15035,-1077,111,-6,878
2,442,33523,-4506,-15112,-1075,113,33,889
2,443,33528,-4515,-15205,-882,114,74,901
2,444,33533,-4633,-15306,-755,119,98,912
2,445,33538,-4852,-15400,-781,126,108,918
2,446,33543,-5048,-15442,-828,129,111,927
2,447,33548,-5222,-15621,-702,129,119,936
2,448,33553,-5366,-15684,-537,134,128,941
2,449,33558,-5489,-15732,-465,137,121,946
2,450,33563,-5673,-15830,-481,141,111,948
2,451,33568,-5791,-15837,-510,145,99,954
2,452,33573,-5884,-15876,-490,145,85,955
2,453,33578,-5912,-15845,-455,146,73,953
2,454,33583,-5957,-15844,-554,147,66,953
2,455,33588,-6037,-15846,-602,151,66,949
2,456,33593,-6013,-15788,-515,154,69,943
2,457,33598,-5959,-15798,-262,156,67,941
2,458,33603,-5975,-15633,-96,156,58,934
2,459,33608,-6013,-15448,64,158,45,932
2,460,33613,-5966,-15402,-2,158,22,929
2,461,33618,-5723,-15305,66,156,-4,922
2,462,33623,-5567,-15305,233,157,-56,920
2,463,33628,-5468,-15260,317,159,-125,915
2,464,33633,-5445,-15214,201,161,-192,908
2,465,33638,-5444,-15334,-102,162,-246,909
2,466,33643,-5317,-15361,-344,163,-274,900
2,467,33648,-5207,-15392,-415,166,-289,894
2,468,33653,-5171,-15484,-503,169,-313,887
2,469,33658,-5139,-15540,-718,171,-325,877
2,470,33663,-5230,-15676,-1095,177,-318,872
2,471,33668,-5338,-15734,-1291,180,-286,858
2,472,33673,-5395,-15818,-1255,179,-237,843
2,473,33678,-5355,-15834,-1245,180,-193,832
2,474,33683,-5392,-15873,-1318,184,-141,816
2,475,33688,-5499,-15987,-1374,186,-80,798
2,476,33693,-5674,-16098,-1351,188,-15,785
2,477,33698,-5729,-16070,-1267,190,39,763
2,478,33703,-5871,-16077,-1013,191,91,743
2,479,33708,-6005,-16101,-782,188,131,723
2,480,33713,-6245,-16079,-474,185,164,702
2,481,33718,-6426,-15972,-311,189,183,684
2,482,33723,-6703,-15813,15,183,194,662
2,483,33728,-6862,-15685,234,180,170,640
2,484,33733,-6838,-15670,611,177,131,617
2,485,33738,-6748,-15666,925,173,67,592
2,486,33743,-6773,-15688,1117,171,-23,570
2,487,33748,-6889,-15666,1128,169,-130,551
2,488,33753,-7034,-15625,976,165,-237,525
2,489,33758,-7072,-15708,771,165,-338,502
2,490,33763,-6910,-15781,553,161,-425,480
2,491,33768,-6806,-15865,389,158,-502,453
2,492,33773,-6822,-15918,169,156,-552,425
2,493,33778,-6923,-15997,-81,156,-582,393
2,494,33783,-6991,-16050,-447,154,-579,365
2,495,33788,-7003,-16028,-750,154,-554,333
2,496,33793,-6893,-16000,-791,150,-518,300
2,497,33798,-6865,-15943,-687,147,-479,266
2,498,33803,-6843,-15903,-683,149,-438,231
2,499,33808,-6803,-15890,-875,147,-382,199
2,500,33813,-6713,-15846,-1021,144,-307,163
2,501,33818,-6604,-15847,-923,141,-235,131
2,502,33823,-6704,-15716,-565,135,-185,93
2,503,33828,-6615,-15836,-603,138,-184,66
2,504,33833,-6645,-15893,-659,135,-132,2
2,505,33838,-6694,-15871,-289,128,-91,-35
2,506,33843,-6627,-15957,-79,126,-90,-64
2,507,33848,-6500,-16022,-37,128,-105,-93
2,508,33853,-6427,-15997,-212,125,-119,-125
2,509,33858,-6467,-15983,-231,117,-119,-158
2,510,33863,-6547,-16043,-99,115,-128,-186
2,511,33868,-6668,-16063,-8,113,-153,-216
2,512,33873,-6684,-16072,-134,108,-183,-247
2,513,33878,-6654,-16066,-242,104,-191,-279
2,514,33883,-6624,-15997,-106,97,-178,-313
2,515,33888,-6534,-15945,40,92,-173,-346
2,516,33893,-6553,-15830,118,89,-180,-375
2,517,33898,-6508,-15797,14,83,-199,-403
2,518,33903,-6405,-15770,-20,77,-211,-439
2,519,33908,-6346,-15745,68,73,-220,-468
2,520,33913,-6313,-15712,125,65,-237,-498
2,521,33918,-6298,-15679,149,60,-254,-529
2,522,33923,-6279,-15618,119,56,-262,-559
2,523,33928,-6262,-15588,7,48,-268,-590
2,524,33933,-6065,-15631,-81,44,-273,-615
2,525,33938,-5862,-15667,-174,38,-280,-647
2,526,33943,-5597,-15651,-234,28,-285,-673
2,527,33948,-5442,-15633,-181,21,-280,-699
2,528,33953,-5465,-15667,-317,17,-269,-729
2,529,33958,-5400,-15688,-453,11,-250,-754
2,530,33963,-5325,-15644,-469,4,-217,-779
2,531,33968,-5244,-15611,-360,-5,-187,-802
2,532,33973,-5107,-15605,-348,-8,-156,-829
2,533,33978,-4899,-15744,-477,-13,-136,-851
2,534,33983,-4681,-15806,-412,-22,-116,-873
2,535,33988,-4487,-15797,-294,-27,-106,-895
2,536,33993,-4408,-15811,-295,-31,-104,-916
2,537,33998,-4332,-15911,-601,-37,-93,-932
2,538,34003,-3992,-16008,-1068,-38,-63,-951
2,539,34008,-3579,-16036,-1481,-40,-6,-967
2,540,34013,-3287,-16027,-1668,-45,65,-984
2,541,34018,-3397,-16112,-1812,-43,132,-1001
2,542,34023,-3540,-16183,-2083,-41,206,-1019
2,543,34028,-3582,-16256,-2258,-45,315,-1033
2,544,34033,-3532,-16247,-2235,-49,464,-1052
2,545,34038,-3461,-16219,-1881,-49,618,-1071
2,546,34043,-3523,-16198,-1513,-48,732,-1086
2,547,34048,-3554,-16192,-1226,-41,795,-1102
2,548,34053,-3440,-16157,-920,-40,828,-1112
2,549,34058,-3269,-16133,-432,-43,844,-1123
2,550,34063,-3114,-16061,76,-43,837,-1131
2,551,34068,-3118,-16008,283,-40,800,-1139
2,552,34073,-3331,-16009,243,-37,738,-1141
2,553,34078,-3580,-15968,182,-37,674,-1147
2,554,34083,-3727,-15936,439,-38,609,-1150
2,555,34088,-3672,-15848,614,-45,539,-1156
2,556,34093,-3544,-15851,715,-48,479,-1160
2,557,34098,-3541,-15941,694,-53,422,-1168
2,558,34103,-3573,-16012,590,-59,360,-1175
2,559,34108,-3681,-15956,704,-65,285,-1179
2,560,34113,-3507,-15967,655,-69,198,-1181
2,561,34118,-3467,-15892,592,-76,139,-1190
2,562,34123,-3204,-15858,422,-81,88,-1193
2,563,34128,-2945,-15925,159,-87,49,-1196
2,564,34133,-2729,-15951,-308,-95,0,-1199
2,565,34138,-2617,-15924,-415,-98,-32,-1203
2,566,34143,-2604,-15938,-626,-102,-46,-1207
2,567,34148,-2719,-15941,-947,-108,-24,-1209
2,568,34153,-2631,-15984,-1332,-111,26,-1211
2,569,34158,-2534,-16021,-1426,-120,106,-1217
2,570,34163,-2291,-16043,-1095,-126,175,-1224
2,571,34168,-2108,-16034,-787,-126,219,-1227
2,572,34173,-2029,-16046,-887,-126,250,-1225
2,573,34178,-1898,-16140,-994,-125,294,-1226
2,574,34183,-1826,-16147,-768,-130,327,-1227
2,575,34188,-1732,-16164,-529,-139,333,-1226
2,576,34193,-1818,-16179,-151,-138,313,-1222
2,577,34198,-1964,-16140,-81,-140,253,-1217
2,578,34203,-1966,-16167,-89,-141,235,-1216
2,579,34208,-2014,-16147,181,-151,212,-1216
2,580,34213,-1798,-16110,218,-152,158,-1213
2,581,34218,-1710,-16065,326,-156,99,-1206
2,582,34223,-1828,-16009,371,-161,46,-1203
2,583,34228,-1962,-15958,328,-169,-4,-1202
2,584,34233,-1929,-15882,158,-175,-43,-1198
2,585,34238,-1740,-15771,211,-181,-69,-1194
2,586,34243,-1448,-15675,239,-191,-99,-1193
2,587,34248,-1218,-15709,-7,-192,-132,-1188
2,588,34253,-1061,-15737,-460,-194,-156,-1180
2,589,34258,-964,-15778,-720,-200,-160,-1176
2,590,34263,-882,-15841,-810,-209,-148,-1173
2,591,34268,-793,-15948,-882,-211,-127,-1165
2,592,34273,-694,-16135,-1167,-213,-82,-1164
2,593,34278,-584,-16243,-1390,-218,-10,-1163
2,594,34283,-486,-16317,-1325,-219,69,-1162
2,595,34288,-462,-16313,-1127,-224,122,-1160
2,596,34293,-414,-16371,-983,-222,145,-1154
2,597,34298,-395,-16424,-858,-222,165,-1146
2,598,34303,-2421,-8746,-3095,-237,201,-1133
2,599,34308,10141,-28484,-28109,-17,411,-1196
2,600,34313,-31783,492,1038,-230,4157,-1543
2,601,34318,-32768,-8041,21655,326,6782,1248
2,602,34323,12023,-5104,-1582,795,5468,2152
2,603,34328,32767,-22405,2553,502,7445,3
2,604,34333,-1654,-11055,32767,-102,9008,-2015
2,605,34338,-32768,-11686,31867,429,-1737,-310
2,606,34343,-27946,-4193,2023,781,-13226,1927
2,607,34348,19933,-20895,-32768,562,-11785,3106
2,608,34353,32767,-26658,-28076,132,-151,660
2,609,34358,292,-10973,27108,-304,7389,-2140
2,610,34363,-32768,-9054,32767,-94,861,-656
2,611,34368,-25215,-14571,-11804,1069,-10360,2173
2,612,34373,19257,-25166,-32768,725,-9052,2278
2,613,34378,32366,-19038,-26782,79,362,-10
2,614,34383,-3086,-15454,19332,-62,6606,-1139
2,615,34388,-32768,-10873,32767,-25,2978,-486
2,616,34393,-11308,-15917,-11975,707,-5087,1374
2,617,34398,18822,-23332,-32768,543,-4362,1492
2,618,34403,14777,-18599,-18303,54,1626,-39
2,619,34408,-5100,-14814,22915,-8,4457,-633
2,620,34413,-16830,-12092,31078,176,1952,-76
2,621,34418,-464,-17109,-11540,642,-2345,1017
2,622,34423,12055,-20779,-30303,440,-1529,868
2,623,34428,4723,-16600,-3539,50,1562,-19
2,624,34433,-6699,-14212,22574,34,1798,-117
2,625,34438,-7417,-13990,14255,291,-360,352
2,626,34443,2581,-18006,-14156,480,-1544,785
2,627,34448,5196,-18761,-17531,288,86,462
2,628,34453,-1487,-16062,2996,84,1555,49
2,629,34458,-6517,-14569,16036,129,771,125
2,630,34463,-3424,-15137,4630,306,-850,451
2,631,34468,2292,-17638,-11144,342,-851,573
2,632,34473,1275,-17814,-7790,186,693,287
2,633,34478,-3572,-16002,6620,86,1282,95
2,634,34483,-4204,-15415,10217,170,158,247
2,635,34488,-847,-16119,1152,267,-946,427
2,636,34493,1381,-17188,-5971,248,-695,416
2,637,34498,-1098,-16991,-1655,143,249,251
2,638,34503,-3808,-15977,5213,102,350,195
2,639,34508,-2867,-15933,3983,166,-441,305
2,640,34513,-244,-16422,-2011,208,-899,366
2,641,34518,64,-16708,-3198,172,-501,305
2,642,34523,-2034,-16419,555,119,28,225
2,643,34528,-3088,-16097,2802,114,-12,235
2,644,34533,-1538,-16348,-90,144,-390,291
2,645,34538,-97,-16541,-2479,145,-423,287
2,646,34543,-281,-16635,-999,118,-147,242
2,647,34548,-1618,-16446,1612,100,23,218
2,648,34553,-1710,-16420,1021,115,-113,246
2,649,34558,-789,-16695,-1392,120,-208,266
2,650,34563,-673,-16836,556,87,35,231
2,651,34568,-1292,-16684,930,83,-43,221
2,652,34573,-1017,-16343,-200,94,-107,223
2,653,34578,-920,-16854,-1551,97,-51,262
2,654,34583,-901,-16732,-682,77,101,230
2,655,34588,-1348,-16408,737,61,145,209
2,656,34593,-1551,-16573,639,72,59,230
2,657,34598,-1366,-16583,-264,70,39,227
2,658,34603,-1320,-16428,-435,61,125,217
2,659,34608,-1529,-16285,526,46,198,205
2,660,34613,-1754,-16172,1106,38,157,207
2,661,34618,-1700,-16111,787,38,65,213
2,662,34623,-1624,-16138,268,35,35,211
2,663,34628,-1695,-16193,326,25,65,200
2,664,34633,-1747,-16145,724,15,70,194
2,665,34638,-1721,-16157,884,8,23,196
2,666,34643,-1659,-16169,674,6,-28,195
2,667,34648,-1652,-16166,419,0,-42,190
2,668,34653,-1735,-16207,364,-7,-37,187
2,669,34658,-1757,-16200,422,-13,-38,184
2,670,34663,-1693,-16168,389,-20,-49,181
2,671,34668,-1619,-16218,321,-26,-50,180
2,672,34673,-1629,-16322,272,-32,-41,173
2,673,34678,-1626,-16380,270,-41,-28,168
2,674,34683,-1715,-16353,180,-46,-17,165
2,675,34688,-1676,-16365,126,-49,-10,163
2,676,34693,-1641,-16376,91,-54,-6,161
2,677,34698,-1623,-16403,44,-58,-3,157
2,678,34703,-1678,-16462,23,-61,4,154
2,679,34708,-1714,-16559,-38,-64,12,150
2,680,34713,-1721,-16570,-73,-67,24,148
2,681,34718,-1753,-16550,-50,-72,42,145
2,682,34723,-1804,-16486,66,-78,57,143
2,683,34728,-1881,-16513,108,-82,80,137
2,684,34733,-1992,-16523,150,-82,96,129
2,685,34738,-2043,-16518,202,-88,106,125
2,686,34743,-2053,-16423,366,-96,117,118
2,687,34748,-2143,-16295,562,-102,119,109
2,688,34753,-2193,-16228,655,-103,104,109
2,689,34758,-2133,-16186,561,-108,80,107
2,690,34763,-2062,-16207,521,-113,57,105
2,691,34768,-2084,-16196,528,-117,34,101
2,692,34773,-2165,-16145,537,-121,5,98
2,693,34778,-2132,-16180,401,-124,-23,98
2,694,34783,-2049,-16201,204,-125,-35,95
2,695,34788,-1869,-16178,162,-128,-33,88
2,696,34793,-1805,-16185,190,-129,-37,86
2,697,34798,-1831,-16171,49,-134,-47,84
2,698,34803,-1820,-16180,-198,-133,-49,80
2,699,34808,-1793,-16251,-316,-132,-30,78
2,700,34813,-1754,-16313,-342,-134,1,75
2,701,34818,-1795,-16322,-315,-136,33,70
2,702,34823,-1868,-16417,-291,-138,68,65
2,703,34828,-1901,-16460,-363,-140,107,59
2,704,34833,-1816,-16473,-369,-140,150,59
2,705,34838,-1808,-16423,-303,-140,185,56
2,706,34843,-1852,-16381,-80,-145,212,49
2,707,34848,-2007,-16355,89,-140,210,46
2,708,34853,-2130,-16366,155,-142,200,46
2,709,34858,-2108,-16357,151,-144,195,45
2,710,34863,-1933,-16326,226,-144,196,44
2,711,34868,-1885,-16283,354,-146,189,42
2,712,34873,-1989,-16277,402,-144,162,37
2,713,34878,-2095,-16238,340,-144,133,36
2,714,34883,-2248,-16197,138,-147,112,35
2,715,34888,-2306,-16213,3,-146,109,32
2,716,34893,-2261,-16165,40,-147,117,26
2,717,34898,-2152,-16198,133,-148,117,23
2,718,34903,-2129,-16181,186,-146,113,17
2,719,34908,-2131,-16163,59,-146,111,16
2,720,34913,-2137,-16174,-26,-145,114,15
2,721,34918,-2083,-16157,11,-145,123,13
2,722,34923,-2047,-16195,66,-147,126,11
2,723,34928,-2038,-16144,-49,-140,125,6
2,724,34933,-2076,-16115,-101,-143,127,3
2,725,34938,-2105,-16129,-50,-143,129,2
2,726,34943,-2094,-16150,-25,-140,129,1
2,727,34948,-2067,-16188,-23,-139,127,0
2,728,34953,-2054,-16184,12,-139,132,-1
2,729,34958,-2047,-16188,75,-136,133,-5
2,730,34963,-2026,-16149,154,-135,129,-7
2,731,34968,-2035,-16113,186,-135,120,-6
2,732,34973,-1955,-16105,93,-132,109,-4
2,733,34978,-1916,-16063,103,-128,94,-5
2,734,34983,-1905,-16064,54,-129,80,-7
2,735,34988,-1899,-16038,38,-125,65,-6
2,736,34993,-1858,-16037,-146,-127,57,-4
2,737,34998,-1818,-16036,-288,-125,61,-4
2,738,35003,-1863,-16067,-472,-121,80,-6
2,739,35008,-1963,-16118,-515,-121,105,-8
2,740,35013,-2010,-16146,-563,-119,133,-9
2,741,35018,-2039,-16187,-495,-115,159,-11
2,742,35023,-2112,-16230,-477,-112,192,-14
2,743,35028,-2172,-16278,-335,-109,225,-17
2,744,35033,-2172,-16348,-169,-106,246,-22
2,745,35038,-2197,-16384,-45,-105,251,-21
2,746,35043,-2189,-16373,115,-103,238,-24
2,747,35048,-2119,-16379,254,-102,211,-24
2,748,35053,-2102,-16303,408,-100,170,-22
2,749,35058,-2069,-16258,423,-97,121,-19
2,750,35063,-2064,-16218,361,-95,74,-18
2,751,35068,-2057,-16225,229,-92,35,-16
2,752,35073,-2036,-16261,34,-92,5,-14
2,753,35078,-2030,-16275,-113,-89,-16,-11
2,754,35083,-2045,-16264,-284,-86,-24,-14
2,755,35088,-2020,-16264,-430,-84,-20,-14
2,756,35093,-2002,-16298,-519,-82,-3,-11
2,757,35098,-1989,-16295,-649,-79,24,-14
2,758,35103,-1967,-16273,-697,-72,51,-17
2,759,35108,-1950,-16295,-641,-73,81,-20
2,760,35113,-1978,-16290,-539,-72,109,-19
2,761,35118,-1975,-16318,-429,-66,127,-18
2,762,35123,-2049,-16341,-342,-63,145,-21
2,763,35128,-2109,-16440,-233,-61,152,-20
2,764,35133,-2154,-16438,-83,-60,148,-18
2,765,35138,-2198,-16491,-44,-56,135,-20
2,766,35143,-2233,-16587,78,-53,113,-17
2,767,35148,-2349,-16594,154,-51,85,-16
2,768,35153,-2444,-16602,172,-51,58,-16
2,769,35158,-2433,-16568,133,-50,25,-15
2,770,35163,-2388,-16508,88,-46,1,-18
2,771,35168,-2382,-16549,-63,-42,-23,-19
2,772,35173,-2359,-16528,-128,-41,-40,-16
2,773,35178,-2343,-16504,-159,-38,-57,-20
2,774,35183,-2267,-16460,-232,-39,-68,-19
2,775,35188,-2242,-16463,-352,-36,-71,-17
2,776,35193,-2139,-16410,-337,-33,-67,-16
2,777,35198,-2162,-16403,-344,-33,-56,-19
2,778,35203,-2148,-16399,-442,-28,-44,-21
2,779,35208,-2123,-16423,-469,-28,-31,-20
2,780,35213,-2122,-16409,-436,-27,-23,-20
2,781,35218,-2097,-16408,-357,-20,-13,-21
2,782,35223,-2072,-16434,-344,-20,-10,-21
2,783,35228,-2115,-16408,-378,-18,-3,-20
2,784,35233,-2071,-16472,-360,-15,0,-21
2,785,35238,-2092,-16512,-244,-16,-2,-22
2,786,35243,-2069,-16536,-269,-13,-11,-17
2,787,35248,-2100,-16596,-314,-8,-14,-18
2,788,35253,-2158,-16602,-392,-7,-13,-17
2,789,35258,-2182,-16587,-336,-7,-9,-22
2,790,35263,-2137,-16513,-349,-4,-7,-20
2,791,35268,-2032,-16499,-301,-2,-6,-16
2,792,35273,-1990,-16506,-318,0,-1,-19
2,793,35278,-2036,-16509,-388,2,-3,-18
2,794,35283,-2089,-16490,-422,4,-11,-18
2,795,35288,-2092,-16512,-457,6,-15,-16
2,796,35293,-2127,-16552,-447,5,-11,-16
2,797,35298,-2147,-16578,-395,12,6,-16
2,798,35303,-2158,-16584,-403,12,10,-15
2,799,35308,-2162,-16517,-357,14,8,-16
2,800,35313,-2159,-16469,-383,14,5,-14
2,801,35318,-2158,-16483,-380,18,1,-16
2,802,35323,-2148,-16447,-311,18,-6,-15
2,803,35328,-2105,-16416,-143,15,-16,-15
2,804,35333,-2162,-16341,-132,20,-23,-14
2,805,35338,-2150,-16339,-209,24,-28,-17
2,806,35343,-2174,-16324,-320,23,-24,-18
2,807,35348,-2188,-16323,-344,23,-24,-12
2,808,35353,-2148,-16323,-291,24,-34,-11
2,809,35358,-2092,-16355,-321,24,-47,-12
2,810,35363,-1980,-16383,-390,25,-51,-11
2,811,35368,-1995,-16375,-446,27,-46,-12
2,812,35373,-2011,-16297,-463,29,-43,-12
2,813,35378,-2044,-16294,-458,30,-44,-12
2,814,35383,-1995,-16278,-512,30,-38,-7
2,815,35388,-1938,-16297,-603,30,-28,-7
2,816,35393,-1899,-16269,-561,30,-15,-9
2,817,35398,-1930,-16269,-566,32,-9,-8
2,818,35403,-1934,-16280,-493,33,-9,-8
2,819,35408,-1892,-16275,-495,33,-6,-8
2,820,35413,-1941,-16227,-524,33,4,-8
2,821,35418,-1953,-16249,-420,34,13,-8
2,822,35423,-2073,-16285,-417,34,10,-5
2,823,35428,-2137,-16351,-431,37,8,-6
2,824,35433,-2072,-16279,-350,39,3,-6
2,825,35438,-2026,-16314,-255,36,0,-6
2,826,35443,-2109,-16257,-197,36,-7,-8
2,827,35448,-2205,-16295,-250,39,-27,-7
2,828,35453,-2159,-16310,-200,38,-45,-4
2,829,35458,-2099,-16259,-154,37,-58,-4
2,830,35463,-2046,-16223,-140,38,-68,-5
2,831,35468,-2047,-16236,-281,38,-74,-6
2,832,35473,-2139,-16236,-403,36,-74,-6
2,833,35478,-2138,-16234,-502,31,-70,-6
2,834,35483,-2127,-16182,-538,34,-60,-6
2,835,35488,-1988,-16152,-682,33,-49,-5
2,836,35493,-1962,-16158,-562,36,-34,-7
2,837,35498,-1943,-16151,-660,34,-28,-8
2,838,35503,-1915,-16225,-659,35,-18,-9
2,839,35508,-1945,-16245,-767,37,-5,-9
2,840,35513,-2007,-16252,-685,36,14,-11
2,841,35518,-2018,-16328,-690,37,26,-7
2,842,35523,-1991,-16369,-662,38,36,-8
2,843,35528,-1940,-16329,-577,36,45,-10
2,844,35533,-1981,-16356,-493,34,50,-9
2,845,35538,-2050,-16339,-420,37,54,-12
2,846,35543,-2103,-16332,-486,38,51,-11
2,847,35548,-2111,-16286,-482,38,53,-13
2,848,35553,-2133,-16345,-321,36,52,-14
2,849,35558,-2231,-16388,-228,35,44,-15
2,850,35563,-2300,-16405,-135,33,29,-15
2,851,35568,-2295,-16429,-183,32,18,-14
2,852,35573,-2274,-16392,-127,32,3,-16
2,853,35578,-2265,-16327,0,29,-16,-17
2,854,35583,-2274,-16318,-16,25,-50,-17
2,855,35588,-2215,-16320,-95,27,-87,-17
2,856,35593,-2238,-16244,-219,25,-106,-19
2,857,35598,-2223,-16238,-265,22,-116,-19
2,858,35603,-2158,-16282,-306,20,-123,-21
2,859,35608,-2037,-16298,-415,20,-130,-21
2,860,35613,-2017,-16318,-553,21,-128,-18
2,861,35618,-1994,-16335,-652,20,-121,-21
2,862,35623,-2062,-16325,-761,17,-111,-23
2,863,35628,-2082,-16396,-827,17,-94,-23
2,864,35633,-1987,-16429,-818,15,-70,-22
2,865,35638,-1891,-16434,-763,13,-35,-26
2,866,35643,-1934,-16478,-702,14,-3,-28
2,867,35648,-1999,-16501,-690,15,24,-30
2,868,35653,-2003,-16485,-633,15,38,-32
2,869,35658,-1961,-16508,-533,12,42,-32
2,870,35663,-1910,-16508,-250,9,44,-32
2,871,35668,-1982,-16511,-199,9,33,-32
2,872,35673,-2123,-16518,-246,8,15,-31
2,873,35678,-2147,-16473,-246,7,6,-30
2,874,35683,-2122,-16424,-208,4,2,-30
2,875,35688,-2103,-16388,-184,0,-9,-32
2,876,35693,-2163,-16371,-256,0,-23,-33
2,877,35698,-2180,-16344,-334,-2,-32,-32
2,878,35703,-2174,-16368,-374,-3,-35,-30
2,879,35708,-2138,-16339,-270,-5,-34,-33
2,880,35713,-2091,-16276,-234,-8,-37,-35
2,881,35718,-2063,-16261,-338,-9,-40,-37
2,882,35723,-2072,-16236,-411,-13,-42,-39
2,883,35728,-2072,-16224,-417,-11,-45,-36
2,884,35733,-2027,-16267,-462,-14,-49,-37
2,885,35738,-1993,-16284,-453,-16,-46,-37
2,886,35743,-1930,-16254,-518,-14,-40,-37
2,887,35748,-1951,-16233,-529,-14,-34,-37
2,888,35753,-1947,-16241,-547,-16,-30,-36
2,889,35758,-1948,-16236,-555,-19,-24,-36
2,890,35763,-1920,-16272,-553,-18,-16,-41
2,891,35768,-1928,-16301,-572,-19,-3,-40
2,892,35773,-1903,-16285,-517,-23,5,-39
2,893,35778,-1942,-16272,-484,-26,7,-40
2,894,35783,-1934,-16272,-434,-25,8,-40
2,895,35788,-1906,-16258,-470,-23,2,-37
2,896,35793,-1948,-16246,-441,-26,3,-40
2,897,35798,-1907,-16240,-412,-25,-4,-39
2,898,35803,-1951,-16246,-311,-28,-17,-36
2,899,35808,-1944,-16187,-350,-26,-30,-34
2,900,35813,-1950,-16156,-305,-27,-40,-37
2,901,35818,-1971,-16168,-328,-29,-52,-39
2,902,35823,-1960,-16099,-342,-32,-60,-36
2,903,35828,-1991,-16056,-369,-30,-69,-35
2,904,35833,-2020,-16057,-426,-31,-75,-34
2,905,35838,-1989,-16076,-443,-32,-79,-34
2,906,35843,-1946,-16121,-455,-34,-82,-37
2,907,35848,-1949,-16133,-469,-36,-79,-34
2,908,35853,-1975,-16165,-538,-37,-75,-33
2,909,35858,-1943,-16219,-586,-38,-72,-35
2,910,35863,-1924,-16248,-626,-38,-72,-34
2,911,35868,-1920,-16258,-613,-38,-66,-32
2,912,35873,-1862,-16289,-593,-38,-58,-34
2,913,35878,-1857,-16305,-600,-40,-52,-36
2,914,35883,-1880,-16349,-622,-40,-49,-35
2,915,35888,-1876,-16363,-645,-38,-44,-35
2,916,35893,-1833,-16359,-710,-39,-34,-36
2,917,35898,-1841,-16379,-636,-38,-22,-36
2,918,35903,-1912,-16343,-623,-39,-16,-36
2,919,35908,-1957,-16348,-569,-38,-7,-34
2,920,35913,-1929,-16347,-571,-42,1,-37
2,921,35918,-1974,-16353,-538,-42,12,-37
2,922,35923,-1972,-16362,-413,-41,16,-36
2,923,35928,-2001,-16365,-418,-41,8,-39
2,924,35933,-1947,-16354,-436,-41,-4,-37
2,925,35938,-1908,-16325,-373,-40,-17,-37
2,926,35943,-1941,-16333,-378,-42,-25,-38
2,927,35948,-1962,-16290,-392,-40,-37,-36
2,928,35953,-1980,-16269,-441,-41,-48,-33
2,929,35958,-1932,-16300,-504,-42,-50,-36
2,930,35963,-1912,-16286,-450,-42,-53,-36
2,931,35968,-1873,-16240,-413,-46,-50,-35
2,932,35973,-1793,-16233,-442,-45,-54,-33
2,933,35978,-1726,-16280,-567,-44,-52,-32
2,934,35983,-1733,-16273,-573,-45,-46,-35
2,935,35988,-1736,-16283,-609,-47,-39,-33
2,936,35993,-1765,-16290,-599,-45,-31,-30
2,937,35998,-1710,-16334,-648,-47,-19,-31
2,938,36003,-1736,-16375,-709,-44,-5,-32
2,939,36008,-1749,-16416,-744,-44,9,-34
2,940,36013,-1851,-16441,-698,-45,20,-31
2,941,36018,-1825,-16489,-675,-44,27,-29
2,942,36023,-1828,-16556,-560,-44,35,-31
2,943,36028,-1786,-16491,-454,-43,34,-27
2,944,36033,-1780,-16436,-416,-41,27,-30
2,945,36038,-1823,-16374,-427,-42,17,-32
2,946,36043,-1744,-16365,-433,-44,1,-26
2,947,36048,-1766,-16304,-448,-42,-8,-25
2,948,36053,-1775,-16287,-458,-41,-11,-26
2,949,36058,-1828,-16252,-438,-46,-12,-28
2,950,36063,-1826,-16226,-526,-41,-23,-23
2,951,36068,-1823,-16252,-586,-40,-20,-23
2,952,36073,-1725,-16247,-713,-44,-10,-23
2,953,36078,-1643,-16240,-627,-42,0,-20
2,954,36083,-1611,-16218,-623,-39,0,-23
2,955,36088,-1662,-16255,-681,-42,4,-21
2,956,36093,-1749,-16271,-834,-41,18,-21
2,957,36098,-1794,-16344,-852,-38,36,-21
2,958,36103,-1805,-16363,-680,-41,48,-20
2,959,36108,-1764,-16371,-580,-40,55,-21
2,960,36113,-1768,-16352,-593,-37,57,-19
2,961,36118,-1794,-16353,-588,-35,61,-18
2,962,36123,-1812,-16357,-530,-37,62,-18
2,963,36128,-1810,-16335,-389,-40,52,-19
2,964,36133,-1815,-16351,-370,-37,36,-15
2,965,36138,-1861,-16406,-398,-34,23,-11
2,966,36143,-1917,-16387,-488,-36,21,-13
2,967,36148,-1958,-16433,-424,-38,18,-13
2,968,36153,-1917,-16419,-376,-39,12,-16
2,969,36158,-1899,-16391,-475,-38,5,-14
2,970,36163,-1917,-16382,-492,-37,-3,-13
2,971,36168,-1837,-16358,-534,-35,-8,-14
2,972,36173,-1846,-16358,-535,-37,-11,-15
2,973,36178,-1849,-16304,-643,-38,-18,-13
2,974,36183,-1861,-16289,-622,-36,-18,-14
2,975,36188,-1829,-16336,-736,-34,-17,-12
2,976,36193,-1806,-16329,-727,-35,-7,-8
2,977,36198,-1870,-16353,-759,-35,2,-8
2,978,36203,-1865,-16361,-708,-33,14,-11
2,979,36208,-1891,-16363,-651,-31,26,-12
2,980,36213,-1867,-16380,-700,-29,34,-12
2,981,36218,-1826,-16351,-631,-29,51,-11
2,982,36223,-1804,-16377,-633,-28,55,-13
2,983,36228,-1838,-16354,-512,-31,55,-15
2,984,36233,-1787,-16376,-503,-31,46,-10
2,985,36238,-1829,-16422,-511,-29,36,-8
2,986,36243,-1873,-16453,-475,-29,28,-11
2,987,36248,-1863,-16465,-457,-31,19,-10
2,988,36253,-1897,-16425,-486,-28,13,-5
2,989,36258,-1887,-16425,-531,-27,4,-7
2,990,36263,-1954,-16421,-497,-26,-5,-8
2,991,36268,-1986,-16415,-561,-26,-15,-7
2,992,36273,-1930,-16439,-546,-27,-23,-6
2,993,36278,-1936,-16442,-615,-25,-27,-4
2,994,36283,-1946,-16481,-570,-24,-26,-8
2,995,36288,-2000,-16461,-631,-23,-26,-8
2,996,36293,-1942,-16454,-641,-23,-29,-6
2,997,36298,-1893,-16411,-649,-21,-28,-8
2,998,36303,-1839,-16383,-626,-20,-21,-6
2,999,36308,-1869,-16398,-672,-22,-17,-8
3,0,39138,-1440,-16080,493,63,904,-61
3,1,39143,-1058,-16139,493,68,805,-52
3,2,39148,-1026,-16165,583,65,744,-54
3,3,39153,-1383,-16146,722,60,702,-58
3,4,39158,-1528,-16184,773,59,637,-54
3,5,39164,-1350,-16122,632,54,554,-46
3,6,39168,-1176,-16071,681,51,484,-41
3,7,39173,-1162,-16102,499,56,417,-41
3,8,39178,-1460,-16101,410,58,357,-41
3,9,39183,-1460,-16044,471,52,275,-36
3,10,39188,-1402,-16008,574,46,199,-31
3,11,39193,-1255,-15996,675,46,134,-29
3,12,39198,-1363,-16159,485,46,70,-27
3,13,39203,-1564,-16213,143,48,8,-28
3,14,39208,-1606,-16169,28,46,-33,-30
3,15,39213,-1489,-16181,38,46,-66,-23
3,16,39218,-1373,-16320,60,45,-89,-21
3,17,39223,-1382,-16288,-104,43,-105,-26
3,18,39228,-1541,-16309,-162,41,-104,-25
3,19,39233,-1611,-16324,-189,38,-103,-25
3,20,39238,-1476,-16331,-299,39,-98,-26
3,21,39243,-1283,-16415,-373,38,-82,-24
3,22,39248,-1248,-16380,-379,38,-65,-29
3,23,39253,-1498,-16483,-295,39,-61,-30
3,24,39258,-1367,-16543,-371,37,-76,-31
3,25,39263,-1301,-16551,-396,35,-66,-26
3,26,39268,-1208,-16593,-351,33,-46,-28
3,27,39273,-1247,-16550,-307,33,-34,-31
3,28,39278,-1384,-16595,-268,34,-32,-29
3,29,39283,-1407,-16609,-348,35,-38,-30
3,30,39288,-1245,-16627,-380,34,-37,-26
3,31,39293,-1160,-16637,-269,33,-19,-29
3,32,39298,-1181,-16699,-235,34,-15,-29
3,33,39303,-1339,-16749,-293,33,-17,-32
3,34,39308,-1326,-16801,-350,28,-22,-27
3,35,39313,-1326,-16801,-350,28,-22,-27
3,36,39318,-1236,-16814,-219,30,-17,-31
3,37,39323,-1409,-16908,-254,26,-26,-28
3,38,39328,-1496,-16931,-308,24,-30,-30
3,39,39333,-1506,-16941,-244,23,-27,-30
3,40,39338,-1445,-16936,-126,23,-24,-32
3,41,39343,-1350,-16901,-100,22,-25,-34
3,42,39348,-1345,-16876,-159,18,-26,-34
3,43,39353,-1465,-16904,-104,19,-25,-37
3,44,39358,-1535,-16921,-105,19,-38,-34
3,45,39363,-1457,-16882,-116,15,-55,-33
3,46,39368,-1339,-16869,-154,13,-54,-35
3,47,39373,-1318,-16887,-126,11,-48,-39
3,48,39378,-1344,-16844,-98,8,-51,-41
3,49,39383,-1395,-16822,-184,9,-59,-42
3,50,39388,-1371,-16750,-259,9,-60,-40
3,51,39393,-1292,-16679,-245,7,-51,-38
3,52,39398,-1307,-16580,-201,2,-49,-39
3,53,39403,-1288,-16529,-294,3,-49,-39
3,54,39408,-1225,-16480,-277,6,-50,-37
3,55,39413,-1181,-16434,-294,2,-47,-37
3,56,39418,-1129,-16378,-334,0,-41,-36
3,57,39423,-1142,-16356,-288,-1,-42,-37
3,58,39428,-1132,-16298,-312,0,-46,-37
3,59,39433,-1085,-16260,-338,1,-39,-37
3,60,39438,-1056,-16185,-377,-1,-31,-42
3,61,39443,-1040,-16156,-338,-2,-20,-38
3,62,39448,-1101,-16152,-307,0,-22,-32
3,63,39453,-1064,-16142,-273,0,-21,-33
3,64,39458,-1057,-16184,-335,-2,-18,-34
3,65,39463,-1089,-16155,-298,-3,-12,-32
3,66,39468,-1059,-16139,-337,-2,-11,-30
3,67,39473,-1114,-16126,-351,-3,-7,-30
3,68,39478,-1051,-16134,-383,-1,-7,-31
3,69,39483,-1109,-16130,-390,-2,-7,-25
3,70,39488,-1158,-16127,-383,-3,-6,-25
3,71,39493,-1172,-16169,-347,-3,-5,-27
3,72,39498,-1094,-16097,-299,-4,-8,-28
3,73,39503,-1132,-16114,-218,-1,-11,-24
3,74,39508,-1131,-16063,-285,-1,-14,-28
3,75,39513,-1209,-16091,-304,0,-16,-26
3,76,39518,-1254,-16122,-294,-4,-23,-24
3,77,39524,-1157,-16105,-300,0,-27,-25
3,78,39528,-1144,-16135,-275,1,-31,-23
3,79,39533,-1145,-16164,-306,-5,-37,-23
3,80,39538,-1157,-16208,-391,-1,-37,-26
3,81,39543,-1179,-16195,-413,1,-35,-28
3,82,39548,-1233,-16230,-369,0,-33,-25
3,83,39553,-1228,-16195,-421,-2,-26,-26
3,84,39558,-1205,-16262,-422,1,-14,-26
3,85,39563,-1221,-16269,-439,3,-4,-25
3,86,39568,-1255,-16262,-483,1,6,-26
3,87,39573,-1344,-16310,-468,2,12,-29
3,88,39578,-1265,-16341,-473,2,17,-28
3,89,39583,-1196,-16319,-411,2,30,-31
3,90,39588,-1259,-16353,-298,2,41,-31
3,91,39593,-1316,-16369,-266,4,47,-30
3,92,39598,-1323,-16367,-312,2,46,-32
3,93,39603,-1265,-16360,-286,3,49,-28
3,94,39608,-1212,-16387,-219,4,48,-31
3,95,39613,-1268,-16425,-217,5,41,-35
3,96,39618,-1308,-16437,-267,5,29,-34
3,97,39623,-1352,-16442,-225,3,18,-33
3,98,39628,-1372,-16448,-153,3,14,-34
3,99,39633,-1383,-16419,-152,4,8,-33
3,100,39638,-1370,-16491,-182,5,1,-33
3,101,39643,-1377,-16442,-221,4,-6,-36
3,102,39648,-1323,-16542,-162,2,-17,-34
3,103,39653,-1286,-16490,-89,2,-27,-34
3,104,39658,-1285,-16461,-146,2,-34,-34
3,105,39663,-1282,-16489,-282,5,-37,-35
3,106,39668,-1158,-16519,-264,3,-38,-35
3,107,39673,-1158,-16519,-264,3,-38,-35
3,108,39678,-1165,-16493,-236,3,-38,-33
3,109,39683,-1216,-16498,-227,3,-35,-36
3,110,39688,-1215,-16522,-378,6,-22,-34
3,111,39693,-1214,-16515,-288,4,-9,-34
3,112,39698,-1223,-16522,-234,2,-1,-34
3,113,39703,-1202,-16494,-180,2,3,-35
3,114,39708,-1194,-16501,-250,3,6,-34
3,115,39713,-1167,-16511,-285,3,15,-35
3,116,39718,-1182,-16496,-202,1,21,-34
3,117,39723,-1143,-16480,-92,2,17,-35
3,118,39728,-1210,-16508,-98,4,4,-35
3,119,39733,-1228,-16487,-159,1,-3,-35
3,120,39738,-1289,-16418,-146,3,-8,-34
3,121,39743,-1274,-16457,-125,3,-12,-33
3,122,39748,-1301,-16431,-136,2,-24,-31
3,123,39753,-1186,-16415,-106,2,-37,-33
3,124,39758,-1196,-16424,-89,2,-44,-33
3,125,39763,-1266,-16447,-174,-1,-49,-35
3,126,39768,-1347,-16419,-166,-2,-52,-34
3,127,39773,-1273,-16422,-221,2,-51,-28
3,128,39778,-1173,-16456,-196,-2,-41,-32
3,129,39783,-1167,-16459,-162,1,-45,-34
3,130,39788,-1221,-16464,-153,-1,-49,-34
3,131,39793,-1191,-16479,-224,-3,-52,-32
3,132,39798,-1080,-16509,-263,-2,-52,-32
3,133,39803,-988,-16498,-236,-3,-48,-31
3,134,39808,-958,-16512,-187,-1,-53,-29
3,135,39813,-965,-16511,-275,-2,-57,-29
3,136,39818,-979,-16535,-388,-1,-58,-27
3,137,39823,-1075,-16517,-477,-1,-50,-26
3,138,39828,-1057,-16542,-460,-1,-36,-25
3,139,39833,-976,-16541,-385,-1,-22,-25
3,140,39838,-984,-16525,-286,0,-11,-25
3,141,39843,-1035,-16545,-281,-2,-6,-24
3,142,39848,-1027,-16538,-287,-3,0,-20
3,143,39853,-1067,-16540,-186,-3,11,-21
3,144,39858,-1084,-16528,-228,-2,20,-20
3,145,39863,-1165,-16490,-221,0,23,-19
3,146,39868,-1067,-16496,-239,0,22,-18
3,147,39873,-1067,-16510,-190,0,17,-16
3,148,39878,-1073,-16503,-122,-2,8,-16
3,149,39883,-1136,-16522,-54,-2,-2,-19
3,150,39888,-1132,-16517,-123,-2,-13,-14
3,151,39893,-1135,-16514,-143,-1,-20,-12
3,152,39898,-1174,-16451,-160,0,-23,-10
3,153,39903,-1268,-16440,-92,0,-27,-11
3,154,39908,-1252,-16400,-112,-2,-42,-13
3,155,39913,-1140,-16379,-190,-4,-53,-8
3,156,39918,-1138,-16348,-150,-5,-57,-9
3,157,39923,-1106,-16350,-71,-5,-60,-11
3,158,39928,-1095,-16367,-77,-6,-68,-8
3,159,39933,-1036,-16396,-93,-3,-83,-4
3,160,39938,-1055,-16409,-153,-5,-83,-4
3,161,39943,-1113,-16452,-265,-5,-78,-6
3,162,39948,-1192,-16465,-370,-6,-69,-3
3,163,39953,-1208,-16504,-419,-6,-59,-1
3,164,39958,-1193,-16561,-457,-4,-46,-3
3,165,39963,-1122,-16616,-403,-5,-40,-1
3,166,39968,-1147,-16640,-230,-3,-36,-1
3,167,39973,-1097,-16587,-239,-3,-40,-1
3,168,39978,-1102,-16508,-233,-3,-36,2
3,169,39983,-1061,-16551,-174,-5,-30,3
3,170,39988,-1127,-16534,-98,-6,-31,4
3,171,39993,-1186,-16532,-261,-6,-35,3
3,172,39998,-1178,-16493,-257,-4,-34,1
3,173,40003,-1026,-16441,-235,-6,-34,5
3,174,40008,-1055,-16419,-76,-8,-31,8
3,175,40013,-1032,-16456,-212,-6,-37,7
3,176,40018,-1090,-16508,-361,-4,-35,9
3,177,40023,-1140,-16467,-352,-4,-37,10
3,178,40028,-1027,-16409,-397,-9,-39,13
3,179,40033,-1112,-16427,-249,-4,-36,16
3,180,40038,-1136,-16517,-257,-3,-38,11
3,181,40043,-1245,-16525,-182,-5,-35,12
3,182,40048,-1182,-16490,-351,-4,-31,17
3,183,40053,-1176,-16448,-283,-6,-8,12
3,184,40058,-1178,-16434,-301,-4,-24,15
3,185,40063,-1088,-16399,-372,-1,-43,20
3,186,40068,-1136,-16495,-291,-1,-41,18
3,187,40073,-1259,-16519,-270,-4,-33,16
3,188,40078,-1243,-16476,-233,-3,-22,18
3,189,40083,-1190,-16425,-356,-3,-20,18
3,190,40088,-1232,-16422,-437,-1,-17,20
3,191,40093,-1326,-16350,-276,-2,-18,17
3,192,40098,-1201,-16369,-316,-2,-39,23
3,193,40103,-1227,-16406,-276,1,-47,25
3,194,40108,-1235,-16532,-343,2,-48,21
3,195,40113,-1380,-16496,-244,1,-30,19
3,196,40118,-1495,-16460,-242,-3,-19,19
3,197,40123,-1416,-16387,-263,2,-18,17
3,198,40128,-1191,-16285,-334,2,-18,18
3,199,40133,-1213,-16321,-177,3,-21,18
3,200,40138,-1358,-16434,-125,-1,-35,16
3,201,40143,-1465,-16437,-58,-3,-43,16
3,202,40148,-1353,-16365,-155,0,-40,19
3,203,40153,-1226,-16318,-231,-2,-17,19
3,204,40158,-1193,-16304,-223,-2,-9,15
3,205,40163,-1212,-16307,-56,-2,-26,16
3,206,40168,-1219,-16226,-152,-1,-62,21
3,207,40173,-1228,-16342,-129,1,-71,21
3,208,40178,-1271,-16391,-185,0,-66,18
3,209,40183,-1349,-16435,-58,-1,-54,17
3,210,40188,-1332,-16392,-150,-1,-57,17
3,211,40193,-1236,-16401,-337,1,-61,22
3,212,40198,-1204,-16434,-306,0,-60,19
3,213,40203,-1192,-16441,-183,-4,-69,17
3,214,40208,-1328,-16467,-139,-1,-80,20
3,215,40213,-1235,-16400,-279,4,-88,20
3,216,40218,-1132,-16342,-353,1,-82,20
3,217,40223,-1198,-16451,-158,1,-70,18
3,218,40228,-1316,-16503,-102,-3,-78,20
3,219,40233,-1385,-16592,-125,-3,-91,19
3,220,40238,-1320,-16543,-316,-1,-88,17
3,221,40243,-1200,-16496,-335,-4,-62,18
3,222,40248,-1199,-16445,-147,-7,-43,18
3,223,40253,-1165,-16449,-35,-3,-58,16
3,224,40258,-1156,-16447,-120,-1,-82,19
3,225,40263,-1139,-16486,-222,-3,-91,19
3,226,40268,-1108,-16423,-324,-2,-84,18
3,227,40273,-1107,-16411,-292,-4,-75,18
3,228,40278,-1181,-16459,-180,-2,-86,19
3,229,40283,-1176,-16468,-168,-1,-109,22
3,230,40288,-990,-16379,-451,-1,-119,23
3,231,40293,-1016,-16406,-455,2,-110,26
3,232,40298,-1159,-16486,-417,2,-98,23
3,233,40303,-1379,-16590,-333,-3,-88,22
3,234,40308,-1307,-16555,-433,-2,-81,24
3,235,40313,-1149,-16506,-543,3,-55,26
3,236,40318,-1075,-16511,-530,2,-18,21
3,237,40323,-1222,-16523,-359,2,-5,16
3,238,40328,-1244,-16498,-305,2,-17,16
3,239,40333,-1230,-16527,-404,5,-23,21
3,240,40338,-1090,-16513,-412,2,-10,19
3,241,40343,-1131,-16508,-279,3,2,22
3,242,40348,-1208,-16495,-221,7,-9,20
3,243,40353,-1298,-16520,-292,10,-33,22
3,244,40358,-1308,-16494,-299,8,-46,24
3,245,40363,-1325,-16453,-278,4,-43,22
3,246,40368,-1314,-16432,-159,6,-43,21
3,247,40373,-1336,-16476,-188,9,-57,21
3,248,40378,-1299,-16485,-248,8,-67,21
3,249,40383,-1337,-16504,-297,7,-69,22
3,250,40388,-1382,-16473,-303,8,-68,20
3,251,40393,-1357,-16491,-238,8,-71,22
3,252,40398,-1347,-16483,-191,8,-76,22
3,253,40403,-1324,-16479,-287,8,-78,18
3,254,40408,-1367,-16416,-293,9,-79,17
3,255,40413,-1382,-16367,-303,11,-81,18
3,256,40418,-1390,-16404,-259,10,-94,17
3,257,40423,-1232,-16255,-297,12,-103,15
3,258,40428,-1224,-16175,-326,13,-108,17
3,259,40433,-1297,-16320,-360,17,-107,16
3,260,40438,-1446,-16365,-320,14,-102,16
3,261,40443,-1376,-16336,-384,15,-97,17
3,262,40448,-1268,-16294,-454,15,-79,15
3,263,40453,-1248,-16230,-423,15,-57,8
3,264,40458,-1393,-16224,-214,16,-48,8
3,265,40463,-1417,-16199,-166,16,-57,9
3,266,40468,-1313,-16276,-240,17,-60,11
3,267,40473,-1182,-16288,-337,16,-49,8
3,268,40478,-1265,-16305,-180,14,-34,7
3,269,40483,-1297,-16319,-126,17,-41,8
3,270,40488,-1364,-16322,-124,18,-60,7
3,271,40493,-1403,-16346,-174,17,-78,5
3,272,40498,-1361,-16336,-161,15,-82,8
3,273,40503,-1401,-16377,-92,14,-78,4
3,274,40508,-1448,-16376,-164,16,-86,2
3,275,40513,-1443,-16375,-209,15,-100,2
3,276,40518,-1476,-16422,-129,15,-111,3
3,277,40523,-1413,-16349,-40,15,-118,2
3,278,40528,-1236,-16187,-74,16,-133,5
3,279,40533,-1191,-16190,-104,17,-140,5
3,280,40538,-1311,-16259,-170,19,-149,-1
3,281,40543,-1500,-16364,-112,14,-152,-1
3,282,40548,-1430,-16357,-342,14,-155,5
3,283,40553,-1233,-16307,-449,17,-136,3
3,284,40558,-1136,-16273,-417,14,-110,-4
3,285,40563,-1271,-16297,-290,13,-101,-5
3,286,40568,-1308,-16342,-308,16,-113,-2
3,287,40573,-1201,-16402,-419,17,-112,-1
3,288,40578,-1092,-16412,-401,16,-94,0
3,289,40583,-1105,-16388,-310,15,-70,-4
3,290,40588,-1193,-16396,-280,14,-63,-6
3,291,40593,-1205,-16438,-365,15,-66,-3
3,292,40598,-1200,-16472,-394,16,-60,-3
3,293,40603,-1149,-16531,-266,16,-52,-3
3,294,40608,-1178,-16508,-201,15,-44,-4
3,295,40613,-1226,-16543,-150,14,-40,-4
3,296,40618,-1358,-16559,-124,14,-39,-4
3,297,40623,-1366,-16502,-151,16,-39,-5
3,298,40628,-1361,-16524,-136,13,-44,-4
3,299,40633,-1382,-16546,28,11,-54,-5
3,300,40638,-1254,-16448,164,12,-75,-6
3,301,40643,-1099,-16315,6,8,-100,-4
3,302,40648,-1131,-16377,-14,12,-109,-2
3,303,40653,-1301,-16477,-68,10,-122,-6
3,304,40658,-1446,-16548,-37,7,-133,-6
3,305,40663,-1328,-16495,-215,10,-144,-2
3,306,40668,-1179,-16425,-332,12,-127,-2
3,307,40673,-1189,-16416,-371,8,-103,-8
3,308,40678,-1255,-16465,-245,10,-97,-7
3,309,40683,-1246,-16450,-300,10,-103,-6
3,310,40688,-1189,-16448,-365,7,-100,-5
3,311,40693,-1163,-16511,-410,6,-70,-8
3,312,40698,-1146,-16481,-330,7,-39,-9
3,313,40703,-1190,-16479,-272,9,-26,-11
3,314,40708,-1169,-16478,-241,9,-24,-9
3,315,40713,-1185,-16498,-266,7,-17,-11
3,316,40718,-1182,-16495,-163,5,-6,-9
3,317,40723,-1239,-16515,-111,3,0,-7
3,318,40728,-1211,-16480,-146,2,4,-8
3,319,40733,-1154,-16460,-117,4,3,-10
3,320,40738,-1204,-16473,-120,2,-1,-9
3,321,40743,-1222,-16419,-65,-1,-10,-9
3,322,40748,-1223,-16402,-5,0,-22,-6
3,323,40753,-1240,-16399,-80,3,-29,-6
3,324,40758,-1244,-16345,-118,1,-31,-6
3,325,40763,-1259,-16359,-214,-3,-33,-7
3,326,40768,-1222,-16362,-137,-1,-38,-9
3,327,40773,-1193,-16369,-102,-1,-46,-8
3,328,40778,-1221,-16399,-126,1,-53,-5
3,329,40783,-1222,-16387,-107,-5,-42,-7
3,330,40788,-1179,-16370,-121,-6,-33,-5
3,331,40793,-1180,-16320,-161,-6,-30,-8
3,332,40798,-1150,-16319,-213,-9,-31,-9
3,333,40803,-1105,-16326,-262,-7,-30,-7
3,334,40808,-1114,-16289,-246,-9,-27,-5
3,335,40813,-1100,-16306,-164,-9,-23,-6
3,336,40818,-1102,-16329,-183,-7,-21,-4
3,337,40823,-1100,-16383,-246,-8,-19,-5
3,338,40828,-1176,-16351,-261,-8,-11,-4
3,339,40833,-1213,-16336,-233,-9,-6,-3
3,340,40838,-1209,-16352,-212,-10,-3,-6
3,341,40843,-1226,-16344,-207,-9,2,-4
3,342,40848,-1223,-16356,-210,-12,4,-4
3,343,40853,-1196,-16376,-214,-14,8,-3
3,344,40858,-1229,-16390,-82,-12,6,-4
3,345,40863,-1238,-16413,-22,-13,3,-4
3,346,40868,-1252,-16429,17,-13,-2,-2
3,347,40873,-1287,-16406,-21,-14,-8,0
3,348,40878,-1300,-16412,-142,-16,-13,-1
3,349,40883,-1299,-16396,-95,-15,-14,-3
3,350,40888,-1275,-16399,-106,-16,-26,-1
3,351,40893,-1337,-16390,-125,-16,-35,-4
3,352,40898,-1348,-16386,-303,-16,-37,-1
3,353,40903,-1318,-16370,-326,-17,-29,0
3,354,40908,-1310,-16349,-261,-16,-25,-2
3,355,40913,-1245,-16380,-194,-18,-22,-4
3,356,40918,-1224,-16387,-242,-14,-27,-4
3,357,40923,-1236,-16434,-254,-16,-27,-4
3,358,40928,-1198,-16419,-259,-15,-21,-5
3,359,40933,-1238,-16385,-226,-19,-11,-2
3,360,40938,-1265,-16391,-259,-21,-7,-2
3,361,40943,-1281,-16383,-308,-20,-7,0
3,362,40948,-1286,-16332,-266,-19,-3,1
3,363,40953,-1325,-16287,-74,-21,-4,1
3,364,40958,-1392,-16286,26,-22,-9,3
3,365,40963,-1388,-16330,97,-20,-24,4
3,366,40968,-1306,-16382,63,-22,-40,4
3,367,40973,-1285,-16402,156,-25,-63,4
3,368,40978,-1330,-16444,186,-24,-101,10
3,369,40983,-1507,-16428,188,-24,-141,10
3,370,40988,-1553,-16454,133,-26,-176,14
3,371,40993,-1451,-16510,174,-29,-197,19
3,372,40998,-1245,-16481,194,-29,-214,21
3,373,41003,-1144,-16519,230,-29,-244,23
3,374,41008,-1206,-16540,234,-32,-283,24
3,375,41013,-1346,-16449,13,-32,-336,34
3,376,41018,-1416,-16442,-342,-30,-379,44
3,377,41023,-1279,-16557,-386,-31,-403,47
3,378,41028,-1116,-16518,-303,-37,-425,57
3,379,41033,-993,-16540,-131,-36,-453,69
3,380,41038,-1139,-16613,-162,-33,-491,76
3,381,41043,-1423,-16781,-513,-33,-518,91
3,382,41048,-1540,-17007,-880,-36,-542,110
3,383,41053,-1362,-17358,-973,-30,-571,124
3,384,41058,-1034,-17593,-561,-31,-612,131
3,385,41063,-990,-17593,2,-32,-674,147
3,386,41068,-1356,-17696,-89,-28,-725,161
3,387,41073,-1939,-17711,-835,-20,-717,169
3,388,41078,-2383,-17659,-1147,-23,-634,180
3,389,41083,-2383,-17419,-730,-35,-526,190
3,390,41088,-2432,-17071,-56,-41,-454,197
3,391,41093,-2589,-16950,134,-36,-411,203
3,392,41098,-2628,-16936,-348,-35,-369,212
3,393,41103,-2589,-16803,-517,-44,-299,223
3,394,41108,-2428,-16588,-115,-49,-248,232
3,395,41113,-2398,-16396,556,-52,-254,248
3,396,41118,-2415,-16233,604,-51,-314,271
3,397,41123,-2439,-16088,349,-48,-354,292
3,398,41128,-2537,-16025,16,-47,-367,306
3,399,41133,-2673,-15936,339,-56,-375,322
3,400,41138,-2567,-15833,504,-55,-432,346
3,401,41143,-2451,-15753,454,-53,-487,362
3,402,41148,-2529,-15633,179,-52,-512,384
3,403,41153,-3067,-15831,257,-52,-474,408
3,404,41158,-2624,-15806,-55,-48,-478,432
3,405,41163,-2655,-15536,110,-47,-447,443
3,406,41168,-2660,-15437,34,-44,-433,456
3,407,41173,-2843,-15435,91,-43,-429,475
3,408,41178,-2768,-15367,-158,-39,-439,495
3,409,41183,-2574,-15356,-152,-33,-427,512
3,410,41188,-2604,-15312,36,-30,-407,528
3,411,41193,-2710,-15282,150,-26,-393,543
3,412,41198,-2901,-15225,82,-19,-402,562
3,413,41203,-2846,-15315,-123,-11,-408,579
3,414,41208,-2731,-15296,62,-12,-393,596
3,415,41213,-2599,-15292,156,-4,-386,608
3,416,41218,-2838,-15302,157,0,-379,623
3,417,41223,-2932,-15466,-100,10,-386,642
3,418,41228,-2881,-15557,-233,17,-370,660
3,419,41233,-2821,-15530,-346,23,-346,674
3,420,41238,-2878,-15649,-250,31,-308,685
3,421,41243,-3023,-15656,-289,39,-280,696
3,422,41248,-3098,-15649,-371,45,-242,709
3,423,41253,-3267,-15757,-368,53,-194,723
3,424,41258,-3356,-15795,-203,57,-140,733
3,425,41263,-3462,-15784,-82,64,-101,741
3,426,41268,-3589,-15797,99,73,-80,750
3,427,41273,-3830,-15785,317,82,-81,761
3,428,41278,-3968,-15680,464,82,-84,771
3,429,41283,-3937,-15736,633,93,-102,785
3,430,41288,-3869,-15732,697,97,-126,790
3,431,41293,-3922,-15771,952,103,-167,798
3,432,41298,-4009,-15779,1012,111,-226,808
3,433,41303,-4169,-15829,736,117,-279,819
3,434,41308,-4258,-15879,395,126,-308,827
3,435,41313,-4325,-15973,221,131,-302,830
3,436,41318,-4412,-16025,186,135,-286,835
3,437,41323,-4554,-16156,86,143,-274,836
3,438,41328,-4703,-16224,-42,153,-248,832
3,439,41333,-4740,-16250,-129,159,-197,830
3,440,41338,-4893,-16265,-17,165,-141,831
3,441,41343,-5096,-16161,310,166,-102,829
3,442,41348,-5144,-16111,598,172,-97,825
3,443,41353,-5027,-16101,663,179,-112,824
3,444,41358,-4921,-16076,774,182,-124,822
3,445,41363,-4933,-15972,1052,189,-139,817
3,446,41368,-5043,-15992,1080,195,-192,818
3,447,41373,-5205,-15995,871,199,-255,823
3,448,41378,-5073,-16025,735,206,-308,823
3,449,41383,-4947,-16043,735,210,-335,816
3,450,41388,-4963,-15968,884,216,-360,809
3,451,41393,-5182,-16050,794,220,-395,811
3,452,41398,-5233,-15983,397,229,-416,802
3,453,41403,-5195,-15947,175,233,-401,795
3,454,41408,-5128,-16033,189,237,-370,789
3,455,41413,-5152,-15980,395,239,-346,778
3,456,41418,-5052,-15913,435,245,-334,771
3,457,41423,-4988,-15913,161,253,-309,767
3,458,41428,-4985,-15971,0,253,-255,750
3,459,41433,-5016,-15866,168,255,-195,741
3,460,41438,-4958,-15774,395,252,-157,731
3,461,41443,-4999,-15683,349,258,-132,722
3,462,41448,-5025,-15576,159,262,-93,711
3,463,41453,-5062,-15520,86,265,-36,698
3,464,41458,-5015,-15442,194,261,19,690
3,465,41463,-5029,-15315,450,261,59,676
3,466,41468,-5011,-15196,558,261,87,665
3,467,41473,-5083,-15203,621,264,118,656
3,468,41478,-5042,-15045,441,261,154,641
3,469,41483,-5069,-15039,651,259,189,632
3,470,41488,-4956,-15003,847,253,190,620
3,471,41493,-4948,-15101,971,251,170,610
3,472,41498,-4867,-14972,852,252,148,595
3,473,41503,-4988,-14960,719,252,155,585
3,474,41508,-5192,-15010,779,243,167,572
3,475,41513,-5211,-15033,651,240,165,555
3,476,41518,-5400,-15128,555,237,168,529
3,477,41523,-5522,-15080,526,230,185,509
3,478,41528,-5709,-15002,665,225,204,488
3,479,41533,-5861,-15013,666,221,216,472
3,480,41538,-5991,-14981,641,217,231,456
3,481,41543,-5960,-15006,794,210,239,437
3,482,41548,-5695,-15120,1034,207,223,418
3,483,41553,-5467,-15185,1281,200,175,402
3,484,41558,-5421,-15231,1407,194,112,384
3,485,41563,-5651,-15277,1440,191,37,370
3,486,41568,-5831,-15412,1293,185,-44,355
3,487,41573,-5793,-15461,1088,176,-103,339
3,488,41578,-5700,-15620,927,172,-144,323
3,489,41583,-5760,-15771,861,168,-176,298
3,490,41588,-6023,-15884,768,165,-213,278
3,491,41593,-6120,-16044,443,160,-238,257
3,492,41598,-6115,-16106,157,152,-224,238
3,493,41603,-5945,-16212,9,145,-178,215
3,494,41608,-5894,-16252,6,139,-122,185
3,495,41613,-5887,-16264,36,134,-80,160
3,496,41618,-5864,-16208,-55,129,-45,138
3,497,41623,-5827,-16188,-131,121,5,110
3,498,41628,-5824,-16139,-9,115,65,85
3,499,41633,-5908,-16189,180,112,117,62
3,500,41638,-5976,-16179,194,105,154,36
3,501,41643,-6067,-16254,269,97,191,14
3,502,41648,-6127,-16179,410,89,223,-14
3,503,41653,-6063,-16018,613,83,245,-42
3,504,41658,-6094,-16041,946,72,246,-63
3,505,41663,-6048,-16020,1045,69,218,-85
3,506,41668,-6120,-15996,1169,60,182,-108
3,507,41673,-5990,-15952,1184,53,130,-130
3,508,41678,-5926,-15917,1262,45,75,-151
3,509,41683,-5840,-15839,1364,39,14,-172
3,510,41688,-5827,-15756,1453,30,-51,-195
3,511,41693,-5797,-15764,1332,23,-125,-213
3,512,41698,-5759,-15732,1200,15,-183,-233
3,513,41703,-5762,-15738,1037,6,-225,-256
3,514,41708,-5801,-15718,971,-6,-243,-278
3,515,41713,-5748,-15683,839,-11,-252,-301
3,516,41718,-5639,-15664,666,-18,-249,-324
3,517,41723,-5568,-15662,569,-31,-235,-348
3,518,41728,-5540,-15661,594,-38,-218,-374
3,519,41733,-5507,-15641,596,-46,-194,-397
3,520,41738,-5424,-15639,492,-56,-164,-418
3,521,41743,-5259,-15719,412,-64,-128,-443
3,522,41748,-5195,-15704,433,-70,-87,-469
3,523,41753,-5214,-15719,508,-77,-62,-488
3,524,41758,-5199,-15731,495,-87,-55,-511
3,525,41763,-5093,-15763,502,-93,-44,-534
3,526,41768,-5041,-15772,497,-100,-26,-554
3,527,41773,-5054,-15802,624,-110,-10,-576
3,528,41778,-5141,-15771,731,-113,-12,-599
3,529,41783,-5083,-15701,786,-119,-34,-616
3,530,41788,-4993,-15675,770,-125,-58,-632
3,531,41793,-4924,-15719,740,-134,-70,-655
3,532,41798,-4869,-15741,777,-139,-84,-676
3,533,41803,-4783,-15721,861,-146,-109,-693
3,534,41808,-4727,-15725,860,-153,-140,-712
3,535,41813,-4591,-15720,733,-157,-163,-729
3,536,41818,-4490,-15575,640,-166,-166,-747
3,537,41823,-4638,-15722,708,-174,-165,-761
3,538,41828,-4628,-15670,582,-178,-180,-783
3,539,41833,-4494,-15629,475,-185,-182,-799
3,540,41838,-4375,-15738,422,-193,-174,-813
3,541,41843,-4252,-15689,332,-200,-157,-833
3,542,41848,-4310,-15634,428,-205,-140,-850
3,543,41853,-4224,-15709,290,-210,-135,-867
3,544,41858,-4135,-15703,258,-215,-124,-884
3,545,41863,-3975,-15773,202,-219,-112,-901
3,546,41868,-3992,-15812,319,-227,-77,-918
3,547,41873,-3989,-15856,274,-233,-51,-936
3,548,41878,-3994,-15884,293,-238,-29,-954
3,549,41883,-3827,-15851,515,-243,-11,-981
3,550,41888,-3777,-15785,619,-253,-15,-998
3,551,41893,-3713,-15919,715,-254,-27,-1006
3,552,41898,-3499,-15834,624,-258,-52,-1023
3,553,41903,-3370,-15866,732,-264,-71,-1032
3,554,41908,-3345,-15987,753,-268,-100,-1041
3,555,41913,-3394,-15995,674,-271,-137,-1057
3,556,41918,-3316,-15977,475,-275,-167,-1063
3,557,41923,-3233,-15994,329,-281,-179,-1065
3,558,41928,-3143,-15902,301,-286,-180,-1080
3,559,41933,-3076,-15930,333,-289,-185,-1089
3,560,41938,-2963,-15924,205,-294,-194,-1091
3,561,41943,-2598,-15979,-20,-294,-191,-1098
3,562,41948,-2280,-16014,-81,-297,-174,-1105
3,563,41953,-2158,-16005,11,-307,-160,-1115
3,564,41958,-2157,-16023,35,-305,-157,-1117
3,565,41963,-2095,-16085,-245,-304,-159,-1122
3,566,41968,-1973,-16115,-465,-308,-126,-1125
3,567,41973,-1833,-16148,-563,-309,-73,-1129
3,568,41978,-1878,-16184,-401,-310,-14,-1128
3,569,41983,-1941,-16214,-419,-309,12,-1132
3,570,41988,-1924,-16191,-487,-310,45,-1136
3,571,41993,-1791,-16169,-519,-313,97,-1138
3,572,41998,-1661,-16129,-310,-313,154,-1138
3,573,42003,-1592,-16063,33,-314,184,-1142
3,574,42008,-1539,-16098,196,-312,172,-1140
3,575,42013,-1507,-16079,168,-309,150,-1132
3,576,42018,-1464,-16100,162,-309,132,-1130
3,577,42023,-1278,-16267,190,-308,116,-1122
3,578,42028,-1160,-16318,362,-310,87,-1118
3,579,42033,-1137,-16328,451,-307,32,-1109
3,580,42038,-1129,-16353,339,-307,-26,-1099
3,581,42043,-1056,-16444,121,-307,-62,-1093
3,582,42048,-884,-16519,-70,-306,-74,-1087
3,583,42053,-723,-16562,-215,-308,-64,-1075
3,584,42058,-664,-16638,-181,-306,-53,-1071
3,585,42063,-732,-16652,-420,-304,-50,-1064
3,586,42068,-765,-16674,-777,-302,-37,-1052
3,587,42073,-763,-16615,-859,-306,9,-1045
3,588,42078,-556,-16593,-740,-306,58,-1038
3,589,42083,-410,-16531,-617,-301,112,-1031
3,590,42088,-304,-16484,-801,-299,146,-1022
3,591,42093,-330,-16480,-936,-297,184,-1016
3,592,42098,-439,-16527,-862,-296,235,-1009
3,593,42103,-443,-16543,-605,-293,287,-997
3,594,42108,-373,-16588,-432,-290,335,-988
3,595,42113,-265,-16652,-347,-287,369,-979
3,596,42118,-338,-16696,-317,-284,402,-972
3,597,42123,-481,-16688,-181,-282,422,-964
3,598,42128,-1626,-16919,-219,-281,424,-955
3,599,42133,4753,-29117,-11866,-171,520,-963
3,600,42138,-19259,-27519,-32768,29,2125,-1196
3,601,42143,-32768,-9296,-782,-187,8015,-362
3,602,42148,-3392,-5989,16995,350,11661,908
3,603,42153,32767,-10486,32767,249,12202,-17
3,604,42158,30189,-13067,32767,354,8006,-942
3,605,42163,-15179,-17987,31619,525,1266,-566
3,606,42168,-32768,-9682,22014,474,-7354,660
3,607,42173,-15022,-9809,-14076,474,-11373,1918
3,608,42178,28493,-19665,-32768,227,-6505,1614
3,609,42183,32205,-19452,-4468,167,897,-328
3,610,42188,-13331,-14821,29679,-182,1761,-1091
3,611,42193,-32768,-11871,25138,252,-4218,159
3,612,42198,-14415,-17384,-23664,799,-10230,1846
3,613,42203,13528,-19739,-32768,376,-5752,1112
3,614,42208,13597,-18086,-16711,176,1348,-233
3,615,42213,-6539,-17833,19236,-24,3614,-668
3,616,42218,-22100,-12126,23562,48,377,-280
3,617,42223,-6172,-16174,-14568,536,-4211,917
3,618,42228,10636,-20536,-32598,351,-2606,765
3,619,42233,5385,-17245,-9851,147,2365,-195
3,620,42238,-2814,-16690,13791,89,4027,-422
3,621,42243,-9238,-13979,20940,154,2352,-203
3,622,42248,6970,-18553,-15299,349,-697,471
3,623,42253,2383,-16869,-2363,109,1350,-13
3,624,42258,-4137,-15393,13649,88,1911,-138
3,625,42263,-3410,-15541,10340,238,565,125
3,626,42268,640,-16799,-3997,317,-443,328
3,627,42273,2952,-17366,-7692,246,-147,266
3,628,42278,-558,-16367,2377,141,551,84
3,629,42283,-4420,-15434,8540,150,275,74
3,630,42288,-3013,-15788,2611,232,-557,235
3,631,42293,99,-17017,-5417,249,-612,301
3,632,42298,137,-16988,-4464,177,79,177
3,633,42303,-2029,-16406,2637,132,433,88
3,634,42308,-3551,-16006,4857,167,46,124
3,635,42313,-2107,-16323,454,215,-441,198
3,636,42318,-380,-16843,-3276,203,-300,202
3,637,42323,-651,-16720,-1102,146,185,122
3,638,42328,-1710,-16322,3077,122,259,92
3,639,42333,-1967,-16243,3071,150,-148,137
3,640,42338,-1027,-16425,-261,183,-455,171
3,641,42343,-497,-16727,-1750,167,-306,159
3,642,42348,-1098,-16566,223,128,-15,113
3,643,42353,-1557,-16332,1845,116,-31,108
3,644,42358,-1260,-16380,908,130,-253,138
3,645,42363,-685,-16564,-910,146,-343,146
3,646,42368,-722,-16597,-991,133,-192,123
3,647,42373,-1141,-16567,398,112,-33,107
3,648,42378,-999,-16301,742,109,-45,112
3,649,42383,-830,-16544,-35,110,-104,130
3,650,42388,-374,-16355,-650,113,-84,107
3,651,42393,-568,-16191,-40,104,-1,105
3,652,42398,-872,-16345,507,96,4,117
3,653,42403,-739,-16108,422,96,-33,108
3,654,42408,-604,-16233,-50,95,-28,118
3,655,42413,-457,-16290,46,89,19,114
3,656,42418,-446,-16127,379,85,40,103
3,657,42423,-661,-16040,433,80,14,111
3,658,42428,-664,-16022,185,77,-10,115
3,659,42433,-629,-15966,-10,71,12,114
3,660,42438,-584,-15961,56,66,56,112
3,661,42443,-616,-15996,229,60,86,109
3,662,42448,-746,-15992,293,58,87,109
3,663,42453,-841,-16034,227,52,92,111
3,664,42458,-890,-16094,192,50,119,109
3,665,42463,-984,-16144,208,45,144,106
3,666,42468,-1019,-16173,257,38,155,104
3,667,42473,-1106,-16147,384,34,150,102
3,668,42478,-1155,-16146,534,31,140,103
3,669,42483,-1197,-16195,610,25,127,102
3,670,42488,-1214,-16277,594,23,111,103
3,671,42493,-1227,-16398,578,21,95,101
3,672,42498,-1143,-16410,665,12,74,103
3,673,42503,-1185,-16406,773,9,40,101
3,674,42508,-1223,-16398,753,8,-2,99
3,675,42513,-1268,-16398,533,3,-34,99
3,676,42518,-1224,-16394,355,0,-47,102
3,677,42523,-1124,-16343,326,-4,-45,101
3,678,42528,-1106,-16316,403,-7,-48,97
3,679,42533,-1056,-16311,323,-12,-52,96
3,680,42538,-1026,-16308,130,-14,-45,96
3,681,42543,-1034,-16317,41,-17,-22,95
3,682,42548,-1092,-16327,55,-21,11,95
3,683,42553,-1019,-16337,98,-26,39,91
3,684,42558,-966,-16312,120,-29,59,89
3,685,42563,-937,-16304,81,-28,79,92
3,686,42568,-982,-16285,125,-33,106,90
3,687,42573,-1076,-16263,113,-33,129,85
3,688,42578,-1167,-16298,151,-37,144,86
3,689,42583,-1203,-16281,163,-42,155,86
3,690,42588,-1269,-16348,329,-40,160,85
3,691,42593,-1335,-16367,442,-46,165,83
3,692,42598,-1387,-16395,498,-47,163,82
3,693,42603,-1387,-16396,509,-50,154,81
3,694,42608,-1384,-16407,638,-53,147,78
3,695,42613,-1451,-16403,806,-56,126,78
3,696,42618,-1518,-16419,748,-59,64,80
3,697,42623,-1488,-16437,761,-63,44,75
3,698,42628,-1452,-16385,751,-68,24,75
3,699,42633,-1489,-16339,720,-67,-3,75
3,700,42638,-1473,-16347,649,-69,-29,75
3,701,42643,-1459,-16328,543,-71,-48,74
3,702,42648,-1391,-16274,498,-74,-60,74
3,703,42653,-1344,-16254,580,-76,-71,72
3,704,42658,-1300,-16222,516,-77,-80,71
3,705,42663,-1276,-16213,382,-80,-79,71
3,706,42668,-1229,-16184,310,-84,-68,69
3,707,42673,-1185,-16205,299,-82,-56,68
3,708,42678,-1147,-16230,238,-83,-47,71
3,709,42683,-1053,-16206,137,-84,-33,72
3,710,42688,-1066,-16248,130,-88,-11,68
3,711,42693,-1126,-16288,131,-90,12,66
3,712,42698,-1124,-16261,156,-90,34,66
3,713,42703,-1158,-16278,79,-89,54,67
3,714,42708,-1153,-16312,-30,-91,88,66
3,715,42713,-1227,-16419,-43,-89,116,60
3,716,42718,-1348,-16432,28,-91,132,60
3,717,42723,-1424,-16454,200,-92,138,60
3,718,42728,-1424,-16470,320,-89,139,62
3,719,42733,-1455,-16448,415,-91,150,58
3,720,42738,-1425,-16422,490,-94,156,56
3,721,42743,-1479,-16391,591,-95,144,54
3,722,42748,-1529,-16390,600,-94,113,52
3,723,42753,-1622,-16371,675,-91,77,56
3,724,42758,-1599,-16358,796,-93,45,56
3,725,42763,-1627,-16369,944,-96,19,56
3,726,42768,-1548,-16323,986,-97,-12,57
3,727,42773,-1419,-16299,833,-99,-46,57
3,728,42778,-1405,-16314,703,-96,-74,56
3,729,42783,-1449,-16299,611,-100,-101,55
3,730,42788,-1446,-16292,593,-100,-130,56
3,731,42793,-1435,-16355,385,-97,-153,59
3,732,42798,-1360,-16438,136,-97,-151,57
3,733,42803,-1340,-16470,6,-102,-123,53
3,734,42808,-1350,-16496,4,-102,-100,52
3,735,42813,-1355,-16521,-27,-103,-82,53
3,736,42818,-1335,-16558,-172,-97,-63,49
3,737,42823,-1282,-16576,-225,-95,-25,49
3,738,42828,-1294,-16555,-149,-95,16,47
3,739,42833,-1297,-16548,4,-96,41,42
3,740,42838,-1273,-16482,66,-95,54,42
3,741,42843,-1244,-16486,29,-91,65,44
3,742,42848,-1292,-16496,42,-88,76,42
3,743,42853,-1382,-16497,152,-90,85,43
3,744,42858,-1493,-16513,221,-88,78,46
3,745,42863,-1531,-16464,291,-86,74,42
3,746,42868,-1453,-16413,340,-84,70,43
3,747,42873,-1444,-16384,460,-82,64,43
3,748,42878,-1448,-16336,592,-83,50,39
3,749,42883,-1419,-16287,567,-83,24,41
3,750,42888,-1407,-16244,418,-82,-1,41
3,751,42893,-1442,-16217,303,-82,-20,41
3,752,42898,-1512,-16216,300,-79,-35,42
3,753,42903,-1505,-16200,264,-77,-53,40
3,754,42908,-1488,-16207,204,-76,-64,42
3,755,42913,-1482,-16214,145,-72,-66,42
3,756,42918,-1501,-16204,116,-71,-63,39
3,757,42923,-1556,-16178,30,-71,-60,36
3,758,42928,-1539,-16237,23,-71,-55,34
3,759,42933,-1490,-16234,-19,-68,-44,36
3,760,42938,-1367,-16228,-31,-66,-29,31
3,761,42943,-1366,-16248,58,-64,-19,30
3,762,42948,-1402,-16226,89,-60,-15,29
3,763,42953,-1427,-16193,23,-56,-11,28
3,764,42958,-1405,-16182,-99,-57,-3,26
3,765,42963,-1384,-16189,-77,-57,15,24
3,766,42968,-1401,-16173,-37,-55,30,23
3,767,42973,-1465,-16153,23,-53,37,23
3,768,42978,-1506,-16128,-24,-51,41,25
3,769,42983,-1646,-16242,44,-49,74,18
3,770,42988,-1610,-16217,84,-48,83,16
3,771,42993,-1645,-16237,237,-46,91,13
3,772,42998,-1709,-16262,264,-42,86,11
3,773,43003,-1794,-16261,351,-42,76,10
3,774,43008,-1796,-16342,433,-45,60,8
3,775,43013,-1828,-16368,415,-39,34,8
3,776,43018,-1842,-16438,420,-37,8,7
3,777,43023,-1915,-16530,411,-36,-16,4
3,778,43028,-1939,-16574,476,-36,-40,3
3,779,43033,-1959,-16613,480,-34,-59,1
3,780,43038,-1965,-16628,445,-33,-69,-1
3,781,43043,-1971,-16683,390,-35,-73,-4
3,782,43048,-1985,-16681,306,-36,-73,-9
3,783,43053,-1889,-16657,283,-34,-81,-11
3,784,43058,-1782,-16671,313,-32,-85,-13
3,785,43063,-1769,-16682,345,-35,-91,-19
3,786,43068,-1786,-16732,300,-31,-101,-16
3,787,43073,-1845,-16785,233,-30,-109,-16
3,788,43078,-1801,-16813,151,-28,-105,-20
3,789,43083,-1820,-16863,149,-28,-92,-24
3,790,43088,-1876,-16961,153,-26,-84,-27
3,791,43093,-1957,-17019,112,-28,-78,-28
3,792,43098,-1986,-17052,126,-28,-74,-32
3,793,43103,-1912,-17095,172,-26,-61,-33
3,794,43108,-1904,-17089,173,-25,-48,-37
3,795,43113,-1885,-17111,99,-22,-42,-38
3,796,43118,-1866,-17157,87,-22,-42,-41
3,797,43123,-1891,-17138,89,-19,-51,-44
3,798,43128,-1760,-17123,68,-18,-59,-46
3,799,43133,-1786,-17111,51,-15,-59,-47
3,800,43138,-1845,-17150,36,-13,-60,-53
3,801,43143,-1850,-17094,-22,-11,-65,-54
3,802,43148,-1896,-17111,-120,-7,-72,-51
3,803,43153,-1895,-17116,-163,-6,-73,-57
3,804,43158,-1929,-17134,-193,-3,-69,-62
3,805,43163,-2013,-17205,-160,0,-70,-61
3,806,43168,-2010,-17192,-179,1,-77,-62
3,807,43173,-1977,-17297,-370,6,-74,-67
3,808,43178,-2157,-17420,-303,11,-68,-72
3,809,43183,-2219,-17529,-431,12,-73,-77
3,810,43188,-2249,-17515,-416,19,-77,-82
3,811,43193,-2175,-17481,-543,27,-83,-85
3,812,43198,-2088,-17365,-472,30,-78,-93
3,813,43203,-2103,-17211,-264,30,-91,-96
3,814,43208,-2138,-17184,-6,38,-113,-99
3,815,43213,-2126,-17053,-41,45,-143,-101
3,816,43218,-1950,-16974,-138,48,-158,-103
3,817,43223,-1803,-16740,-34,49,-165,-110
3,818,43228,-1758,-16519,195,51,-180,-117
3,819,43233,-1703,-16350,236,54,-216,-118
3,820,43238,-1610,-16226,63,63,-256,-113
3,821,43243,-1516,-16084,-42,65,-274,-114
3,822,43248,-1383,-15897,-74,68,-283,-115
3,823,43253,-1266,-15787,-34,71,-293,-120
3,824,43258,-1145,-15605,-118,75,-307,-119
3,825,43263,-1109,-15532,-104,78,-320,-118
3,826,43268,-1057,-15518,-75,79,-323,-124
3,827,43273,-958,-15527,-55,81,-318,-122
3,828,43278,-797,-15517,-22,85,-307,-123
3,829,43283,-653,-15456,31,86,-299,-123
3,830,43288,-592,-15373,16,88,-296,-124
3,831,43293,-649,-15306,-54,92,-300,-122
3,832,43298,-651,-15275,-123,96,-310,-119
3,833,43303,-590,-15260,-66,100,-308,-119
3,834,43308,-462,-15238,50,101,-301,-116
3,835,43313,-384,-15208,249,102,-294,-116
3,836,43318,-343,-15311,396,106,-291,-114
3,837,43323,-318,-15340,329,106,-285,-114
3,838,43328,-292,-15362,375,110,-269,-109
3,839,43333,-218,-15339,583,109,-247,-109
3,840,43338,-93,-15354,785,105,-226,-110
3,841,43343,-16,-15471,772,104,-206,-106
3,842,43348,-38,-15664,658,103,-130,-104
3,843,43353,-57,-15770,536,99,-94,-102
3,844,43358,-55,-15800,430,97,-62,-98
3,845,43363,-28,-15829,311,96,-30,-94
3,846,43368,-96,-15898,259,99,-2,-96
3,847,43373,-225,-15984,201,99,30,-93
3,848,43378,-299,-16075,59,101,68,-91
3,849,43383,-377,-16163,-58,103,102,-89
3,850,43388,-451,-16242,76,103,127,-89
3,851,43393,-463,-16317,132,105,137,-88
3,852,43398,-545,-16417,132,108,135,-83
3,853,43403,-623,-16588,65,109,133,-84
3,854,43408,-703,-16661,144,111,129,-84
3,855,43413,-739,-16710,335,113,120,-81
3,856,43418,-798,-16745,406,120,110,-78
3,857,43423,-832,-16784,350,121,107,-79
3,858,43428,-870,-16786,363,123,109,-77
3,859,43433,-967,-16825,507,122,115,-76
3,860,43438,-982,-16844,527,120,115,-78
3,861,43443,-939,-16873,610,120,115,-80
3,862,43448,-862,-16890,613,121,115,-78
3,863,43453,-863,-16962,782,123,122,-78
3,864,43458,-885,-16942,820,119,113,-79
3,865,43463,-838,-16969,848,119,102,-75
3,866,43468,-759,-16994,744,119,91,-74
3,867,43473,-644,-17017,762,116,89,-74
3,868,43478,-783,-16965,701,117,85,-69
3,869,43483,-863,-17038,584,119,76,-66
3,870,43488,-846,-17049,506,116,67,-67
3,871,43493,-884,-17069,399,118,73,-64
3,872,43498,-921,-17069,400,116,88,-64
3,873,43503,-880,-16989,503,116,106,-64
3,874,43508,-852,-16973,611,112,118,-65
3,875,43513,-844,-16895,710,110,129,-67
3,876,43518,-902,-16860,677,111,141,-63
3,877,43523,-973,-16796,632,108,154,-66
3,878,43528,-1106,-16801,671,108,159,-63
3,879,43533,-1135,-16727,889,105,157,-63
3,880,43538,-1088,-16701,1025,102,138,-60
3,881,43543,-1177,-16722,1067,103,121,-61
3,882,43548,-1210,-16704,1048,100,105,-59
3,883,43553,-1160,-16720,1081,97,86,-60
3,884,43558,-1146,-16662,1198,92,65,-57
3,885,43563,-1078,-16659,1279,92,41,-58
3,886,43568,-973,-16623,1254,87,18,-56
3,887,43573,-958,-16589,1220,85,-1,-54
3,888,43578,-966,-16527,1174,81,-16,-53
3,889,43583,-928,-16469,1111,77,-24,-49
3,890,43588,-953,-16445,1038,71,-20,-49
3,891,43593,-902,-16417,985,66,-11,-52
3,892,43598,-867,-16388,972,61,0,-48
3,893,43603,-842,-16410,856,58,16,-48
3,894,43608,-789,-16420,726,55,38,-47
3,895,43613,-849,-16436,711,51,61,-44
3,896,43618,-876,-16445,711,47,79,-44
3,897,43623,-838,-16456,746,44,99,-43
3,898,43628,-791,-16480,734,39,122,-43
3,899,43633,-835,-16522,701,39,145,-42
3,900,43638,-896,-16566,693,35,164,-41
3,901,43643,-975,-16536,722,30,179,-40
3,902,43648,-1006,-16519,744,27,188,-36
3,903,43653,-987,-16529,749,26,191,-34
3,904,43658,-924,-16522,756,19,202,-35
3,905,43663,-850,-16523,742,14,204,-36
3,906,43668,-953,-16526,781,14,199,-34
3,907,43673,-1020,-16532,757,12,186,-31
3,908,43678,-1105,-16556,691,9,180,-27
3,909,43683,-1044,-16663,683,5,177,-24
3,910,43688,-1022,-16692,649,1,176,-21
3,911,43693,-978,-16733,631,0,173,-20
3,912,43698,-939,-16772,634,-5,170,-20
3,913,43703,-927,-16759,614,-9,161,-17
3,914,43708,-918,-16738,577,-10,157,-14
3,915,43713,-886,-16702,567,-14,146,-7
3,916,43718,-821,-16655,570,-17,143,-3
3,917,43723,-767,-16674,675,-21,142,-2
3,918,43728,-706,-16663,646,-25,135,1
3,919,43733,-675,-16621,515,-24,132,4
3,920,43738,-656,-16606,393,-24,131,7
3,921,43743,-572,-16618,392,-30,128,13
3,922,43748,-523,-16598,455,-32,124,18
3,923,43753,-379,-16509,441,-32,119,22
3,924,43758,-413,-16500,344,-33,115,26
3,925,43763,-523,-16515,197,-36,117,30
3,926,43768,-540,-16546,208,-38,126,37
3,927,43773,-544,-16507,270,-41,134,42
3,928,43778,-603,-16413,174,-39,147,44
3,929,43783,-685,-16359,167,-41,165,47
3,930,43788,-838,-16345,208,-44,179,52
3,931,43793,-867,-16255,330,-46,184,54
3,932,43798,-799,-16207,410,-48,189,55
3,933,43803,-717,-16172,494,-48,194,58
3,934,43808,-767,-16119,511,-52,188,62
3,935,43813,-852,-16067,570,-52,180,66
3,936,43818,-930,-15980,604,-55,161,71
3,937,43823,-961,-15962,762,-58,139,72
3,938,43828,-971,-15957,927,-61,120,77
3,939,43833,-960,-15968,1050,-62,100,81
3,940,43838,-929,-15944,1038,-65,79,81
3,941,43843,-949,-15933,1029,-72,61,85
3,942,43848,-992,-15921,1051,-73,46,89
3,943,43853,-906,-15967,1145,-78,30,93
3,944,43858,-937,-15946,1159,-85,22,94
3,945,43863,-958,-15980,1104,-90,24,97
3,946,43868,-1026,-16019,998,-95,39,100
3,947,43873,-1062,-16056,730,-99,60,100
3,948,43878,-1106,-16111,620,-104,80,101
3,949,43883,-1173,-16090,557,-111,96,102
3,950,43888,-1241,-16108,525,-115,112,101
3,951,43893,-1248,-16186,436,-115,130,102
3,952,43898,-1257,-16219,285,-117,156,101
3,953,43903,-1248,-16230,203,-121,183,100
