event_id,seq,ts_ms,ax,ay,az,gx,gy,gz
1,0,153133,-2207,-16195,-1720,2,-7,-5
1,1,153138,-2185,-16188,-1685,1,-8,-4
1,2,153143,-2196,-16187,-1724,2,-9,-3
1,3,153148,-2250,-16185,-1668,1,-6,-3
1,4,153153,-2238,-16163,-1685,-1,-5,-3
1,5,153158,-2224,-16159,-1685,2,-8,-1
1,6,153163,-2198,-16210,-1695,2,-10,-1
1,7,153168,-2245,-16231,-1712,1,-9,-1
1,8,153173,-2266,-16199,-1727,2,-8,-2
1,9,153178,-2221,-16170,-1726,3,-6,-2
1,10,153183,-2204,-16187,-1684,3,-9,-3
1,11,153188,-2277,-16196,-1691,1,-9,-1
1,12,153193,-2231,-16204,-1701,0,-8,-3
1,13,153198,-2252,-16176,-1675,1,-5,-4
1,14,153203,-2249,-16210,-1698,1,-6,-4
1,15,153208,-2229,-16219,-1705,1,-6,-3
1,16,153213,-2250,-16198,-1689,0,-7,-5
1,17,153218,-2275,-16184,-1723,-1,-10,-5
1,18,153223,-2237,-16196,-1715,0,-6,-3
1,19,153228,-2236,-16207,-1693,0,-7,-4
1,20,153233,-2221,-16183,-1713,3,-8,-2
1,21,153238,-2188,-16193,-1725,2,-7,-1
1,22,153243,-2195,-16195,-1715,0,-6,-5
1,23,153248,-2218,-16173,-1729,1,-7,-7
1,24,153253,-2266,-16196,-1733,0,-5,-4
1,25,153258,-2230,-16188,-1715,2,-7,-4
1,26,153263,-2227,-16186,-1738,2,-9,-4
1,27,153268,-2212,-16224,-1730,2,-8,-1
1,28,153273,-2163,-16182,-1717,1,-10,-2
1,29,153278,-2228,-16182,-1719,1,-10,-5
1,30,153283,-2262,-16224,-1704,1,-8,-4
1,31,153288,-2206,-16209,-1676,0,-8,-4
1,32,153293,-2232,-16207,-1669,0,-8,-1
1,33,153298,-2261,-16180,-1698,3,-6,1
1,34,153303,-2219,-16186,-1709,3,-7,-2
1,35,153308,-2263,-16185,-1677,2,-7,-3
1,36,153313,-2256,-16206,-1694,1,-9,-2
1,37,153318,-2215,-16181,-1707,1,-7,-3
1,38,153323,-2248,-16184,-1722,1,-6,-6
1,39,153328,-2242,-16185,-1719,3,-9,-2
1,40,153333,-2256,-16202,-1721,0,-7,-4
1,41,153338,-2231,-16196,-1714,1,-8,-3
1,42,153343,-2208,-16185,-1742,2,-7,-5
1,43,153348,-2213,-16201,-1747,1,-4,-5
1,44,153353,-2242,-16222,-1689,1,-7,-3
1,45,153358,-2191,-16181,-1707,2,-9,-2
1,46,153363,-2248,-16190,-1727,2,-9,-3
1,47,153368,-2229,-16191,-1712,1,-9,-7
1,48,153373,-2206,-16169,-1707,2,-8,-5
1,49,153378,-2183,-16193,-1671,2,-8,-1
1,50,153383,-2196,-16200,-1664,0,-6,-3
1,51,153388,-2222,-16160,-1702,1,-6,-2
1,52,153393,-2244,-16190,-1701,1,-7,-3
1,53,153398,-2272,-16220,-1750,2,-6,-6
1,54,153403,-2302,-16211,-1805,0,-6,-5
1,55,153408,-2287,-16205,-1732,2,-9,-2
1,56,153413,-2281,-16224,-1691,1,-7,-4
1,57,153418,-2266,-16191,-1723,3,-7,-4
1,58,153423,-2312,-16182,-1699,0,-9,-3
1,59,153428,-2279,-16221,-1713,1,-9,-5
1,60,153433,-2226,-16181,-1700,0,-9,-4
1,61,153438,-2243,-16187,-1696,-1,-6,-3
1,62,153443,-2201,-16199,-1673,1,-5,-3
1,63,153448,-2195,-16167,-1693,1,-7,-4
1,64,153453,-2191,-16188,-1717,-1,-6,-6
1,65,153458,-2224,-16226,-1747,1,-6,-2
1,66,153463,-2225,-16175,-1718,0,-6,-5
1,67,153468,-2240,-16194,-1732,-1,-7,-5
1,68,153473,-2200,-16208,-1720,2,-7,-3
1,69,153478,-2277,-16180,-1741,1,-10,-3
1,70,153483,-2243,-16190,-1700,4,-8,-2
1,71,153488,-2255,-16174,-1680,4,-8,-3
1,72,153493,-2221,-16185,-1688,0,-8,-4
1,73,153498,-2228,-16151,-1689,2,-8,-3
1,74,153503,-2265,-16191,-1687,2,-7,-1
1,75,153508,-2230,-16191,-1715,-1,-7,-3
1,76,153513,-2236,-16172,-1715,0,-9,-1
1,77,153518,-2258,-16189,-1701,2,-8,-4
1,78,153523,-2277,-16164,-1700,0,-8,-5
1,79,153528,-2225,-16162,-1742,2,-6,-3
1,80,153533,-2250,-16200,-1712,2,-8,-2
1,81,153538,-2257,-16185,-1696,0,-9,-4
1,82,153543,-2261,-16179,-1728,2,-10,-5
1,83,153548,-2232,-16207,-1693,3,-8,-3
1,84,153553,-2214,-16199,-1670,0,-6,-6
1,85,153558,-2243,-16168,-1710,-1,-8,-2
1,86,153563,-2227,-16162,-1713,2,-8,-1
1,87,153568,-2232,-16203,-1702,3,-6,-4
1,88,153573,-2237,-16197,-1716,1,-7,-5
1,89,153578,-2217,-16230,-1724,3,-8,-5
1,90,153583,-2219,-16215,-1696,2,-8,-3
1,91,153588,-2277,-16188,-1714,1,-6,0
1,92,153593,-2263,-16188,-1751,3,-8,1
1,93,153598,-2245,-16176,-1718,0,-8,-2
1,94,153603,-2239,-16187,-1725,2,-8,-5
1,95,153608,-2267,-16190,-1690,4,-9,-2
1,96,153613,-2266,-16184,-1695,3,-7,-3
1,97,153618,-2250,-16209,-1709,1,-8,-2
1,98,153623,-2234,-16242,-1747,-1,-8,-2
1,99,153628,-2242,-16224,-1713,0,-7,-2
1,100,153633,-2222,-16181,-1672,1,-7,-1
1,101,153638,-2211,-16195,-1666,1,-6,0
1,102,153643,-2191,-16164,-1672,2,-7,-2
1,103,153648,-2180,-16180,-1710,1,-7,-2
1,104,153653,-2220,-16221,-1687,0,-7,-2
1,105,153658,-2242,-16195,-1676,1,-7,-4
1,106,153663,-2268,-16161,-1738,0,-10,-2
1,107,153668,-2293,-16191,-1720,2,-7,-1
1,108,153673,-2312,-16195,-1675,1,-6,-4
1,109,153678,-2336,-16164,-1685,1,-7,-5
1,110,153683,-2344,-16201,-1698,0,-8,-6
1,111,153688,-2321,-16174,-1683,1,-9,-5
1,112,153693,-2297,-16151,-1650,-1,-5,-5
1,113,153698,-2267,-16166,-1658,2,-6,-4
1,114,153703,-2228,-16150,-1642,3,-5,-5
1,115,153708,-2231,-16170,-1689,1,-7,-4
1,116,153713,-2218,-16181,-1744,-1,-7,-5
1,117,153718,-2182,-16188,-1696,1,-3,-5
1,118,153723,-2186,-16178,-1664,3,-5,-3
1,119,153728,-2162,-16204,-1733,1,-8,-4
1,120,153733,-2189,-16213,-1741,1,-8,-4
1,121,153738,-2195,-16190,-1714,2,-9,-3
1,122,153743,-2229,-16194,-1772,2,-8,0
1,123,153748,-2219,-16199,-1743,1,-7,-1
1,124,153753,-2203,-16161,-1697,1,-8,-5
1,125,153758,-2204,-16146,-1718,-1,-10,-3
1,126,153763,-2227,-16191,-1734,-1,-7,-2
1,127,153768,-2258,-16209,-1698,1,-8,-3
1,128,153773,-2238,-16201,-1705,3,-5,-1
1,129,153778,-2257,-16214,-1730,3,-7,-2
1,130,153783,-2261,-16182,-1720,2,-7,-2
1,131,153788,-2194,-16201,-1733,0,-9,-1
1,132,153793,-2203,-16210,-1723,0,-9,-2
1,133,153798,-2233,-16217,-1707,1,-7,-3
1,134,153803,-2221,-16181,-1705,2,-8,-4
1,135,153808,-2228,-16212,-1731,3,-7,-1
1,136,153813,-2240,-16216,-1726,3,-6,-3
1,137,153818,-2228,-16178,-1705,0,-5,-4
1,138,153823,-2243,-16201,-1728,1,-5,-4
1,139,153828,-2246,-16209,-1698,2,-6,-2
1,140,153833,-2294,-16204,-1743,1,-6,-3
1,141,153838,-2278,-16207,-1714,3,-7,-2
1,142,153843,-2227,-16183,-1701,2,-8,-2
1,143,153848,-2271,-16190,-1676,2,-7,-5
1,144,153853,-2196,-16198,-1682,2,-9,-2
1,145,153858,-2216,-16201,-1710,1,-6,-5
1,146,153863,-2217,-16214,-1746,3,-8,-5
1,147,153868,-2202,-16202,-1763,2,-9,-2
1,148,153873,-2227,-16192,-1725,1,-6,-4
1,149,153878,-2252,-16196,-1684,-3,-6,-4
1,150,153883,-2260,-16199,-1730,1,-7,-2
1,151,153888,-2230,-16217,-1726,1,-7,-2
1,152,153893,-2224,-16209,-1712,-1,-9,-1
1,153,153898,-2236,-16200,-1698,1,-6,-3
1,154,153903,-2225,-16187,-1703,2,-6,-5
1,155,153908,-2232,-16207,-1665,3,-8,-3
1,156,153913,-2212,-16160,-1688,0,-7,-3
1,157,153918,-2246,-16171,-1641,1,-7,-2
1,158,153923,-2256,-16207,-1684,2,-6,-5
1,159,153928,-2271,-16160,-1736,0,-7,-6
1,160,153933,-2251,-16170,-1673,1,-9,-2
1,161,153938,-2249,-16187,-1665,0,-4,0
1,162,153943,-2239,-16200,-1682,1,-4,-2
1,163,153948,-2260,-16187,-1734,0,-4,-2
1,164,153953,-2225,-16188,-1737,-1,-3,-4
1,165,153958,-2250,-16189,-1737,0,-7,-5
1,166,153963,-2222,-16229,-1743,1,-8,-5
1,167,153968,-2227,-16178,-1750,2,-7,-2
1,168,153973,-2245,-16210,-1710,4,-7,-3
1,169,153978,-2232,-16216,-1741,2,-6,-6
1,170,153983,-2223,-16218,-1717,2,-8,-6
1,171,153988,-2221,-16169,-1697,1,-6,-4
1,172,153993,-2201,-16169,-1695,4,-7,-3
1,173,153998,-2176,-16186,-1693,0,-5,-2
1,174,154003,-2195,-16156,-1699,2,-7,-1
1,175,154008,-2232,-16158,-1693,0,-7,-1
1,176,154013,-2249,-16183,-1704,2,-7,-3
1,177,154018,-2271,-16208,-1705,2,-7,-2
1,178,154023,-2268,-16203,-1698,2,-8,0
1,179,154028,-2286,-16211,-1722,3,-6,-2
1,180,154033,-2303,-16205,-1696,0,-7,-3
1,181,154038,-2268,-16185,-1715,0,-6,-4
1,182,154043,-2279,-16211,-1706,0,-5,-3
1,183,154048,-2260,-16198,-1696,2,-6,-3
1,184,154053,-2257,-16197,-1691,1,-8,-4
1,185,154058,-2263,-16221,-1736,1,-11,-2
1,186,154063,-2240,-16201,-1703,0,-6,-4
1,187,154068,-2235,-16192,-1720,0,-7,-6
1,188,154073,-2209,-16215,-1720,0,-7,-4
1,189,154078,-2200,-16199,-1677,1,-10,-4
1,190,154083,-2189,-16156,-1724,2,-11,-3
1,191,154088,-2179,-16179,-1690,1,-10,-5
1,192,154093,-2197,-16167,-1733,0,-8,-3
1,193,154098,-2234,-16196,-1703,1,-8,-2
1,194,154103,-2215,-16229,-1686,1,-8,-4
1,195,154108,-2199,-16195,-1678,1,-7,-1
1,196,154113,-2222,-16191,-1700,-2,-8,-2
1,197,154118,-2227,-16178,-1716,1,-9,-2
1,198,154123,-2220,-16182,-1692,2,-6,-4
1,199,154128,-2290,-16200,-1695,0,-7,-2
1,200,154133,-2235,-16204,-1696,1,-10,0
1,201,154138,-2228,-16220,-1661,0,-7,-4
1,202,154143,-2257,-16214,-1722,1,-5,-4
1,203,154148,-2257,-16168,-1704,1,-5,-3
1,204,154153,-2217,-16219,-1714,3,-7,-2
1,205,154158,-2240,-16222,-1682,2,-9,-6
1,206,154163,-2255,-16185,-1721,5,-7,-4
1,207,154168,-2227,-16208,-1710,2,-5,-4
1,208,154173,-2252,-16173,-1697,0,-7,-3
1,209,154178,-2224,-16189,-1747,0,-6,-2
1,210,154183,-2183,-16217,-1741,0,-8,-2
1,211,154188,-2232,-16218,-1740,1,-7,-3
1,212,154193,-2247,-16213,-1704,1,-6,-4
1,213,154198,-2216,-16226,-1680,0,-9,-2
1,214,154203,-2235,-16205,-1687,1,-7,-6
1,215,154208,-2218,-16224,-1710,3,-6,-4
1,216,154213,-2265,-16204,-1727,3,-7,-7
1,217,154218,-2260,-16162,-1718,2,-9,-5
1,218,154223,-2248,-16176,-1670,1,-6,-3
1,219,154228,-2195,-16225,-1659,0,-6,-4
1,220,154233,-2260,-16180,-1718,1,-8,-4
1,221,154238,-2245,-16172,-1725,-1,-5,-3
1,222,154243,-2238,-16198,-1694,1,-7,-2
1,223,154248,-2240,-16202,-1707,-1,-6,-5
1,224,154253,-2223,-16177,-1691,0,-7,-1
1,225,154258,-2228,-16212,-1708,2,-8,1
1,226,154263,-2251,-16184,-1701,2,-6,-2
1,227,154268,-2239,-16200,-1731,0,-6,1
1,228,154273,-2204,-16172,-1732,0,-6,-2
1,229,154278,-2212,-16153,-1759,2,-6,-1
1,230,154283,-2216,-16189,-1750,2,-8,-1
1,231,154288,-2234,-16209,-1717,2,-8,-2
1,232,154293,-2217,-16210,-1697,3,-9,-4
1,233,154298,-2235,-16217,-1743,2,-8,-4
1,234,154303,-2251,-16165,-1727,-1,-8,-3
1,235,154308,-2212,-16169,-1690,1,-7,-3
1,236,154313,-2252,-16184,-1679,0,-5,-3
1,237,154318,-2269,-16199,-1732,0,-6,-4
1,238,154323,-2270,-16202,-1711,1,-7,-5
1,239,154328,-2269,-16184,-1669,2,-8,-2
1,240,154333,-2205,-16160,-1696,2,-9,-3
1,241,154338,-2256,-16201,-1693,1,-6,-5
1,242,154343,-2223,-16199,-1683,1,-8,-2
1,243,154348,-2236,-16175,-1725,1,-8,-2
1,244,154353,-2237,-16185,-1702,0,-8,-1
1,245,154358,-2283,-16236,-1692,1,-9,-2
1,246,154363,-2253,-16175,-1707,2,-6,-3
1,247,154368,-2240,-16202,-1705,1,-6,-4
1,248,154373,-2290,-16172,-1701,1,-8,-2
1,249,154378,-2284,-16182,-1722,1,-7,-3
1,250,154383,-2247,-16198,-1722,3,-8,-4
1,251,154388,-2243,-16180,-1718,1,-8,-3
1,252,154393,-2234,-16181,-1745,2,-9,-3
1,253,154398,-2242,-16183,-1701,6,-7,-3
1,254,154403,-2268,-16174,-1699,0,-8,-5
1,255,154408,-2243,-16195,-1675,1,-7,-3
1,256,154413,-2246,-16207,-1682,0,-7,-3
1,257,154418,-2210,-16171,-1706,2,-7,-5
1,258,154423,-2203,-16167,-1725,0,-6,-4
1,259,154428,-2200,-16220,-1697,1,-6,-4
1,260,154433,-2200,-16204,-1701,3,-7,-3
1,261,154438,-2218,-16206,-1714,0,-7,-2
1,262,154443,-2251,-16194,-1718,1,-8,-1
1,263,154448,-2240,-16191,-1685,2,-8,-1
1,264,154453,-2225,-16198,-1717,-1,-8,-6
1,265,154458,-2211,-16176,-1747,2,-8,-4
1,266,154463,-2230,-16181,-1699,1,-5,-3
1,267,154468,-2251,-16164,-1701,1,-6,-3
1,268,154473,-2243,-16210,-1719,-1,-5,-3
1,269,154478,-2282,-16192,-1735,0,-6,-4
1,270,154483,-2239,-16191,-1714,3,-7,-4
1,271,154488,-2249,-16189,-1726,3,-9,-2
1,272,154493,-2276,-16189,-1745,2,-9,-3
1,273,154498,-2209,-16185,-1681,-2,-7,-5
1,274,154503,-2246,-16197,-1712,-1,-6,-5
1,275,154508,-2240,-16191,-1697,2,-6,-1
1,276,154513,-2225,-16195,-1671,-2,-7,-1
1,277,154518,-2248,-16206,-1664,2,-5,-3
1,278,154523,-2264,-16210,-1670,1,-5,-3
1,279,154528,-2233,-16198,-1677,-1,-7,-2
1,280,154533,-2229,-16218,-1716,2,-7,-2
1,281,154538,-2234,-16227,-1670,3,-7,-4
1,282,154543,-2247,-16152,-1683,1,-6,-3
1,283,154548,-2254,-16171,-1731,1,-6,-4
1,284,154553,-2254,-16192,-1717,1,-8,-4
1,285,154558,-2220,-16198,-1697,0,-8,-5
1,286,154563,-2255,-16201,-1729,1,-8,-4
1,287,154568,-2266,-16209,-1693,1,-9,-6
1,288,154573,-2248,-16184,-1693,-4,-7,-2
1,289,154578,-2250,-16160,-1693,-1,-7,-2
1,290,154583,-2248,-16168,-1718,3,-6,-4
1,291,154588,-2236,-16187,-1695,0,-5,-4
1,292,154593,-2221,-16197,-1722,0,-8,-4
1,293,154598,-2220,-16197,-1710,1,-7,-5
1,294,154603,-2211,-16153,-1702,1,-6,-5
1,295,154608,-2226,-16204,-1714,1,-8,-4
1,296,154613,-2233,-16209,-1678,0,-7,-6
1,297,154618,-2212,-16195,-1708,-1,-8,-3
1,298,154623,-2223,-16169,-1718,0,-9,-4
1,299,154628,-2232,-16177,-1677,4,-10,-3
1,300,154633,-2248,-16180,-1704,4,-6,-4
1,301,154638,-2239,-16200,-1747,3,-8,-2
1,302,154643,-2238,-16215,-1772,-1,-7,-5
1,303,154648,-2251,-16183,-1699,1,-5,-4
1,304,154653,-2271,-16181,-1707,1,-8,-1
1,305,154658,-2241,-16205,-1761,2,-9,-3
1,306,154663,-2244,-16180,-1682,2,-7,-2
1,307,154668,-2286,-16178,-1720,1,-7,-3
1,308,154673,-2264,-16188,-1716,4,-6,-2
1,309,154678,-2214,-16162,-1718,4,-6,-4
1,310,154683,-2252,-16177,-1705,3,-9,-3
1,311,154688,-2224,-16194,-1653,0,-9,-3
1,312,154693,-2237,-16179,-1697,-1,-9,-3
1,313,154698,-2252,-16179,-1712,0,-6,-3
1,314,154703,-2233,-16204,-1712,2,-8,-2
1,315,154708,-2233,-16191,-1732,0,-7,-4
1,316,154713,-2217,-16185,-1703,1,-7,-2
1,317,154718,-2260,-16197,-1722,0,-10,-3
1,318,154723,-2227,-16191,-1674,-2,-9,-2
1,319,154728,-2247,-16203,-1692,0,-8,-5
1,320,154733,-2265,-16168,-1719,-2,-8,-2
1,321,154738,-2245,-16217,-1698,-1,-8,-2
1,322,154743,-2267,-16217,-1705,1,-6,-2
1,323,154748,-2265,-16165,-1760,1,-6,-5
1,324,154753,-2238,-16200,-1714,1,-7,-6
1,325,154758,-2226,-16181,-1696,0,-8,-3
1,326,154763,-2251,-16183,-1703,-2,-7,-2
1,327,154768,-2241,-16177,-1710,1,-6,-2
1,328,154773,-2207,-16156,-1716,0,-7,-3
1,329,154778,-2247,-16210,-1711,0,-7,-5
1,330,154783,-2226,-16186,-1727,0,-7,-3
1,331,154788,-2225,-16193,-1768,0,-7,-2
1,332,154793,-2195,-16198,-1722,0,-7,-3
1,333,154798,-2213,-16200,-1697,2,-7,-2
1,334,154803,-2237,-16190,-1710,3,-9,-4
1,335,154808,-2201,-16196,-1740,0,-9,-1
1,336,154813,-2208,-16202,-1711,1,-8,-4
1,337,154818,-2234,-16181,-1684,2,-6,-6
1,338,154823,-2237,-16186,-1693,-1,-7,-3
1,339,154828,-2254,-16195,-1709,0,-9,-1
1,340,154833,-2253,-16203,-1704,2,-8,0
1,341,154838,-2235,-16185,-1705,3,-6,-1
1,342,154843,-2227,-16217,-1709,3,-6,-2
1,343,154848,-2281,-16207,-1700,2,-5,-3
1,344,154853,-2275,-16179,-1701,3,-9,-5
1,345,154858,-2246,-16181,-1685,3,-9,-4
1,346,154863,-2233,-16186,-1678,3,-7,-5
1,347,154868,-2245,-16200,-1667,1,-8,-4
1,348,154873,-2229,-16182,-1707,1,-6,-4
1,349,154878,-2234,-16173,-1694,4,-9,-2
1,350,154883,-2204,-16217,-1687,3,-9,-1
1,351,154888,-2237,-16213,-1681,0,-7,-4
1,352,154893,-2241,-16190,-1717,-1,-7,-3
1,353,154898,-2233,-16181,-1717,1,-11,-3
1,354,154903,-2231,-16181,-1684,3,-8,-4
1,355,154908,-2216,-16182,-1711,0,-7,-1
1,356,154913,-2241,-16178,-1721,3,-8,0
1,357,154918,-2211,-16187,-1719,2,-7,-3
1,358,154923,-2250,-16207,-1739,3,-8,-3
1,359,154928,-2229,-16166,-1709,2,-5,-5
1,360,154933,-2240,-16212,-1716,0,-6,-6
1,361,154938,-2285,-16171,-1698,1,-7,-4
1,362,154943,-2234,-16169,-1716,2,-9,-3
1,363,154948,-2267,-16187,-1740,1,-8,-4
1,364,154953,-2252,-16181,-1711,2,-7,-2
1,365,154958,-2258,-16185,-1738,2,-7,-4
1,366,154963,-2215,-16194,-1719,2,-7,-5
1,367,154968,-2233,-16204,-1735,-1,-6,-2
1,368,154973,-2226,-16195,-1693,-1,-6,-5
1,369,154978,-2248,-16202,-1693,0,-7,-5
1,370,154983,-2236,-16186,-1685,-1,-5,-4
1,371,154988,-2197,-16172,-1685,-1,-6,-3
1,372,154993,-2213,-16185,-1716,-1,-9,-2
1,373,154998,-2216,-16197,-1697,2,-7,-1
1,374,155003,-2233,-16174,-1698,2,-9,-3
1,375,155008,-2236,-16184,-1706,3,-8,-1
1,376,155013,-2220,-16207,-1743,2,-5,-2
1,377,155018,-2214,-16192,-1733,0,-9,-6
1,378,155023,-2225,-16204,-1709,1,-11,-6
1,379,155028,-2236,-16217,-1745,2,-10,-3
1,380,155033,-2246,-16212,-1723,0,-7,-4
1,381,155038,-2242,-16192,-1750,2,-9,-1
1,382,155043,-2269,-16168,-1654,4,-5,-5
1,383,155048,-2240,-16195,-1650,2,-6,-4
1,384,155053,-2278,-16190,-1687,3,-9,-2
1,385,155058,-2252,-16203,-1699,6,-9,-4
1,386,155063,-2277,-16189,-1696,4,-8,-5
1,387,155068,-2250,-16221,-1682,1,-7,-4
1,388,155073,-2262,-16175,-1711,0,-5,-1
1,389,155078,-2284,-16196,-1758,2,-7,-2
1,390,155083,-2248,-16177,-1729,-2,-9,0
1,391,155088,-2226,-16195,-1701,0,-7,0
1,392,155093,-2236,-16169,-1714,0,-4,-5
1,393,155098,-2203,-16180,-1689,1,-8,-8
1,394,155103,-2202,-16206,-1701,3,-7,-2
1,395,155108,-2263,-16201,-1727,0,-5,-4
1,396,155113,-2244,-16196,-1690,1,-6,-5
1,397,155118,-2216,-16192,-1734,0,-6,-4
1,398,155123,-2180,-16210,-1730,2,-8,-3
1,399,155128,-2219,-16181,-1711,0,-8,-2
1,400,155133,-2235,-16169,-1705,-1,-8,-2
1,401,155138,-2226,-16211,-1731,2,-7,-4
1,402,155143,-2247,-16170,-1742,2,-8,-6
1,403,155148,-2267,-16155,-1727,1,-10,-3
1,404,155153,-2219,-16185,-1738,1,-9,-2
1,405,155158,-2247,-16197,-1714,-1,-7,-4
1,406,155163,-2229,-16159,-1670,2,-10,-5
1,407,155168,-2235,-16184,-1705,3,-8,-4
1,408,155173,-2251,-16174,-1685,1,-9,-4
1,409,155178,-2262,-16179,-1696,2,-9,-4
1,410,155183,-2226,-16204,-1704,4,-7,-3
1,411,155188,-2219,-16177,-1700,2,-7,-4
1,412,155193,-2234,-16167,-1728,0,-8,-4
1,413,155198,-2260,-16193,-1690,1,-9,-4
1,414,155203,-2240,-16199,-1700,1,-7,-4
1,415,155208,-2266,-16203,-1705,1,-9,-3
1,416,155213,-2203,-16202,-1691,2,-9,-1
1,417,155218,-2231,-16195,-1679,1,-9,-2
1,418,155223,-2257,-16208,-1667,2,-7,-1
1,419,155228,-2231,-16222,-1743,3,-7,-4
1,420,155233,-2244,-16216,-1695,2,-9,-3
1,421,155238,-2207,-16188,-1666,3,-10,-1
1,422,155243,-2282,-16196,-1737,3,-8,-2
1,423,155248,-2247,-16195,-1692,3,-8,-1
1,424,155253,-2223,-16187,-1732,-1,-6,-4
1,425,155258,-2238,-16198,-1745,1,-4,-4
1,426,155263,-2236,-16196,-1727,2,-7,-5
1,427,155268,-2218,-16195,-1727,-1,-6,-4
1,428,155273,-2274,-16170,-1709,2,-7,-2
1,429,155278,-2263,-16197,-1670,1,-6,-2
1,430,155283,-2230,-16155,-1697,2,-6,-3
1,431,155288,-2247,-16163,-1713,3,-7,-3
1,432,155293,-2224,-16219,-1715,0,-9,-2
1,433,155298,-2236,-16205,-1708,0,-6,-3
1,434,155303,-2258,-16161,-1741,0,-5,-5
1,435,155308,-2229,-16203,-1712,1,-5,-6
1,436,155313,-2221,-16183,-1716,3,-7,-5
1,437,155318,-2270,-16206,-1696,1,-7,-3
1,438,155323,-2220,-16193,-1710,0,-5,-5
1,439,155328,-2246,-16202,-1716,0,-7,-3
1,440,155333,-2255,-16169,-1724,1,-7,-2
1,441,155338,-2234,-16184,-1719,4,-9,-3
1,442,155343,-2247,-16176,-1703,2,-10,-3
1,443,155348,-2246,-16168,-1700,1,-7,-3
1,444,155353,-2229,-16202,-1701,2,-8,-4
1,445,155358,-2234,-16205,-1703,1,-9,-4
1,446,155363,-2241,-16201,-1710,1,-7,-3
1,447,155368,-2238,-16223,-1717,2,-8,-3
1,448,155373,-2221,-16182,-1730,3,-7,-6
1,449,155378,-2237,-16196,-1728,3,-8,-3
1,450,155383,-2231,-16159,-1681,2,-6,-2
1,451,155388,-2260,-16199,-1713,4,-10,-2
1,452,155393,-2246,-16232,-1757,1,-9,-5
1,453,155398,-2238,-16220,-1733,-1,-7,-6
1,454,155403,-2235,-16159,-1720,-1,-5,-3
1,455,155408,-2239,-16181,-1723,4,-5,-3
1,456,155413,-2247,-16170,-1715,3,-9,-3
1,457,155418,-2253,-16181,-1680,1,-7,-3
1,458,155423,-2254,-16202,-1657,2,-5,-3
1,459,155428,-2205,-16209,-1659,1,-7,-1
1,460,155433,-2220,-16188,-1696,1,-8,-5
1,461,155438,-2258,-16187,-1697,1,-8,-3
1,462,155443,-2278,-16208,-1711,-1,-8,-2
1,463,155448,-2221,-16190,-1731,-1,-8,-4
1,464,155453,-2221,-16175,-1749,0,-10,-4
1,465,155458,-2241,-16205,-1724,2,-6,-6
1,466,155463,-2221,-16189,-1748,2,-7,-3
1,467,155468,-2215,-16173,-1700,3,-8,-5
1,468,155473,-2224,-16198,-1721,4,-9,-2
1,469,155478,-2213,-16182,-1732,3,-7,-4
1,470,155483,-2250,-16205,-1731,2,-7,-4
1,471,155488,-2223,-16197,-1707,1,-8,-2
1,472,155493,-2224,-16204,-1720,2,-8,0
1,473,155498,-2255,-16206,-1716,0,-8,-2
1,474,155503,-2256,-16181,-1736,-1,-8,-3
1,475,155508,-2235,-16201,-1687,0,-5,-6
1,476,155513,-2224,-16156,-1701,1,-5,-3
1,477,155518,-2230,-16204,-1707,0,-10,-1
1,478,155523,-2217,-16209,-1716,0,-8,-2
1,479,155528,-2224,-16195,-1711,2,-9,-2
1,480,155533,-2249,-16204,-1707,1,-9,-4
1,481,155538,-2268,-16197,-1721,0,-7,-1
1,482,155543,-2210,-16184,-1732,1,-8,-2
1,483,155548,-2215,-16170,-1691,2,-9,-2
1,484,155553,-2222,-16190,-1706,0,-7,-4
1,485,155558,-2254,-16184,-1692,1,-5,-6
1,486,155563,-2245,-16208,-1720,2,-6,-4
1,487,155568,-2241,-16202,-1686,1,-6,-2
1,488,155573,-2238,-16193,-1682,1,-9,-4
1,489,155578,-2237,-16161,-1694,3,-6,-5
1,490,155583,-2239,-16183,-1707,0,-6,-5
1,491,155588,-2234,-16208,-1697,1,-9,-3
1,492,155593,-2239,-16192,-1707,2,-7,-4
1,493,155598,-2252,-16178,-1667,1,-8,-2
1,494,155603,-2253,-16222,-1709,0,-8,-1
1,495,155608,-2240,-16221,-1709,1,-7,-3
1,496,155613,-2237,-16172,-1707,1,-6,-6
1,497,155618,-2219,-16194,-1718,2,-8,-2
1,498,155623,-2249,-16174,-1731,1,-10,-4
1,499,155628,-2238,-16190,-1758,-1,-9,-6
1,500,155633,-2219,-16185,-1661,2,-8,-4
1,501,155638,-2240,-16202,-1682,3,-5,-6
1,502,155643,-2246,-16179,-1728,2,-7,-3
1,503,155648,-2202,-16194,-1715,-1,-8,-4
1,504,155653,-2213,-16180,-1724,0,-8,-1
1,505,155658,-2223,-16192,-1740,3,-7,-4
1,506,155663,-2216,-16194,-1700,2,-7,-4
1,507,155668,-2247,-16209,-1710,1,-6,-2
1,508,155673,-2226,-16211,-1693,1,-8,0
1,509,155678,-2222,-16171,-1724,2,-8,-2
1,510,155683,-2246,-16197,-1752,1,-9,-2
1,511,155688,-2251,-16219,-1696,1,-8,-4
1,512,155693,-2246,-16206,-1677,1,-6,-3
1,513,155698,-2225,-16182,-1692,2,-6,-3
1,514,155703,-2237,-16174,-1688,0,-7,-2
1,515,155708,-2223,-16211,-1688,0,-8,-4
1,516,155713,-2252,-16193,-1719,0,-8,-1
1,517,155718,-2234,-16194,-1691,2,-8,-4
1,518,155723,-2274,-16186,-1688,2,-6,-3
1,519,155728,-2212,-16179,-1711,2,-6,-2
1,520,155733,-2218,-16197,-1731,3,-6,-3
1,521,155738,-2242,-16196,-1728,1,-7,-2
1,522,155743,-2246,-16175,-1715,1,-7,-2
1,523,155748,-2259,-16182,-1763,0,-8,-5
1,524,155753,-2215,-16193,-1711,4,-5,-2
1,525,155758,-2185,-16193,-1701,3,-9,-1
1,526,155763,-2228,-16195,-1719,1,-7,-3
1,527,155768,-2225,-16185,-1711,3,-7,-1
1,528,155773,-2245,-16192,-1696,2,-6,-4
1,529,155778,-2224,-16188,-1703,1,-9,-4
1,530,155783,-2242,-16195,-1730,4,-6,-2
1,531,155788,-2234,-16181,-1723,0,-8,-3
1,532,155793,-2239,-16174,-1695,0,-7,-4
1,533,155798,-2225,-16185,-1697,2,-6,-4
1,534,155803,-2228,-16194,-1671,1,-6,-3
1,535,155808,-2254,-16178,-1705,2,-7,-2
1,536,155813,-2258,-16190,-1710,1,-8,-4
1,537,155818,-2240,-16196,-1719,4,-9,-3
1,538,155823,-2242,-16170,-1708,2,-7,-3
1,539,155828,-2209,-16181,-1693,3,-6,-2
1,540,155833,-2210,-16197,-1699,1,-6,-4
1,541,155838,-2236,-16168,-1686,2,-8,-4
1,542,155843,-2276,-16183,-1699,1,-8,-1
1,543,155848,-2225,-16173,-1683,0,-7,-4
1,544,155853,-2266,-16182,-1702,0,-9,-4
1,545,155858,-2221,-16169,-1745,-1,-9,-2
1,546,155863,-2208,-16187,-1694,1,-8,-1
1,547,155868,-2223,-16186,-1715,3,-8,-2
1,548,155873,-2205,-16187,-1744,1,-8,-2
1,549,155878,-2195,-16200,-1682,-2,-6,-3
1,550,155883,-2202,-16175,-1722,2,-4,-3
1,551,155888,-2242,-16180,-1711,3,-10,-3
1,552,155893,-2253,-16193,-1722,1,-9,-4
1,553,155898,-2155,-16190,-1705,1,-5,-3
1,554,155903,-1985,-16158,-1611,-2,-4,-3
1,555,155908,-2176,-16138,-1638,-1,-1,1
1,556,155913,-2268,-16244,-1803,2,-8,0
1,557,155918,-2264,-16194,-1873,1,-12,-2
1,558,155923,-2180,-16175,-1782,-1,-16,4
1,559,155928,-2079,-16216,-1569,-3,-4,3
1,560,155933,-2107,-16159,-1496,4,-1,2
1,561,155938,-2255,-16220,-1743,3,-13,6
1,562,155943,-2467,-16253,-1831,1,-15,2
1,563,155948,-2408,-16225,-1859,3,-14,-1
1,564,155953,-2288,-16188,-1747,1,-8,2
1,565,155958,-2337,-16188,-1637,0,-2,-3
1,566,155963,-2375,-16191,-1678,4,-8,-6
1,567,155968,-2354,-16255,-1854,8,-13,-4
1,568,155973,-2257,-16247,-1982,7,-11,-7
1,569,155978,-2088,-16232,-1896,5,-4,-5
1,570,155983,-1896,-16164,-1875,5,-3,-1
1,571,155988,-1714,-16195,-1873,9,-7,-1
1,572,155993,-1663,-16207,-1898,12,-13,1
1,573,155998,-1808,-16228,-2261,15,-18,6
1,574,156003,-5035,-16195,-1164,15,-15,7
1,575,156008,-9550,-16397,1149,4,-109,-41
1,576,156013,-93,-16082,-7907,28,-295,-54
1,577,156018,6397,-16437,-10502,54,237,53
1,578,156023,-1576,-17176,-4882,49,540,-13
1,579,156028,-8045,-16921,-3357,97,-171,-97
1,580,156033,-4164,-16558,-8451,118,-1035,79
1,581,156038,-590,-15674,1240,64,135,-54
1,582,156043,-2000,-15053,6114,85,277,-89
1,583,156048,-2161,-15999,2528,127,-228,53
1,584,156053,-1069,-16450,-1725,137,-496,63
1,585,156058,-994,-16087,-3514,109,-322,-1
1,586,156063,-2342,-16283,-2145,72,-71,5
1,587,156068,-2490,-16377,-1472,67,-224,26
1,588,156073,-1868,-16183,-2406,95,-566,41
1,589,156078,-1132,-16286,-2172,119,-767,75
1,590,156083,-1576,-16145,-517,100,-793,92
1,591,156088,-2791,-15901,1063,83,-822,69
1,592,156093,-3051,-15724,-47,102,-990,66
1,593,156098,-2430,-16549,-3006,132,-1178,119
1,594,156103,-1443,-16852,-5030,126,-1293,133
1,595,156108,-881,-16541,-4366,103,-1350,118
1,596,156113,-982,-16066,-2399,103,-1467,124
1,597,156118,-1302,-16193,-2109,130,-1655,158
1,598,156123,-1472,-16934,-3310,151,-1729,164
1,599,156128,-4465,-17240,-4108,216,-1553,168
1,600,156133,-2424,-18269,-17336,232,-1407,204
1,601,156138,-3606,-18007,-1760,110,-353,100
1,602,156143,-2097,-15342,-118,120,-546,72
1,603,156148,-528,-15022,4265,193,-968,149
1,604,156153,-1599,-16083,1624,222,-1185,133
1,605,156158,-2271,-16780,-762,252,-1220,128
1,606,156163,-3076,-17024,-2265,228,-1021,131
1,607,156168,-3587,-16850,-1324,231,-978,117
1,608,156173,-2972,-16688,-2126,246,-1165,125
1,609,156178,-2221,-16861,-2413,256,-1217,139
1,610,156183,-2170,-16336,-767,235,-1075,122
1,611,156188,-2056,-15885,101,235,-995,114
1,612,156193,-2751,-15855,1357,244,-943,109
1,613,156198,-2424,-16354,-630,274,-1031,124
1,614,156203,-2829,-16889,-1654,285,-973,116
1,615,156208,-3623,-16787,-1961,281,-856,91
1,616,156213,-4310,-17207,-477,280,-766,78
1,617,156218,-4529,-16832,-1460,284,-726,68
1,618,156223,-4148,-16959,267,291,-648,60
1,619,156228,-3803,-17092,1493,301,-597,36
1,620,156233,-3867,-17133,541,336,-602,25
1,621,156238,-4513,-17446,-832,345,-542,17
1,622,156243,-5244,-17424,-175,341,-470,-7
1,623,156248,-3831,-16835,1880,330,-478,-16
1,624,156253,-2109,-15160,737,341,-555,3
1,625,156258,-3499,-16216,-5070,388,-599,24
1,626,156263,-4749,-18111,444,400,-476,-66
1,627,156268,-3441,-15191,2928,339,-650,-63
1,628,156273,-2832,-15951,2542,386,-709,37
1,629,156278,-4143,-17931,-1713,441,-536,-33
1,630,156283,-3386,-17385,-4189,417,-264,-82
1,631,156288,-2115,-16721,-762,367,-79,-23
1,632,156293,-1781,-16901,1645,387,-150,-29
1,633,156298,-2194,-17030,-163,425,-163,-71
1,634,156303,-3083,-17548,-3418,436,152,-37
1,635,156308,-3995,-17976,-3701,415,689,-42
1,636,156313,-3933,-17614,-398,389,987,-89
1,637,156318,-3126,-17898,2409,401,884,-61
1,638,156323,-2517,-18371,2743,428,652,-22
1,639,156328,-2254,-18342,2176,432,552,-24
1,640,156333,-3305,-18086,2270,417,547,-23
1,641,156338,-4124,-18064,2702,409,363,11
1,642,156343,-3820,-17816,3302,407,20,39
1,643,156348,-2974,-17766,2954,417,-325,71
1,644,156353,-2671,-17852,2172,422,-500,94
1,645,156358,-3289,-17636,1208,411,-496,92
1,646,156363,-4200,-17252,681,397,-447,97
1,647,156368,-3936,-17140,194,395,-451,125
1,648,156373,-3095,-16902,-66,382,-414,141
1,649,156378,-2150,-17099,-220,383,-286,150
1,650,156383,-2395,-17097,244,374,-70,144
1,651,156388,-2993,-16826,467,359,87,152
1,652,156393,-3453,-16714,835,348,171,170
1,653,156398,-2987,-16787,919,343,195,193
1,654,156403,-2617,-16944,1882,327,240,226
1,655,156408,-3261,-16799,2280,319,204,244
1,656,156413,-3715,-16540,2271,314,106,268
1,657,156418,-3656,-16419,2147,306,-2,299
1,658,156423,-3385,-16262,2039,295,-81,324
1,659,156428,-3534,-16099,1962,286,-135,341
1,660,156433,-3944,-15921,1659,279,-195,360
1,661,156438,-4089,-15783,1263,270,-242,388
1,662,156443,-3874,-15723,1228,259,-242,407
1,663,156448,-3585,-15796,1527,247,-207,424
1,664,156453,-3609,-15877,1644,238,-176,436
1,665,156458,-3720,-15791,1434,232,-172,450
1,666,156463,-3731,-15591,1121,228,-176,471
1,667,156468,-3476,-15483,1130,218,-176,497
1,668,156473,-3233,-15297,1330,207,-165,516
1,669,156478,-3304,-15105,1302,201,-148,531
1,670,156483,-3552,-14919,1069,196,-120,546
1,671,156488,-3770,-14841,811,185,-75,568
1,672,156493,-3852,-14753,1046,176,-28,584
1,673,156498,-3695,-14586,1601,165,-6,603
1,674,156503,-3645,-14499,2035,157,-22,625
1,675,156508,-3852,-14551,2298,155,-67,641
1,676,156513,-3999,-14524,2176,148,-128,657
1,677,156518,-4091,-14421,2175,138,-192,681
1,678,156523,-4066,-14364,1994,135,-274,699
1,679,156528,-4282,-14387,1718,131,-346,715
1,680,156533,-4451,-14451,1539,130,-392,732
1,681,156538,-4569,-14464,1358,127,-412,747
1,682,156543,-4582,-14325,1351,118,-409,756
1,683,156548,-4486,-14142,1430,112,-409,766
1,684,156553,-4182,-14037,1435,111,-416,780
1,685,156558,-4015,-14050,1234,112,-424,791
1,686,156563,-3983,-14143,852,111,-410,799
1,687,156568,-4127,-14136,544,110,-361,808
1,688,156573,-4320,-14096,508,107,-287,815
1,689,156578,-4382,-14097,688,104,-200,819
1,690,156583,-4359,-14155,1027,100,-111,826
1,691,156588,-4356,-14311,1240,98,-42,826
1,692,156593,-4744,-14400,1584,94,5,827
1,693,156598,-5096,-14335,1811,91,8,831
1,694,156603,-5259,-14248,2103,86,-22,836
1,695,156608,-5224,-14264,2358,84,-71,844
1,696,156613,-5199,-14325,2558,84,-124,847
1,697,156618,-5386,-14455,2379,82,-176,847
1,698,156623,-5860,-14562,2145,80,-225,844
1,699,156628,-6121,-14580,1952,79,-286,842
1,700,156633,-6033,-14510,1971,73,-329,842
1,701,156638,-5721,-14482,2096,68,-349,836
1,702,156643,-5563,-14465,2215,67,-359,825
1,703,156648,-5552,-14494,1986,68,-367,818
1,704,156653,-5744,-14573,1753,66,-362,808
1,705,156658,-5779,-14551,1593,61,-347,798
1,706,156663,-5638,-14601,1615,56,-317,789
1,707,156668,-5487,-14613,1746,52,-271,780
1,708,156673,-5409,-14659,1792,54,-241,769
1,709,156678,-5403,-14656,1680,50,-228,756
1,710,156683,-5426,-14661,1658,46,-222,752
1,711,156688,-5685,-14909,1822,48,-227,752
1,712,156693,-5293,-14667,1837,45,-259,719
1,713,156698,-5494,-15267,1678,38,-291,734
1,714,156703,-5688,-15730,1648,54,-313,704
1,715,156708,-5726,-14846,1479,37,-322,651
1,716,156713,-6392,-16056,1678,52,-373,718
1,717,156718,-6000,-15417,1177,49,-430,661
1,718,156723,-5934,-15486,1458,56,-450,655
1,719,156728,-5871,-15570,1632,47,-465,646
1,720,156733,-5881,-15489,1764,53,-478,619
1,721,156738,-5966,-15307,1319,54,-495,599
1,722,156743,-5609,-15261,1001,53,-479,590
1,723,156748,-5614,-15362,1181,51,-439,579
1,724,156753,-5303,-15315,1125,50,-408,557
1,725,156758,-5439,-15358,872,51,-357,538
1,726,156763,-5521,-15530,404,51,-269,519
1,727,156768,-5838,-15527,902,43,-27,470
1,728,156773,-6048,-15586,1174,41,39,449
1,729,156778,-6099,-15514,1421,40,90,420
1,730,156783,-6239,-15647,1699,37,118,408
1,731,156788,-6369,-15722,2094,35,110,385
1,732,156793,-6479,-15478,2448,29,62,354
1,733,156798,-6574,-15433,2737,26,-16,344
1,734,156803,-6702,-15394,2917,26,-100,328
1,735,156808,-6736,-15256,2541,25,-178,301
1,736,156813,-6741,-15263,2498,17,-238,283
1,737,156818,-6683,-15376,2500,11,-306,267
1,738,156823,-6557,-15337,2535,8,-371,239
1,739,156828,-6497,-15337,2247,6,-427,216
1,740,156833,-6581,-15359,1679,6,-455,197
1,741,156838,-6476,-15287,1252,2,-441,171
1,742,156843,-6070,-15376,1099,-3,-405,155
1,743,156848,-5741,-15511,1233,-8,-355,128
1,744,156853,-5801,-15647,1152,-10,-293,96
1,745,156858,-6221,-15678,879,-9,-213,64
1,746,156863,-6491,-15718,626,-14,-122,40
1,747,156868,-6394,-15616,876,-21,-30,14
1,748,156873,-6064,-15626,1533,-20,35,-7
1,749,156878,-5812,-15631,1999,-22,49,-31
1,750,156883,-5939,-15478,2236,-23,25,-53
1,751,156888,-6356,-15340,2253,-19,-31,-75
1,752,156893,-6728,-15099,2303,-28,-87,-100
1,753,156898,-6667,-14925,2439,-35,-145,-115
1,754,156903,-6354,-14776,2565,-38,-188,-130
1,755,156908,-5958,-14852,2592,-38,-236,-152
1,756,156913,-5839,-14959,2496,-42,-280,-172
1,757,156918,-6023,-15042,2206,-47,-315,-195
1,758,156923,-6270,-15090,1881,-50,-325,-218
1,759,156928,-6271,-15180,1614,-57,-306,-240
1,760,156933,-6100,-15228,1532,-65,-269,-262
1,761,156938,-5840,-15223,1517,-69,-221,-287
1,762,156943,-5841,-15224,1495,-70,-171,-312
1,763,156948,-5875,-15222,1378,-70,-137,-330
1,764,156953,-5776,-15233,1350,-76,-100,-352
1,765,156958,-5516,-15305,1287,-74,-62,-368
1,766,156963,-5296,-15393,1262,-76,-11,-392
1,767,156968,-5384,-15347,1210,-82,49,-417
1,768,156973,-5741,-15287,1255,-81,106,-435
1,769,156978,-6045,-15211,1394,-80,139,-451
1,770,156983,-5839,-15267,1687,-83,146,-465
1,771,156988,-5379,-15276,2039,-83,130,-479
1,772,156993,-5233,-15191,2550,-86,95,-496
1,773,156998,-5757,-15136,2693,-90,23,-516
1,774,157003,-6338,-15211,2348,-90,-61,-529
1,775,157008,-6367,-15340,1895,-91,-112,-539
1,776,157013,-5930,-15447,1915,-94,-122,-551
1,777,157018,-5612,-15463,2260,-99,-124,-572
1,778,157023,-5700,-15503,2327,-101,-164,-592
1,779,157028,-5800,-15518,1863,-101,-211,-605
1,780,157033,-5720,-15535,1295,-104,-213,-619
1,781,157038,-5708,-15557,1281,-112,-175,-636
1,782,157043,-5604,-15650,1464,-118,-139,-654
1,783,157048,-5445,-15622,1468,-114,-123,-670
1,784,157053,-5254,-15524,1184,-109,-111,-675
1,785,157058,-4994,-15405,880,-111,-87,-686
1,786,157063,-4583,-15419,797,-113,-62,-694
1,787,157068,-4308,-15647,851,-113,-43,-698
1,788,157073,-4230,-15808,782,-115,-13,-707
1,789,157078,-4492,-15851,520,-113,50,-718
1,790,157083,-4821,-15943,236,-110,145,-730
1,791,157088,-4865,-16060,292,-108,246,-738
1,792,157093,-4605,-16092,704,-109,317,-744
1,793,157098,-4384,-16117,1197,-110,345,-751
1,794,157103,-4446,-16071,1464,-105,339,-758
1,795,157108,-4649,-15951,1481,-102,313,-764
1,796,157113,-4820,-16015,1458,-101,279,-763
1,797,157118,-4791,-16085,1556,-97,236,-764
1,798,157123,-4678,-16134,1625,-94,191,-765
1,799,157128,-4622,-16131,1675,-94,144,-768
1,800,157133,-4598,-16075,1519,-91,100,-769
1,801,157138,-4510,-16059,1155,-90,58,-770
1,802,157143,-4558,-15996,1056,-93,69,-772
1,803,157148,-4710,-15849,1091,-91,96,-773
1,804,157153,-4544,-15907,1152,-88,128,-770
1,805,157158,-4072,-16024,1194,-87,150,-770
1,806,157163,-3656,-16100,1375,-89,149,-773
1,807,157168,-3768,-16123,1568,-88,126,-776
1,808,157173,-4115,-16189,1223,-83,91,-774
1,809,157178,-4261,-16271,614,-82,86,-768
1,810,157183,-4127,-16334,317,-83,136,-766
1,811,157188,-3973,-16424,650,-83,212,-770
1,812,157193,-3914,-16480,984,-82,251,-777
1,813,157198,-4005,-16373,1000,-74,264,-780
1,814,157203,-4125,-16225,872,-71,277,-780
1,815,157208,-4191,-16135,1064,-72,303,-783
1,816,157213,-4154,-16091,1351,-73,327,-785
1,817,157218,-4032,-16110,1482,-73,338,-785
1,818,157223,-4046,-15990,1472,-72,344,-787
1,819,157228,-4245,-15877,1552,-68,346,-792
1,820,157233,-4432,-15741,1713,-70,344,-794
1,821,157238,-4532,-15637,1972,-73,329,-795
1,822,157243,-4463,-15678,2119,-74,310,-793
1,823,157248,-4076,-15714,2151,-71,283,-793
1,824,157253,-3675,-15782,2350,-73,232,-795
1,825,157258,-3820,-15797,2722,-79,146,-796
1,826,157263,-4283,-15840,2709,-80,26,-797
1,827,157268,-4388,-15907,2046,-76,-68,-793
1,828,157273,-4164,-16050,1458,-80,-90,-792
1,829,157278,-3934,-16104,1613,-92,-67,-802
1,830,157283,-3932,-16094,2048,-94,-81,-812
1,831,157288,-3991,-16076,1998,-89,-140,-813
1,832,157293,-3994,-16135,1349,-85,-185,-813
1,833,157298,-4028,-16126,1104,-94,-148,-820
1,834,157303,-3771,-16101,1433,-101,-108,-826
1,835,157308,-3549,-16056,1831,-105,-103,-833
1,836,157313,-3121,-16085,1562,-97,-141,-826
1,837,157318,-2940,-16196,1131,-99,-143,-831
1,838,157323,-2877,-16316,833,-101,-93,-836
1,839,157328,-2909,-16400,840,-107,-24,-837
1,840,157333,-2877,-16489,726,-107,33,-840
1,841,157338,-2754,-16516,643,-104,82,-844
1,842,157343,-2809,-16447,845,-105,136,-848
1,843,157348,-2942,-16420,994,-101,187,-850
1,844,157353,-2776,-16432,1318,-98,211,-849
1,845,157358,-2744,-16272,1967,-100,196,-849
1,846,157363,-2902,-16206,2483,-97,122,-842
1,847,157368,-2624,-16250,2513,-90,0,-836
1,848,157373,-2070,-16292,2358,-89,-127,-828
1,849,157378,-2021,-16236,2520,-92,-238,-824
1,850,157383,-2498,-16220,2511,-90,-361,-816
1,851,157388,-2736,-16291,1729,-86,-468,-808
1,852,157393,-2552,-16291,871,-87,-494,-801
1,853,157398,-2194,-16325,860,-94,-445,-804
1,854,157403,-2139,-16293,1299,-96,-389,-811
1,855,157408,-2045,-16290,1264,-92,-374,-810
1,856,157413,-1880,-16186,910,-92,-353,-807
1,857,157418,-1468,-16174,678,-92,-302,-803
1,858,157423,-1230,-16136,1040,-96,-231,-799
1,859,157428,-1032,-16232,1141,-91,-202,-797
1,860,157433,-1027,-16298,785,-89,-174,-792
1,861,157438,-1081,-16305,415,-85,-124,-784
1,862,157443,-1136,-16425,439,-83,-37,-787
1,863,157448,-995,-16487,646,-83,42,-788
1,864,157453,-763,-16385,883,-80,94,-783
1,865,157458,-687,-16282,1061,-74,118,-781
1,866,157463,-803,-16174,1098,-70,124,-777
1,867,157468,-861,-16145,1135,-65,125,-768
1,868,157473,-778,-16060,1180,-66,130,-762
1,869,157478,-712,-16075,1288,-64,135,-758
1,870,157483,-802,-16136,1430,-60,124,-754
1,871,157488,-744,-16101,1433,-58,98,-749
1,872,157493,-560,-15959,1411,-58,66,-742
1,873,157498,-341,-15928,1342,-57,42,-735
1,874,157503,-106,-16026,1346,-56,2,-726
1,875,157508,-95,-16047,1030,-57,0,-720
1,876,157513,-173,-16121,808,-56,35,-724
1,877,157518,-418,-16117,932,-57,94,-725
1,878,157523,-410,-16100,1085,-57,130,-720
1,879,157528,-27,-16132,1169,-57,147,-718
1,880,157533,271,-16139,1193,-58,153,-715
1,881,157538,252,-16194,1529,-62,139,-711
1,882,157543,280,-15923,1587,-58,91,-707
1,883,157548,1797,-15683,-2647,-41,71,-679
1,884,157553,-4278,-26990,-30088,124,798,-836
1,885,157558,-32768,-6930,-10756,-150,4349,-509
1,886,157563,-18215,-10563,27286,56,7679,275
1,887,157568,20388,-10061,32767,222,6459,109
1,888,157573,32767,-20804,26476,543,2362,96
1,889,157578,6353,-18969,18859,319,-710,-236
1,890,157583,-32768,-8948,19546,197,-4482,-45
1,891,157588,-26903,-9818,-9190,386,-8176,1252
1,892,157593,9396,-17082,-28125,294,-5335,1349
1,893,157598,32767,-22448,-17708,182,498,287
1,894,157603,10702,-20152,17935,-49,3165,-668
1,895,157608,-27505,-11180,29795,103,156,-597
1,896,157613,-23541,-12690,-14963,596,-5271,865
1,897,157618,6898,-20072,-32768,382,-3513,1076
1,898,157623,18352,-19651,-12886,97,2210,28
1,899,157628,10228,-19038,19012,-31,4793,-592
1,900,157633,-11417,-13600,29360,10,2675,-504
1,901,157638,-12381,-13329,-404,414,-2039,446
1,902,157643,3223,-18090,-21681,386,-2901,819
1,903,157648,7256,-16527,-5393,105,510,128
1,904,157653,4654,-16693,15242,80,2395,-189
1,905,157658,-2901,-15347,19734,125,1451,-121
1,906,157663,-3849,-14467,-1521,314,-1065,221
1,907,157668,-64,-16235,-12046,288,-1841,450
1,908,157673,1560,-16562,-2808,63,-619,201
1,909,157678,864,-15595,8903,66,507,0
1,910,157683,1166,-16697,5345,194,547,88
1,911,157688,-170,-17057,-3368,227,329,128
1,912,157693,-639,-16232,-4694,153,86,105
1,913,157698,-1123,-15768,3540,78,-33,109
1,914,157703,246,-16208,6887,111,-202,137
1,915,157708,1725,-16639,2106,182,-46,130
1,916,157713,1059,-16717,-2895,184,367,96
1,917,157718,-1059,-16267,479,115,528,60
1,918,157723,-1911,-15536,5637,78,-6,80
1,919,157728,-2,-15948,4356,134,-679,156
1,920,157733,1597,-16781,-372,163,-598,167
1,921,157738,949,-17076,-2121,135,63,92
1,922,157743,-1215,-16332,1684,86,451,29
1,923,157748,-1375,-15906,4049,87,55,73
1,924,157753,268,-16293,2136,126,-466,139
1,925,157758,1741,-16820,-287,126,-430,130
1,926,157763,1000,-16772,70,99,34,73
1,927,157768,-661,-16398,1921,75,291,43
1,928,157773,-814,-16187,2343,80,99,75
1,929,157778,320,-16573,710,101,-168,111
1,930,157783,925,-16974,237,102,-128,101
1,931,157788,321,-17000,1198,83,100,61
1,932,157793,-877,-16762,1954,68,234,48
1,933,157798,-863,-16522,1503,70,162,64
1,934,157803,-98,-16636,948,79,60,79
1,935,157808,391,-16735,1593,74,36,67
1,936,157813,70,-16690,2432,68,34,56
1,937,157818,-706,-16599,2054,68,8,55
1,938,157823,-876,-16547,1183,68,-11,58
1,939,157828,-495,-16520,1186,59,-4,61
1,940,157833,-18,-16441,1960,48,-22,54
1,941,157838,-22,-16451,2375,49,-76,48
1,942,157843,-316,-16456,1822,53,-109,51
1,943,157848,-512,-16386,1222,49,-81,47
1,944,157853,-430,-16289,1440,38,-28,43
1,945,157858,-91,-16241,1914,32,-24,41
1,946,157863,135,-16288,1967,29,-47,42
1,947,157868,-57,-16193,1563,19,11,35
1,948,157873,-70,-16147,1663,10,63,31
1,949,157878,106,-16111,1705,4,98,34
1,950,157883,223,-16235,1607,-4,128,34
1,951,157888,78,-16608,1453,-5,164,30
1,952,157893,-173,-16760,1280,-3,203,23
1,953,157898,-478,-16804,1200,-15,232,21
1,954,157903,-538,-16897,1389,-16,251,19
1,955,157908,-471,-16822,1704,-20,254,16
1,956,157913,-284,-16701,2102,-24,235,14
1,957,157918,-271,-16649,2239,-25,188,13
1,958,157923,-439,-16590,2254,-26,119,13
1,959,157928,-581,-16515,2180,-30,42,16
1,960,157933,-563,-16465,2028,-35,-28,20
1,961,157938,-469,-16459,1987,-40,-83,21
1,962,157943,-372,-16397,1966,-44,-121,23
1,963,157948,-310,-16400,1753,-47,-138,22
1,964,157953,-319,-16415,1480,-47,-134,17
1,965,157958,-357,-16452,1284,-51,-111,15
1,966,157963,-318,-16468,1302,-60,-69,13
1,967,157968,-134,-16483,1324,-63,-27,10
1,968,157973,-48,-16559,1408,-69,11,8
1,969,157978,-52,-16554,1459,-70,41,5
1,970,157983,-40,-16592,1495,-74,66,4
1,971,157988,-12,-16536,1494,-79,85,4
1,972,157993,17,-16551,1468,-78,97,7
1,973,157998,-46,-16694,1373,-80,109,10
1,974,158003,-231,-16746,1235,-82,114,4
1,975,158008,-367,-16769,1185,-80,110,3
1,976,158013,-485,-16762,1240,-84,102,6
1,977,158018,-595,-16756,1296,-83,92,4
1,978,158023,-549,-16696,1444,-81,77,4
1,979,158028,-490,-16621,1551,-82,51,6
1,980,158033,-446,-16566,1625,-84,25,7
1,981,158038,-628,-16512,1594,-82,-1,2
1,982,158043,-801,-16488,1472,-84,-27,3
1,983,158048,-824,-16478,1357,-85,-46,2
1,984,158053,-770,-16444,1484,-86,-52,3
1,985,158058,-681,-16406,1687,-88,-54,1
1,986,158063,-604,-16430,1811,-87,-60,-3
1,987,158068,-530,-16423,1783,-85,-67,-5
1,988,158073,-409,-16375,1632,-89,-66,-3
1,989,158078,-305,-16353,1619,-95,-61,-3
1,990,158083,-243,-16351,1712,-97,-67,-2
1,991,158088,-282,-16381,1691,-95,-80,-4
1,992,158093,-199,-16372,1536,-95,-78,-2
1,993,158098,-183,-16350,1464,-99,-58,-1
1,994,158103,-219,-16307,1549,-101,-36,-1
1,995,158108,-315,-16268,1471,-101,-28,-1
1,996,158113,-361,-16300,1176,-98,-26,-1
1,997,158118,-369,-16307,1071,-97,-21,0
1,998,158123,-313,-16274,1138,-103,-12,4
1,999,158128,-259,-16319,1199,-99,1,4
2,0,160428,-607,-16430,1485,-8,-16,-11
2,1,160433,-593,-16451,1521,-12,-16,-13
2,2,160438,-574,-16466,1501,-11,-16,-12
2,3,160443,-637,-16513,1360,-11,-18,-12
2,4,160449,-657,-16531,1303,-9,-13,-20
2,5,160453,-672,-16523,1341,-10,-4,-17
2,6,160458,-592,-16497,1453,-11,2,-19
2,7,160463,-526,-16449,1485,-11,3,-20
2,8,160468,-478,-16439,1512,-11,6,-20
2,9,160473,-492,-16446,1488,-11,5,-21
2,10,160478,-540,-16420,1504,-11,6,-21
2,11,160483,-560,-16411,1477,-11,13,-22
2,12,160488,-622,-16470,1391,-15,17,-22
2,13,160493,-642,-16505,1331,-14,26,-24
2,14,160498,-626,-16544,1330,-13,33,-25
2,15,160503,-691,-16552,1361,-14,36,-27
2,16,160509,-624,-16526,1462,-13,37,-27
2,17,160513,-630,-16546,1461,-11,34,-27
2,18,160518,-659,-16561,1530,-12,30,-25
2,19,160523,-697,-16540,1541,-14,24,-27
2,20,160528,-704,-16518,1523,-14,16,-30
2,21,160533,-670,-16523,1630,-17,4,-31
2,22,160538,-705,-16507,1606,-17,-7,-27
2,23,160543,-742,-16529,1566,-12,-16,-31
2,24,160548,-752,-16526,1489,-13,-18,-32
2,25,160553,-721,-16482,1527,-13,-23,-32
2,26,160558,-659,-16448,1585,-12,-31,-31
2,27,160563,-615,-16403,1617,-14,-39,-35
2,28,160569,-600,-16393,1552,-16,-44,-37
2,29,160573,-610,-16421,1413,-14,-43,-36
2,30,160578,-626,-16436,1326,-13,-38,-35
2,31,160583,-562,-16380,1323,-14,-34,-38
2,32,160588,-531,-16395,1349,-14,-29,-37
2,33,160593,-502,-16363,1345,-14,-21,-38
2,34,160598,-407,-16345,1282,-14,-6,-40
2,35,160603,-402,-16384,1274,-15,6,-39
2,36,160608,-446,-16407,1275,-16,16,-40
2,37,160613,-463,-16414,1279,-13,20,-41
2,38,160618,-479,-16487,1368,-13,24,-40
2,39,160623,-510,-16484,1368,-13,27,-42
2,40,160629,-492,-16486,1341,-13,35,-42
2,41,160633,-537,-16475,1417,-11,34,-39
2,42,160638,-522,-16458,1381,-10,27,-39
2,43,160643,-547,-16488,1398,-12,20,-41
2,44,160648,-644,-16552,1389,-10,14,-42
2,45,160653,-704,-16533,1391,-8,8,-41
2,46,160658,-718,-16451,1484,-7,1,-40
2,47,160663,-714,-16417,1555,-8,-6,-41
2,48,160668,-616,-16383,1576,-8,-17,-41
2,49,160673,-527,-16318,1596,-9,-31,-40
2,50,160678,-518,-16289,1592,-8,-46,-41
2,51,160683,-556,-16311,1475,-7,-56,-40
2,52,160688,-582,-16316,1407,-8,-59,-41
2,53,160693,-504,-16304,1394,-8,-52,-43
2,54,160698,-417,-16276,1412,-9,-43,-42
2,55,160703,-391,-16236,1367,-8,-33,-40
2,56,160708,-368,-16289,1363,-7,-22,-42
2,57,160713,-377,-16339,1344,-8,-10,-43
2,58,160718,-390,-16358,1310,-10,4,-43
2,59,160723,-385,-16415,1282,-11,14,-43
2,60,160728,-398,-16445,1232,-7,22,-42
2,61,160733,-431,-16436,1233,-5,27,-39
2,62,160738,-393,-16432,1337,-7,35,-40
2,63,160743,-437,-16453,1364,-6,41,-41
2,64,160748,-414,-16451,1347,-6,45,-40
2,65,160753,-456,-16463,1339,-6,45,-36
2,66,160758,-541,-16528,1303,-5,48,-38
2,67,160763,-646,-16580,1297,0,43,-37
2,68,160768,-640,-16558,1363,0,30,-37
2,69,160773,-589,-16482,1529,-3,15,-38
2,70,160778,-456,-16475,1639,-3,-3,-36
2,71,160783,-395,-16474,1570,0,-21,-35
2,72,160788,-419,-16446,1540,-1,-36,-35
2,73,160793,-550,-16486,1444,2,-60,-33
2,74,160798,-593,-16489,1318,-1,-57,-31
2,75,160803,-595,-16463,1295,0,-41,-30
2,76,160808,-573,-16478,1262,1,-21,-34
2,77,160813,-513,-16443,1313,1,-6,-34
2,78,160818,-449,-16422,1421,-2,6,-33
2,79,160823,-430,-16394,1450,-3,12,-32
2,80,160828,-452,-16387,1426,-3,19,-34
2,81,160833,-508,-16376,1417,-2,27,-33
2,82,160838,-503,-16435,1372,-3,34,-31
2,83,160843,-488,-16441,1390,-5,34,-33
2,84,160848,-434,-16472,1415,-4,28,-32
2,85,160853,-475,-16518,1370,-6,26,-32
2,86,160858,-556,-16483,1327,-7,28,-30
2,87,160863,-607,-16508,1310,-3,26,-29
2,88,160868,-601,-16515,1326,-1,25,-31
2,89,160873,-537,-16535,1386,-3,21,-29
2,90,160878,-453,-16523,1547,-3,13,-28
2,91,160883,-412,-16450,1590,0,-2,-24
2,92,160888,-480,-16449,1501,-1,-12,-24
2,93,160893,-538,-16431,1410,-6,-20,-24
2,94,160898,-508,-16460,1351,-4,-22,-25
2,95,160903,-517,-16452,1324,-3,-23,-21
2,96,160908,-480,-16467,1333,-3,-23,-22
2,97,160913,-521,-16459,1392,-3,-21,-22
2,98,160918,-495,-16417,1393,-2,-18,-22
2,99,160923,-435,-16360,1429,-3,-11,-20
2,100,160928,-374,-16361,1434,-4,-2,-22
2,101,160933,-387,-16339,1488,-5,-3,-22
2,102,160938,-407,-16361,1460,-5,-11,-23
2,103,160943,-376,-16375,1418,-6,-15,-19
2,104,160948,-388,-16383,1425,-6,-12,-16
2,105,160953,-367,-16408,1402,-4,-7,-17
2,106,160958,-352,-16372,1385,-7,-2,-17
2,107,160963,-310,-16407,1298,-9,0,-13
2,108,160968,-324,-16447,1233,-6,-1,-12
2,109,160973,-361,-16497,1228,-5,0,-12
2,110,160978,-396,-16471,1222,-4,2,-10
2,111,160983,-412,-16449,1263,-3,7,-12
2,112,160988,-426,-16433,1275,-2,5,-9
2,113,160993,-378,-16442,1312,-3,0,-7
2,114,160998,-324,-16438,1346,-1,-7,-7
2,115,161003,-354,-16401,1412,0,-16,-6
2,116,161008,-389,-16362,1377,-1,-21,-6
2,117,161013,-452,-16388,1298,-2,-23,-6
2,118,161018,-444,-16422,1290,-2,-20,-4
2,119,161023,-399,-16386,1298,-1,-16,-4
2,120,161028,-352,-16390,1371,0,-11,-2
2,121,161033,-344,-16382,1377,0,-6,-2
2,122,161038,-352,-16383,1393,1,-4,-2
2,123,161043,-386,-16402,1442,-3,-4,1
2,124,161048,-414,-16425,1388,-3,3,1
2,125,161053,-434,-16460,1305,-2,8,2
2,126,161058,-485,-16486,1326,-1,15,2
2,127,161063,-501,-16535,1290,-1,15,1
2,128,161068,-505,-16522,1363,-1,13,2
2,129,161073,-505,-16502,1413,-2,8,1
2,130,161078,-466,-16472,1416,0,5,3
2,131,161083,-483,-16442,1435,0,-2,3
2,132,161088,-500,-16428,1487,1,-14,3
2,133,161093,-566,-16492,1454,2,-26,4
2,134,161098,-521,-16462,1380,2,-37,5
2,135,161103,-494,-16458,1375,3,-44,7
2,136,161108,-462,-16434,1437,2,-50,6
2,137,161113,-453,-16361,1482,2,-53,4
2,138,161118,-412,-16336,1463,1,-56,8
2,139,161123,-415,-16318,1421,2,-55,8
2,140,161128,-401,-16355,1335,4,-50,9
2,141,161133,-388,-16355,1293,0,-44,7
2,142,161138,-399,-16373,1313,2,-32,8
2,143,161143,-389,-16347,1295,1,-24,10
2,144,161148,-319,-16347,1272,1,-14,11
2,145,161153,-300,-16323,1287,5,-1,9
2,146,161158,-368,-16353,1375,3,9,6
2,147,161163,-385,-16404,1300,3,11,9
2,148,161168,-393,-16437,1265,3,13,9
2,149,161173,-390,-16429,1337,3,13,11
2,150,161178,-394,-16421,1375,2,11,13
2,151,161183,-365,-16411,1406,3,9,13
2,152,161188,-406,-16418,1444,4,2,15
2,153,161193,-436,-16442,1432,3,-3,13
2,154,161198,-490,-16434,1411,4,-9,11
2,155,161203,-472,-16437,1422,5,-17,16
2,156,161208,-440,-16420,1458,5,-23,14
2,157,161213,-401,-16437,1473,4,-27,10
2,158,161218,-389,-16424,1384,4,-33,14
2,159,161223,-405,-16418,1369,4,-32,15
2,160,161228,-402,-16373,1378,4,-34,16
2,161,161233,-372,-16390,1367,3,-34,19
2,162,161238,-383,-16407,1336,3,-33,17
2,163,161243,-392,-16391,1367,4,-24,18
2,164,161248,-407,-16391,1280,3,-11,15
2,165,161253,-417,-16431,1301,3,0,16
2,166,161258,-412,-16420,1338,3,8,15
2,167,161263,-415,-16406,1383,2,18,15
2,168,161268,-409,-16462,1391,1,21,16
2,169,161273,-463,-16479,1411,2,24,14
2,170,161278,-523,-16512,1402,2,26,16
2,171,161283,-541,-16531,1364,2,22,16
2,172,161288,-482,-16546,1400,3,14,16
2,173,161293,-473,-16562,1461,1,7,16
2,174,161298,-458,-16569,1444,-1,-7,17
2,175,161303,-492,-16592,1365,-1,-15,17
2,176,161308,-586,-16644,1334,6,-22,17
2,177,161313,-589,-16623,1361,6,-30,18
2,178,161318,-514,-16546,1453,3,-39,18
2,179,161323,-414,-16563,1466,4,-50,18
2,180,161328,-409,-16538,1434,4,-59,17
2,181,161333,-418,-16525,1360,7,-63,20
2,182,161338,-420,-16542,1268,5,-60,21
2,183,161343,-406,-16504,1275,5,-54,20
2,184,161348,-384,-16519,1325,5,-44,21
2,185,161353,-368,-16489,1280,3,-32,22
2,186,161358,-370,-16485,1246,4,-10,20
2,187,161363,-377,-16493,1216,3,12,20
2,188,161368,-368,-16408,1311,1,29,18
2,189,161373,-355,-16445,1376,2,38,19
2,190,161378,-350,-16461,1377,5,44,20
2,191,161383,-403,-16492,1311,2,41,18
2,192,161388,-475,-16530,1309,2,40,18
2,193,161393,-598,-16571,1395,5,37,18
2,194,161398,-593,-16632,1505,4,28,16
2,195,161403,-619,-16627,1567,5,7,18
2,196,161408,-614,-16598,1576,7,-10,18
2,197,161413,-592,-16555,1609,5,-26,17
2,198,161418,-608,-16518,1608,6,-45,17
2,199,161423,-604,-16503,1588,7,-66,16
2,200,161428,-611,-16461,1610,8,-87,20
2,201,161433,-561,-16471,1518,6,-95,20
2,202,161438,-539,-16476,1458,5,-97,16
2,203,161443,-544,-16485,1415,7,-92,16
2,204,161448,-511,-16468,1366,5,-81,14
2,205,161453,-445,-16440,1425,4,-75,13
2,206,161458,-376,-16411,1410,6,-74,12
2,207,161463,-344,-16426,1414,10,-70,13
2,208,161468,-324,-16453,1365,8,-59,12
2,209,161473,-328,-16428,1310,8,-44,11
2,210,161478,-397,-16433,1335,6,-30,10
2,211,161483,-408,-16435,1300,7,-18,8
2,212,161488,-368,-16420,1375,9,-9,7
2,213,161493,-371,-16451,1438,8,-2,7
2,214,161498,-385,-16462,1469,7,2,7
2,215,161503,-457,-16477,1410,10,4,7
2,216,161508,-473,-16496,1391,11,-2,7
2,217,161513,-447,-16519,1407,12,-8,7
2,218,161518,-460,-16490,1461,10,-12,6
2,219,161523,-474,-16491,1387,14,-22,2
2,220,161528,-510,-16471,1370,13,-23,3
2,221,161533,-529,-16412,1402,12,-21,4
2,222,161538,-483,-16393,1435,11,-20,1
2,223,161543,-458,-16404,1456,14,-22,1
2,224,161548,-466,-16401,1473,15,-24,-1
2,225,161553,-518,-16367,1442,13,-17,-3
2,226,161558,-495,-16356,1446,13,-13,-2
2,227,161563,-493,-16361,1459,14,-14,-3
2,228,161568,-468,-16352,1477,14,-15,-4
2,229,161573,-419,-16339,1473,15,-17,-2
2,230,161578,-446,-16335,1415,15,-20,-4
2,231,161583,-494,-16342,1381,15,-12,-5
2,232,161588,-512,-16378,1398,16,-6,-7
2,233,161593,-470,-16370,1371,16,-3,-6
2,234,161598,-460,-16407,1400,17,4,-8
2,235,161603,-472,-16432,1435,16,9,-8
2,236,161608,-454,-16429,1404,17,12,-11
2,237,161613,-493,-16427,1372,16,13,-10
2,238,161618,-513,-16405,1396,16,14,-9
2,239,161623,-496,-16393,1408,17,13,-13
2,240,161628,-485,-16449,1389,19,7,-12
2,241,161633,-526,-16483,1414,21,0,-13
2,242,161638,-500,-16450,1418,18,-4,-14
2,243,161643,-540,-16447,1457,20,-15,-15
2,244,161648,-488,-16395,1466,22,-26,-14
2,245,161653,-468,-16371,1462,22,-30,-12
2,246,161658,-490,-16356,1449,22,-32,-14
2,247,161663,-520,-16366,1428,21,-33,-13
2,248,161668,-556,-16431,1387,18,-23,-16
2,249,161673,-570,-16426,1347,20,-16,-12
2,250,161678,-568,-16439,1331,21,-6,-14
2,251,161683,-554,-16430,1359,21,10,-16
2,252,161688,-551,-16402,1464,19,21,-17
2,253,161693,-577,-16443,1448,18,30,-19
2,254,161698,-547,-16379,1419,17,32,-20
2,255,161703,-517,-16389,1484,19,27,-19
2,256,161708,-461,-16395,1499,20,21,-21
2,257,161713,-492,-16475,1533,20,11,-17
2,258,161718,-524,-16454,1532,20,0,-20
2,259,161723,-515,-16380,1543,20,-14,-20
2,260,161728,-466,-16395,1527,18,-25,-19
2,261,161733,-433,-16368,1532,18,-34,-18
2,262,161738,-438,-16363,1478,17,-43,-17
2,263,161743,-418,-16376,1423,14,-50,-16
2,264,161748,-464,-16437,1351,17,-51,-17
2,265,161753,-560,-16450,1299,16,-42,-18
2,266,161758,-599,-16455,1258,16,-33,-19
2,267,161763,-556,-16455,1291,16,-21,-19
2,268,161768,-482,-16438,1402,16,-14,-19
2,269,161773,-368,-16396,1454,16,-11,-17
2,270,161778,-323,-16342,1492,14,-11,-19
2,271,161783,-353,-16308,1469,13,-14,-18
2,272,161788,-396,-16289,1429,13,-17,-13
2,273,161793,-397,-16283,1365,11,-15,-12
2,274,161798,-381,-16324,1439,12,-14,-13
2,275,161803,-384,-16319,1400,13,-11,-11
2,276,161808,-371,-16352,1457,10,-8,-12
2,277,161813,-391,-16373,1482,7,-3,-11
2,278,161818,-361,-16364,1433,10,2,-13
2,279,161823,-363,-16355,1378,8,6,-10
2,280,161828,-406,-16440,1416,4,12,-8
2,281,161833,-474,-16509,1380,5,18,-11
2,282,161838,-497,-16575,1386,5,22,-9
2,283,161843,-533,-16582,1442,4,20,-6
2,284,161848,-569,-16560,1480,2,14,-6
2,285,161853,-574,-16554,1527,5,3,-7
2,286,161858,-539,-16540,1539,2,-12,-5
2,287,161863,-470,-16481,1543,1,-28,-6
2,288,161868,-505,-16459,1493,3,-43,-6
2,289,161873,-493,-16492,1534,1,-53,-3
2,290,161878,-521,-16505,1443,1,-56,-3
2,291,161883,-508,-16455,1328,0,-51,-3
2,292,161888,-421,-16465,1295,2,-42,-1
2,293,161893,-360,-16443,1349,-7,-13,-2
2,294,161898,-406,-16372,1312,-3,-5,-1
2,295,161903,-383,-16389,1287,-4,7,0
2,296,161908,-377,-16404,1313,-8,23,-2
2,297,161913,-341,-16383,1405,-7,36,0
2,298,161918,-329,-16403,1402,-7,43,0
2,299,161923,-422,-16453,1402,-7,45,2
2,300,161928,-489,-16517,1324,-7,47,3
2,301,161933,-533,-16504,1381,-8,40,4
2,302,161938,-501,-16451,1529,-10,29,4
2,303,161943,-433,-16423,1627,-8,16,6
2,304,161948,-419,-16473,1585,-7,-4,7
2,305,161953,-462,-16492,1500,-8,-18,6
2,306,161958,-495,-16479,1445,-9,-32,9
2,307,161963,-512,-16416,1501,-12,-46,7
2,308,161968,-489,-16418,1426,-11,-52,10
2,309,161973,-451,-16423,1366,-8,-52,12
2,310,161978,-397,-16387,1342,-11,-43,11
2,311,161983,-381,-16301,1332,-10,-39,9
2,312,161988,-368,-16292,1377,-13,-32,8
2,313,161993,-309,-16317,1322,-12,-25,11
2,314,161998,-296,-16314,1326,-11,-18,13
2,315,162003,-264,-16299,1353,-12,-4,13
2,316,162008,-315,-16311,1369,-13,9,13
2,317,162013,-346,-16332,1365,-14,21,13
2,318,162018,-352,-16322,1318,-13,33,14
2,319,162023,-413,-16362,1295,-13,45,16
2,320,162028,-484,-16416,1291,-14,55,12
2,321,162033,-490,-16487,1309,-11,60,17
2,322,162038,-561,-16536,1338,-11,62,14
2,323,162043,-594,-16508,1419,-12,58,13
2,324,162048,-583,-16468,1467,-12,49,14
2,325,162053,-606,-16463,1505,-13,33,15
2,326,162058,-627,-16416,1598,-12,12,15
2,327,162063,-585,-16400,1638,-12,-10,16
2,328,162068,-606,-16381,1597,-10,-30,17
2,329,162073,-672,-16367,1523,-8,-42,19
2,330,162078,-650,-16349,1483,-10,-49,16
2,331,162083,-650,-16342,1454,-11,-56,15
2,332,162088,-653,-16296,1488,-13,-58,15
2,333,162093,-615,-16281,1439,-12,-53,16
2,334,162098,-606,-16268,1414,-10,-42,13
2,335,162103,-514,-16233,1400,-13,-32,13
2,336,162108,-466,-16234,1471,-13,-22,12
2,337,162113,-472,-16218,1472,-13,-12,13
2,338,162118,-513,-16184,1475,-14,-5,9
2,339,162123,-551,-16210,1406,-14,5,12
2,340,162128,-530,-16270,1396,-15,12,13
2,341,162133,-504,-16213,1400,-12,21,12
2,342,162138,-555,-16194,1521,-11,22,12
2,343,162143,-650,-16263,1592,-11,12,13
2,344,162148,-693,-16329,1371,-6,-8,17
2,345,162153,-628,-16415,1239,-4,-23,19
2,346,162158,-540,-16430,1340,-4,-40,19
2,347,162163,-562,-16357,1671,-4,-78,24
2,348,162168,-609,-16376,1824,0,-137,34
2,349,162173,-619,-16388,1550,7,-190,35
2,350,162178,-498,-16347,1384,11,-229,42
2,351,162183,-340,-16302,1608,12,-276,51
2,352,162188,-2,-16290,1795,17,-353,66
2,353,162193,469,-16378,1782,23,-446,80
2,354,162198,733,-16308,1622,30,-529,89
2,355,162203,575,-16314,1420,31,-580,102
2,356,162208,80,-16279,1190,35,-605,113
2,357,162213,-196,-16365,911,41,-598,128
2,358,162218,-190,-16403,610,41,-526,137
2,359,162223,-8,-16392,302,45,-389,142
2,360,162228,-207,-16312,341,44,-232,139
2,361,162233,-654,-16265,331,51,-101,142
2,362,162238,-1131,-16542,506,53,15,148
2,363,162243,-1230,-16371,284,48,124,146
2,364,162248,-1183,-16569,1096,62,270,161
2,365,162253,-1301,-16626,1316,63,321,166
2,366,162258,-1581,-16430,2986,71,201,183
2,367,162263,-1421,-16400,3448,84,46,211
2,368,162268,-1509,-16208,3623,81,-104,222
2,369,162273,-1781,-16140,3722,83,-252,236
2,370,162278,-2255,-16040,3679,87,-395,253
2,371,162283,-2494,-15917,3215,92,-536,273
2,372,162288,-2526,-15830,3009,93,-626,283
2,373,162293,-2391,-15847,2829,97,-681,292
2,374,162298,-2395,-15872,2764,94,-702,298
2,375,162303,-2337,-15824,2222,95,-716,306
2,376,162308,-2373,-15901,1739,97,-679,316
2,377,162313,-2195,-15964,1551,100,-616,324
2,378,162318,-1901,-15913,1651,99,-532,331
2,379,162323,-1685,-15897,1594,105,-453,339
2,380,162328,-1586,-15907,1418,112,-375,345
2,381,162333,-1536,-15934,1200,117,-287,358
2,382,162338,-1567,-15915,1278,116,-199,369
2,383,162343,-1629,-15975,1445,118,-132,376
2,384,162348,-1747,-16078,1504,126,-83,391
2,385,162353,-1822,-16227,1426,137,-37,405
2,386,162358,-1992,-16156,1639,141,12,412
2,387,162363,-2041,-16132,2082,145,16,428
2,388,162368,-2123,-16107,2333,152,-20,444
2,389,162373,-1951,-16106,2360,160,-79,458
2,390,162378,-1937,-16117,2469,167,-129,477
2,391,162383,-2014,-16051,2453,171,-189,491
2,392,162388,-2142,-15951,2487,181,-247,507
2,393,162393,-2097,-15906,2241,191,-304,529
2,394,162398,-2074,-15943,2062,193,-338,546
2,395,162403,-2116,-15878,1927,197,-352,555
2,396,162408,-2223,-15817,1943,207,-338,573
2,397,162413,-2196,-15837,1750,212,-314,584
2,398,162418,-2115,-15825,1647,217,-261,591
2,399,162423,-2128,-15833,1836,221,-199,601
2,400,162428,-2117,-15838,2104,227,-163,608
2,401,162433,-2048,-15872,2045,229,-154,623
2,402,162438,-2115,-15871,2032,236,-138,637
2,403,162443,-2236,-15891,2163,243,-116,648
2,404,162448,-2280,-15895,2268,247,-112,662
2,405,162453,-2109,-15948,2242,253,-123,677
2,406,162458,-2168,-15975,2231,260,-133,686
2,407,162463,-2403,-16051,2262,264,-144,697
2,408,162468,-2717,-16105,2070,271,-145,712
2,409,162473,-2836,-16257,1792,277,-120,719
2,410,162478,-2821,-16258,1851,280,-81,726
2,411,162483,-2846,-16199,2251,284,-49,729
2,412,162488,-2957,-16152,2637,286,-49,738
2,413,162493,-2943,-16173,2694,294,-76,749
2,414,162498,-2967,-16113,2614,299,-100,757
2,415,162503,-2994,-16090,2673,300,-105,764
2,416,162508,-3165,-16030,2848,300,-114,770
2,417,162513,-3325,-16059,2870,302,-135,779
2,418,162518,-3319,-16133,2621,306,-155,789
2,419,162523,-3251,-16131,2559,312,-147,791
2,420,162528,-3230,-16139,2673,311,-135,794
2,421,162533,-3325,-16114,2873,311,-129,797
2,422,162538,-3466,-16125,2835,316,-128,797
2,423,162543,-3531,-16140,2688,318,-118,802
2,424,162548,-3577,-16137,2683,318,-90,803
2,425,162553,-3571,-16166,2850,316,-69,806
2,426,162558,-3572,-16246,3091,316,-72,806
2,427,162563,-3596,-16249,3155,318,-94,809
2,428,162568,-3651,-16245,3007,319,-109,812
2,429,162573,-3927,-16225,2880,323,-109,809
2,430,162578,-4160,-16267,2936,320,-100,810
2,431,162583,-4222,-16268,3027,320,-90,807
2,432,162588,-4056,-16136,3076,321,-94,808
2,433,162593,-3893,-16172,3214,322,-105,805
2,434,162598,-3949,-16192,3366,321,-130,800
2,435,162603,-4104,-16142,3404,322,-169,800
2,436,162608,-4256,-16068,3274,322,-194,801
2,437,162613,-4296,-16031,3054,323,-199,795
2,438,162618,-4291,-15982,3068,321,-187,790
2,439,162623,-4283,-15942,3270,320,-166,779
2,440,162628,-4417,-15884,3210,318,-151,771
2,441,162633,-4565,-15887,3142,316,-119,763
2,442,162638,-4573,-15876,3198,315,-87,757
2,443,162643,-4502,-15858,3399,309,-65,753
2,444,162648,-4341,-15814,3625,307,-52,743
2,445,162653,-4386,-15802,3662,305,-52,733
2,446,162658,-4371,-15729,3556,306,-66,727
2,447,162663,-4454,-15701,3432,299,-89,724
2,448,162668,-4533,-15791,3440,296,-106,718
2,449,162673,-4609,-15877,3332,295,-120,710
2,450,162678,-4722,-15952,3185,295,-109,703
2,451,162683,-4826,-15904,3154,295,-91,687
2,452,162688,-4924,-15898,3199,292,-78,683
2,453,162693,-4986,-15830,3291,288,-75,672
2,454,162698,-5012,-15852,3385,286,-83,657
2,455,162703,-5019,-15843,3499,285,-90,647
2,456,162708,-5066,-15818,3555,281,-94,635
2,457,162713,-5085,-15745,3669,278,-106,624
2,458,162718,-5057,-15700,3556,276,-127,609
2,459,162723,-4981,-15622,3505,271,-140,601
2,460,162728,-4958,-15533,3551,264,-145,588
2,461,162733,-4892,-15468,3556,263,-140,573
2,462,162738,-4905,-15427,3351,256,-127,558
2,463,162743,-5041,-15434,3151,255,-97,544
2,464,162748,-5039,-15431,3010,252,-56,529
2,465,162753,-5004,-15440,3195,245,-22,518
2,466,162758,-4890,-15474,3344,238,-11,506
2,467,162763,-4759,-15507,3311,237,-3,489
2,468,162768,-4852,-15494,3279,232,24,472
2,469,162773,-5009,-15511,3192,228,45,459
2,470,162778,-5146,-15550,3134,223,61,445
2,471,162783,-5089,-15580,3130,217,63,433
2,472,162788,-5085,-15602,3370,214,66,415
2,473,162793,-5119,-15587,3422,207,63,397
2,474,162798,-5196,-15579,3490,203,58,381
2,475,162803,-5390,-15562,3455,199,53,365
2,476,162808,-5359,-15511,3604,193,40,348
2,477,162813,-5344,-15426,3726,185,20,333
2,478,162818,-5363,-15397,3763,181,-8,318
2,479,162823,-5486,-15413,3729,176,-26,299
2,480,162828,-5523,-15352,3681,170,-38,278
2,481,162833,-5506,-15246,3779,159,-45,262
2,482,162838,-5411,-15186,3859,151,-49,245
2,483,162843,-5396,-15175,3749,145,-59,222
2,484,162848,-5322,-15254,3658,144,-69,203
2,485,162853,-5328,-15289,3680,134,-82,189
2,486,162858,-5285,-15301,3723,127,-97,166
2,487,162863,-5349,-15310,3687,117,-104,149
2,488,162868,-5371,-15343,3475,110,-100,126
2,489,162873,-5439,-15377,3533,103,-83,105
2,490,162878,-5435,-15393,3637,91,-74,84
2,491,162883,-5397,-15357,3728,85,-73,65
2,492,162888,-5304,-15352,3671,78,-76,46
2,493,162893,-5315,-15340,3603,68,-71,24
2,494,162898,-5309,-15322,3609,60,-63,2
2,495,162903,-5285,-15339,3657,54,-57,-18
2,496,162908,-5297,-15288,3621,44,-54,-41
2,497,162913,-5324,-15228,3565,33,-40,-60
2,498,162918,-5387,-15136,3458,25,-19,-83
2,499,162923,-5425,-15103,3454,17,10,-105
2,500,162928,-5410,-15076,3547,7,32,-128
2,501,162933,-5260,-15021,3662,-2,37,-145
2,502,162938,-5014,-15034,3824,-10,31,-166
2,503,162943,-4901,-15060,3940,-20,12,-189
2,504,162948,-4882,-15099,3832,-28,-17,-208
2,505,162953,-5005,-15118,3650,-35,-47,-222
2,506,162958,-5057,-15115,3487,-42,-70,-237
2,507,162963,-5010,-15118,3424,-53,-79,-255
2,508,162968,-4892,-15195,3441,-62,-85,-275
2,509,162973,-4835,-15273,3363,-67,-93,-298
2,510,162978,-4928,-15315,3325,-75,-92,-319
2,511,162983,-5022,-15299,3316,-81,-90,-337
2,512,162988,-4881,-15314,3249,-100,-45,-378
2,513,162993,-4762,-15261,3387,-110,-25,-400
2,514,162998,-4768,-15197,3578,-118,-22,-417
2,515,163003,-4862,-15082,3677,-125,-38,-436
2,516,163008,-4780,-15071,3559,-132,-49,-450
2,517,163013,-4587,-15121,3361,-138,-49,-466
2,518,163018,-4350,-15110,3352,-146,-45,-487
2,519,163023,-4345,-15120,3633,-159,-53,-502
2,520,163028,-4430,-15139,3621,-167,-84,-517
2,521,163033,-4462,-15145,3322,-172,-99,-529
2,522,163038,-4257,-15179,3066,-179,-86,-544
2,523,163043,-4043,-15228,3143,-190,-56,-562
2,524,163048,-3949,-15218,3387,-200,-46,-580
2,525,163053,-3996,-15210,3248,-203,-61,-593
2,526,163058,-4144,-15378,2881,-204,-61,-601
2,527,163063,-4176,-15478,2412,-212,-30,-618
2,528,163068,-4148,-15444,2471,-223,36,-637
2,529,163073,-4167,-15530,2744,-228,88,-648
2,530,163078,-4251,-15528,2862,-234,118,-667
2,531,163083,-4232,-15465,2777,-235,147,-685
2,532,163088,-4164,-15480,2744,-244,182,-697
2,533,163093,-4074,-15475,2954,-251,218,-716
2,534,163098,-4046,-15426,3155,-255,230,-735
2,535,163103,-4053,-15429,3206,-257,220,-743
2,536,163108,-4094,-15424,3196,-265,214,-758
2,537,163113,-4147,-15369,3276,-268,211,-769
2,538,163118,-3914,-15365,3412,-274,195,-778
2,539,163123,-3577,-15420,3652,-281,168,-787
2,540,163128,-3427,-15453,3672,-288,120,-801
2,541,163133,-3627,-15488,3607,-289,65,-810
2,542,163138,-3811,-15508,3228,-295,7,-820
2,543,163143,-3708,-15549,2904,-304,-19,-825
2,544,163148,-3565,-15591,2837,-311,-20,-833
2,545,163153,-3473,-15712,2959,-313,-19,-844
2,546,163158,-3480,-15756,2867,-321,-24,-859
2,547,163163,-3504,-15764,2610,-322,-15,-868
2,548,163168,-3432,-15834,2477,-327,23,-881
2,549,163173,-3277,-15874,2410,-334,64,-892
2,550,163178,-3193,-15892,2469,-339,109,-903
2,551,163183,-3223,-15922,2466,-348,145,-917
2,552,163188,-3343,-15958,2466,-350,181,-925
2,553,163193,-3330,-16014,2585,-351,218,-933
2,554,163198,-3134,-16054,2711,-354,236,-935
2,555,163203,-2665,-16117,2975,-356,227,-940
2,556,163208,-2507,-16082,3243,-362,185,-951
2,557,163213,-2717,-16151,3319,-362,123,-951
2,558,163218,-2975,-16211,2996,-362,53,-955
2,559,163223,-3012,-16249,2594,-368,17,-959
2,560,163228,-2831,-16256,2418,-377,26,-963
2,561,163233,-2666,-16296,2609,-380,49,-971
2,562,163238,-2643,-16253,2659,-380,57,-978
2,563,163243,-2687,-16310,2409,-382,59,-982
2,564,163248,-2638,-16361,2156,-387,86,-989
2,565,163253,-2566,-16326,2181,-394,138,-997
2,566,163258,-2483,-16326,2260,-398,192,-1002
2,567,163263,-2448,-16395,2369,-400,231,-1010
2,568,163268,-2340,-16416,2378,-403,250,-1014
2,569,163273,-2180,-16473,2431,-402,258,-1019
2,570,163278,-2004,-16494,2559,-408,256,-1022
2,571,163283,-2003,-16562,2584,-406,244,-1020
2,572,163288,-2108,-16589,2376,-408,230,-1024
2,573,163293,-2054,-16675,2226,-409,231,-1026
2,574,163298,-2060,-16742,2217,-408,231,-1026
2,575,163303,-1806,-16891,2340,-409,217,-1026
2,576,163308,-1696,-16837,2539,-410,196,-1029
2,577,163313,-1625,-16764,2571,-411,169,-1027
2,578,163318,-1688,-16712,2408,-409,140,-1021
2,579,163323,-1732,-16780,2297,-410,122,-1024
2,580,163328,-1632,-16750,2330,-414,103,-1024
2,581,163333,-1523,-16686,2360,-414,87,-1019
2,582,163338,-1533,-16648,2277,-416,79,-1022
2,583,163343,-1565,-16639,2196,-417,78,-1022
2,584,163348,-1542,-16723,2092,-420,99,-1018
2,585,163353,-1277,-16748,1993,-424,176,-1027
2,586,163358,-1306,-16783,1925,-425,214,-1025
2,587,163363,-1303,-16859,1835,-426,246,-1028
2,588,163368,-1283,-16878,1725,-427,274,-1030
2,589,163373,-1181,-16905,1699,-428,300,-1031
2,590,163378,-1073,-16906,1820,-425,326,-1030
2,591,163383,-931,-16806,1838,-423,334,-1029
2,592,163388,-814,-16848,2119,-424,328,-1026
2,593,163393,-635,-16804,2074,-418,295,-1021
2,594,163398,-487,-16732,2259,-417,253,-1016
2,595,163403,-434,-16681,2216,-416,206,-1009
2,596,163408,-355,-16689,2325,-416,168,-1005
2,597,163413,-252,-16635,2214,-416,130,-995
2,598,163418,-103,-16578,1948,-415,103,-990
2,599,163423,-2024,-13633,1442,-412,96,-984
2,600,163428,3296,-17855,-16886,-326,245,-910
2,601,163433,-14494,-6528,-17260,-223,2730,-1349
2,602,163438,-21315,-7802,12034,-261,11625,-581
2,603,163443,-1854,-3921,29434,480,15409,107
2,604,163448,30924,-20989,32767,351,13174,-418
2,605,163453,26934,-15270,30290,495,6484,-822
2,606,163458,-18603,-16413,32746,338,201,-655
2,607,163463,-32768,-3722,26241,447,-9114,666
2,608,163468,-7195,-11774,-19898,600,-13385,1755
2,609,163473,31564,-27317,-32768,286,-7090,1407
2,610,163478,18521,-26451,-21249,194,2536,-630
2,611,163483,-25892,-13671,14823,-330,4118,-1218
2,612,163488,-32768,-6130,32767,3,106,-86
2,613,163493,-3642,-10788,247,774,-6262,1306
2,614,163498,32767,-23087,-32768,712,-5147,1201
2,615,163503,17564,-22927,-10537,115,1410,-240
2,616,163508,-20009,-15227,25929,-265,2776,-846
2,617,163513,-30479,-9167,29342,21,-1444,-59
2,618,163518,-461,-16000,-16196,574,-5786,1227
2,619,163523,18696,-21614,-32768,317,-2581,723
2,620,163528,7225,-19165,-5828,87,2512,-288
2,621,163533,-9741,-16403,25261,-60,3376,-607
2,622,163538,-17385,-11423,23315,172,518,-153
2,623,163543,3687,-17550,-16712,518,-2678,842
2,624,163548,11937,-19865,-18288,204,-452,437
2,625,163553,3444,-16968,2829,-55,2080,-305
2,626,163558,-6570,-14189,24052,-2,1923,-316
2,627,163563,-5899,-14876,10793,293,-426,238
2,628,163568,3266,-17861,-12007,347,-1367,512
2,629,163573,6247,-16787,-9795,141,52,164
2,630,163578,-213,-16039,8175,-2,1176,-77
2,631,163583,-5069,-15129,16562,72,340,-7
2,632,163588,-1269,-15649,1393,264,-1149,278
2,633,163593,2784,-17385,-9677,229,-895,354
2,634,163598,2098,-16788,-3658,96,332,118
2,635,163603,-2108,-15785,8390,41,715,-7
2,636,163608,-2513,-15417,8448,126,-164,109
2,637,163613,699,-16705,-1477,202,-820,275
2,638,163618,2215,-16979,-4992,153,-311,214
2,639,163623,52,-16387,934,72,437,83
2,640,163628,-2259,-15708,6731,64,415,71
2,641,163633,-1166,-15762,4001,133,-204,175
2,642,163638,1032,-16586,-1546,162,-394,229
2,643,163643,1085,-16725,-1274,109,38,157
2,644,163648,-789,-16103,3417,62,379,86
2,645,163653,-1567,-15815,5085,78,161,126
2,646,163658,-306,-16204,1742,117,-195,193
2,647,163663,876,-16388,-666,110,-154,179
2,648,163668,380,-16376,1181,72,129,132
2,649,163673,-871,-16345,3886,58,200,125
2,650,163678,-857,-16251,3257,76,-11,159
2,651,163683,3,-16372,711,89,-122,181
2,652,163688,186,-16500,311,73,24,163
2,653,163693,-469,-16405,2189,48,158,136
2,654,163698,-1019,-16264,3229,49,89,147
2,655,163703,-693,-16288,1995,61,-52,169
2,656,163708,-224,-16352,944,57,-25,163
2,657,163713,-376,-16300,1591,43,101,145
2,658,163718,-845,-16145,2642,35,-2,148
2,659,163723,-656,-16194,1872,40,-73,160
2,660,163728,-432,-16251,1581,35,-41,155
2,661,163733,-626,-16121,2258,20,23,141
2,662,163738,-760,-16124,2657,17,-5,141
2,663,163743,-764,-16138,2248,20,-68,149
2,664,163748,-606,-16164,1737,21,-92,149
2,665,163753,-667,-16146,1900,9,-43,140
2,666,163758,-731,-16097,2298,3,-9,135
2,667,163763,-757,-16122,2438,0,-23,134
2,668,163768,-635,-16188,1995,-3,-47,136
2,669,163773,-565,-16231,1971,-7,-28,134
2,670,163778,-650,-16229,2198,-16,-2,129
2,671,163783,-726,-16207,2415,-23,6,122
2,672,163788,-677,-16266,2270,-23,-8,126
2,673,163793,-673,-16331,2041,-27,-6,125
2,674,163798,-777,-16425,2043,-29,5,118
2,675,163803,-980,-16468,2138,-33,-2,114
2,676,163808,-1026,-16463,2193,-36,-25,115
2,677,163813,-963,-16396,2285,-39,-41,114
2,678,163818,-782,-16409,2289,-44,-52,110
2,679,163823,-724,-16396,2383,-50,-62,106
2,680,163828,-698,-16399,2433,-51,-85,104
2,681,163833,-798,-16368,2300,-54,-118,102
2,682,163838,-845,-16359,2124,-54,-144,102
2,683,163843,-837,-16338,1943,-55,-151,100
2,684,163848,-715,-16339,1913,-62,-137,99
2,685,163853,-593,-16349,2053,-68,-125,96
2,686,163858,-451,-16379,2066,-68,-121,92
2,687,163863,-487,-16341,2000,-69,-115,88
2,688,163868,-478,-16331,1814,-70,-100,88
2,689,163873,-505,-16342,1782,-70,-75,86
2,690,163878,-464,-16340,1801,-77,-55,81
2,691,163883,-487,-16382,1793,-79,-34,78
2,692,163888,-489,-16413,1732,-78,-15,80
2,693,163893,-486,-16476,1718,-79,9,75
2,694,163898,-510,-16470,1755,-82,31,73
2,695,163903,-557,-16504,1796,-84,46,69
2,696,163908,-652,-16581,1795,-82,55,66
2,697,163913,-718,-16644,1822,-82,57,65
2,698,163918,-749,-16547,1907,-81,50,62
2,699,163923,-729,-16462,2121,-85,41,61
2,700,163928,-675,-16401,2335,-87,27,61
2,701,163933,-622,-16332,2414,-85,5,58
2,702,163938,-614,-16328,2329,-84,-21,59
2,703,163943,-592,-16324,2243,-88,-43,61
2,704,163948,-634,-16356,2261,-93,-63,55
2,705,163953,-729,-16412,2181,-89,-78,54
2,706,163958,-772,-16462,2045,-90,-86,56
2,707,163963,-742,-16499,1865,-91,-81,51
2,708,163968,-695,-16447,1912,-91,-63,46
2,709,163973,-621,-16443,1982,-92,-58,46
2,710,163978,-567,-16420,1957,-93,-60,43
2,711,163983,-514,-16461,1812,-92,-53,37
2,712,163988,-523,-16478,1836,-93,-39,35
2,713,163993,-542,-16493,1818,-96,-29,34
2,714,163998,-449,-16441,1846,-94,-16,32
2,715,164003,-425,-16392,1783,-91,1,28
2,716,164008,-500,-16484,1797,-94,21,26
2,717,164013,-584,-16422,1847,-96,36,26
2,718,164018,-564,-16433,1894,-92,47,24
2,719,164023,-651,-16485,1858,-89,57,22
2,720,164028,-770,-16527,1790,-90,67,18
2,721,164033,-798,-16562,1883,-91,69,15
2,722,164038,-771,-16489,1996,-89,62,14
2,723,164043,-660,-16414,2152,-91,48,11
2,724,164048,-617,-16354,2216,-90,25,10
2,725,164053,-621,-16336,2189,-86,5,6
2,726,164058,-698,-16329,2061,-86,-13,5
2,727,164063,-768,-16312,2048,-86,-30,4
2,728,164068,-784,-16305,2076,-87,-43,4
2,729,164073,-794,-16346,2048,-84,-44,0
2,730,164078,-773,-16362,1895,-83,-41,-4
2,731,164083,-827,-16321,1777,-83,-30,-8
2,732,164088,-739,-16339,1931,-83,-8,-15
2,733,164093,-678,-16369,1926,-82,-2,-18
2,734,164098,-624,-16415,1889,-80,2,-20
2,735,164103,-608,-16389,1947,-77,9,-22
2,736,164108,-597,-16361,2016,-79,21,-23
2,737,164113,-550,-16297,2025,-81,27,-28
2,738,164118,-515,-16264,2036,-80,24,-27
2,739,164123,-602,-16286,1909,-76,26,-27
2,740,164128,-668,-16317,1723,-75,33,-31
2,741,164133,-729,-16412,1658,-73,40,-36
2,742,164138,-759,-16424,1697,-76,45,-37
2,743,164143,-753,-16450,1724,-73,43,-38
2,744,164148,-724,-16452,1720,-70,40,-40
2,745,164153,-760,-16436,1787,-66,38,-43
2,746,164158,-756,-16409,1889,-63,32,-45
2,747,164163,-762,-16358,1920,-63,24,-49
2,748,164168,-736,-16350,1901,-60,10,-49
2,749,164173,-743,-16291,1891,-59,-3,-53
2,750,164178,-707,-16331,1933,-56,-15,-50
2,751,164183,-671,-16335,1986,-55,-23,-51
2,752,164188,-614,-16319,1978,-56,-28,-56
2,753,164193,-686,-16321,1822,-54,-32,-57
2,754,164198,-719,-16316,1700,-53,-24,-61
2,755,164203,-725,-16313,1742,-56,-9,-63
2,756,164208,-630,-16258,1813,-53,-3,-62
2,757,164213,-555,-16303,1833,-50,7,-66
2,758,164218,-565,-16335,1746,-50,23,-70
2,759,164223,-605,-16287,1713,-50,43,-71
2,760,164228,-626,-16331,1712,-48,53,-71
2,761,164233,-648,-16324,1715,-48,56,-75
2,762,164238,-617,-16394,1671,-48,54,-74
2,763,164243,-633,-16433,1628,-46,57,-75
2,764,164248,-707,-16491,1598,-39,62,-79
2,765,164253,-771,-16522,1648,-40,59,-80
2,766,164258,-804,-16481,1740,-37,49,-83
2,767,164263,-673,-16435,1863,-35,29,-82
2,768,164268,-570,-16338,1995,-34,1,-81
2,769,164273,-536,-16375,1962,-32,-21,-81
2,770,164278,-595,-16352,1889,-29,-40,-79
2,771,164283,-655,-16375,1830,-28,-61,-80
2,772,164288,-676,-16337,1815,-28,-70,-80
2,773,164293,-634,-16317,1713,-24,-74,-81
2,774,164298,-630,-16315,1717,-26,-64,-83
2,775,164303,-618,-16355,1658,-25,-45,-86
2,776,164308,-538,-16334,1634,-24,-19,-89
2,777,164313,-563,-16336,1667,-25,-3,-89
2,778,164318,-511,-16340,1598,-24,15,-90
2,779,164323,-515,-16375,1595,-24,36,-89
2,780,164328,-512,-16372,1688,-21,50,-89
2,781,164333,-502,-16303,1709,-24,61,-91
2,782,164338,-502,-16357,1696,-24,71,-91
2,783,164343,-506,-16386,1681,-21,73,-91
2,784,164348,-572,-16472,1592,-16,72,-93
2,785,164353,-657,-16497,1577,-15,66,-91
2,786,164358,-616,-16574,1611,-14,55,-95
2,787,164363,-608,-16584,1748,-14,37,-92
2,788,164368,-541,-16534,1773,-11,16,-89
2,789,164373,-474,-16479,1762,-7,-3,-89
2,790,164378,-498,-16488,1714,-7,-17,-86
2,791,164383,-503,-16484,1731,-6,-28,-85
2,792,164388,-517,-16482,1706,-3,-35,-86
2,793,164393,-523,-16446,1640,-3,-38,-82
2,794,164398,-507,-16453,1545,-4,-26,-80
2,795,164403,-533,-16379,1559,-5,-6,-86
2,796,164408,-594,-16324,1596,-6,15,-84
2,797,164413,-591,-16316,1604,-5,32,-84
2,798,164418,-552,-16369,1642,-4,46,-86
2,799,164423,-483,-16378,1646,-6,58,-83
2,800,164428,-471,-16409,1792,-2,65,-85
2,801,164433,-516,-16386,1825,-1,70,-84
2,802,164438,-477,-16390,1777,-3,65,-82
2,803,164443,-481,-16411,1790,-2,60,-82
2,804,164448,-506,-16430,1746,-3,53,-79
2,805,164453,-473,-16461,1690,0,24,-78
2,806,164458,-551,-16487,1543,0,15,-75
2,807,164463,-547,-16548,1491,0,6,-71
2,808,164468,-523,-16522,1561,2,4,-72
2,809,164473,-509,-16530,1630,1,2,-68
2,810,164478,-474,-16534,1640,3,1,-67
2,811,164483,-536,-16587,1505,6,2,-69
2,812,164488,-584,-16572,1454,4,5,-67
2,813,164493,-550,-16539,1500,2,5,-67
2,814,164498,-502,-16511,1675,6,3,-64
2,815,164503,-393,-16504,1730,7,-2,-59
2,816,164508,-378,-16496,1645,10,0,-59
2,817,164513,-372,-16495,1553,9,10,-58
2,818,164518,-449,-16405,1589,8,12,-56
2,819,164523,-446,-16397,1680,3,13,-55
2,820,164528,-401,-16442,1691,7,14,-52
2,821,164533,-393,-16429,1594,8,20,-53
2,822,164538,-403,-16431,1563,7,37,-51
2,823,164543,-372,-16413,1635,6,47,-47
2,824,164548,-407,-16341,1732,4,48,-47
2,825,164553,-418,-16371,1692,5,45,-46
2,826,164558,-467,-16447,1641,5,44,-41
2,827,164563,-539,-16561,1630,6,46,-39
2,828,164568,-609,-16526,1620,7,45,-40
2,829,164573,-549,-16502,1741,6,36,-36
2,830,164578,-444,-16482,1790,6,22,-36
2,831,164583,-395,-16463,1781,8,2,-33
2,832,164588,-411,-16485,1761,9,-14,-29
2,833,164593,-451,-16453,1675,9,-25,-28
2,834,164598,-478,-16470,1651,8,-35,-25
2,835,164603,-494,-16436,1579,10,-42,-22
2,836,164608,-464,-16411,1550,8,-39,-20
2,837,164613,-426,-16367,1502,9,-32,-18
2,838,164618,-400,-16366,1448,8,-23,-18
2,839,164623,-384,-16326,1490,7,-10,-17
2,840,164628,-336,-16288,1540,7,4,-14
2,841,164633,-261,-16341,1540,6,19,-13
2,842,164638,-300,-16347,1574,7,36,-11
2,843,164643,-310,-16327,1548,8,51,-11
2,844,164648,-409,-16318,1615,7,66,-10
2,845,164653,-395,-16405,1597,7,73,-7
2,846,164658,-348,-16437,1553,7,73,-4
2,847,164663,-397,-16454,1608,6,67,-2
2,848,164668,-457,-16460,1680,6,62,-3
2,849,164673,-462,-16519,1667,7,51,2
2,850,164678,-495,-16540,1601,8,39,5
2,851,164683,-469,-16516,1578,5,25,5
2,852,164688,-407,-16463,1705,7,7,6
2,853,164693,-422,-16437,1764,7,-18,11
2,854,164698,-413,-16397,1676,10,-43,13
2,855,164703,-403,-16374,1582,13,-55,15
2,856,164708,-427,-16344,1502,12,-58,17
2,857,164713,-398,-16332,1515,11,-54,17
2,858,164718,-386,-16290,1494,11,-49,20
2,859,164723,-332,-16284,1436,11,-41,21
2,860,164728,-332,-16311,1392,11,-21,22
2,861,164733,-316,-16289,1387,8,4,23
2,862,164738,-329,-16281,1455,8,22,24
2,863,164743,-355,-16263,1520,9,30,25
2,864,164748,-299,-16243,1564,7,38,28
2,865,164753,-301,-16226,1549,8,48,28
2,866,164758,-381,-16219,1519,9,57,29
2,867,164763,-383,-16222,1562,8,58,27
2,868,164768,-411,-16194,1601,10,46,31
2,869,164773,-423,-16203,1618,13,34,36
2,870,164778,-387,-16208,1610,11,26,36
2,871,164783,-399,-16283,1628,11,19,40
2,872,164788,-510,-16350,1671,13,10,40
2,873,164793,-509,-16392,1779,13,0,41
2,874,164798,-481,-16380,1848,11,-11,44
2,875,164803,-495,-16375,1813,10,-20,43
2,876,164808,-520,-16445,1665,12,-28,45
2,877,164813,-594,-16436,1610,14,-43,46
2,878,164818,-506,-16459,1740,10,-59,49
2,879,164823,-445,-16426,1705,11,-60,49
2,880,164828,-472,-16415,1635,10,-49,46
2,881,164833,-541,-16375,1574,10,-35,46
2,882,164838,-565,-16391,1612,7,-15,47
2,883,164843,-505,-16423,1720,6,-2,51
2,884,164848,-462,-16399,1742,7,10,47
2,885,164853,-482,-16424,1659,9,26,48
2,886,164858,-482,-16434,1619,6,42,48
2,887,164863,-530,-16447,1681,3,53,44
2,888,164868,-577,-16495,1746,6,52,51
2,889,164873,-601,-16524,1803,4,49,50
2,890,164878,-601,-16527,1730,7,44,46
2,891,164883,-653,-16589,1687,5,41,44
2,892,164888,-724,-16634,1682,2,26,49
2,893,164893,-747,-16627,1764,5,8,49
2,894,164898,-691,-16587,1808,6,-12,49
2,895,164903,-678,-16569,1777,4,-32,49
2,896,164908,-639,-16529,1729,6,-45,48
2,897,164913,-658,-16499,1702,8,-54,49
2,898,164918,-656,-16507,1639,4,-62,46
2,899,164923,-642,-16500,1613,7,-65,45
2,900,164928,-644,-16496,1590,4,-67,44
2,901,164933,-613,-16474,1630,4,-61,48
2,902,164938,-509,-16462,1631,4,-47,47
2,903,164943,-529,-16445,1649,5,-30,45
2,904,164948,-493,-16433,1530,3,-5,45
2,905,164953,-491,-16459,1520,1,10,40
2,906,164958,-503,-16417,1644,2,16,40
2,907,164963,-456,-16456,1694,3,18,44
2,908,164968,-424,-16484,1667,3,21,42
2,909,164973,-456,-16571,1625,1,30,41
2,910,164978,-499,-16609,1585,1,31,42
2,911,164983,-553,-16549,1599,1,24,41
2,912,164988,-570,-16496,1713,3,8,40
2,913,164993,-573,-16496,1713,2,-8,42
2,914,164998,-561,-16474,1631,2,-17,42
2,915,165003,-599,-16441,1587,4,-19,42
2,916,165008,-649,-16462,1584,4,-21,41
2,917,165013,-672,-16475,1623,2,-28,39
2,918,165018,-632,-16471,1641,8,-35,40
2,919,165023,-613,-16477,1606,7,-36,42
2,920,165028,-596,-16433,1645,5,-26,40
2,921,165033,-595,-16423,1691,5,-15,37
2,922,165038,-605,-16398,1701,7,-11,37
2,923,165043,-583,-16385,1741,8,-8,37
2,924,165048,-580,-16389,1724,9,-5,35
2,925,165053,-602,-16396,1775,3,-1,33
2,926,165058,-598,-16369,1816,2,6,33
2,927,165063,-601,-16373,1807,5,6,35
2,928,165068,-577,-16333,1764,3,7,33
2,929,165073,-638,-16362,1667,3,8,32
2,930,165078,-690,-16410,1604,2,5,29
2,931,165083,-699,-16442,1644,5,2,30
2,932,165088,-697,-16494,1750,2,-2,31
2,933,165093,-642,-16472,1794,3,-8,26
2,934,165098,-658,-16435,1810,5,-15,27
2,935,165103,-623,-16454,1737,4,-26,27
2,936,165108,-681,-16452,1662,5,-35,24
2,937,165113,-661,-16450,1758,2,-43,26
2,938,165118,-681,-16476,1756,3,-50,25
2,939,165123,-622,-16440,1708,5,-57,23
2,940,165128,-608,-16443,1732,5,-55,23
2,941,165133,-621,-16422,1672,5,-51,23
2,942,165138,-609,-16447,1611,5,-43,20
2,943,165143,-647,-16454,1594,4,-39,18
2,944,165148,-613,-16465,1657,5,-37,18
2,945,165153,-593,-16447,1671,3,-35,19
2,946,165158,-532,-16430,1720,4,-30,14
2,947,165163,-559,-16378,1723,5,-27,14
2,948,165168,-536,-16403,1758,3,-25,14
2,949,165173,-495,-16382,1812,5,-31,14
2,950,165178,-515,-16365,1787,4,-36,15
2,951,165183,-479,-16374,1733,4,-35,14
2,952,165188,-470,-16340,1734,3,-32,12
2,953,165193,-522,-16334,1719,3,-29,10
2,954,165198,-577,-16346,1662,5,-31,9
2,955,165203,-571,-16383,1683,4,-26,10
2,956,165208,-583,-16369,1689,2,-20,8
2,957,165213,-618,-16387,1605,3,-14,7
2,958,165218,-646,-16415,1556,8,-9,6
2,959,165223,-669,-16417,1516,7,-9,2
2,960,165228,-649,-16421,1639,6,-12,6
2,961,165233,-571,-16398,1803,7,-21,3
2,962,165238,-557,-16383,1839,7,-33,1
2,963,165243,-478,-16388,1762,9,-41,0
2,964,165248,-541,-16383,1643,7,-44,1
2,965,165253,-551,-16366,1659,7,-52,2
2,966,165258,-569,-16333,1642,9,-57,-1
2,967,165263,-522,-16316,1658,8,-61,0
2,968,165268,-450,-16276,1663,9,-53,-2
2,969,165273,-406,-16268,1626,10,-42,-3
2,970,165278,-434,-16330,1639,8,-28,-2
2,971,165283,-452,-16296,1627,9,-24,0
2,972,165288,-465,-16280,1604,9,-12,-5
2,973,165293,-443,-16255,1579,9,-5,-6
2,974,165298,-459,-16261,1683,7,-1,-7
2,975,165303,-507,-16254,1718,10,3,-7
2,976,165308,-536,-16250,1707,8,5,-5
2,977,165313,-556,-16260,1669,8,11,-6
2,978,165318,-596,-16305,1669,10,10,-10
2,979,165323,-664,-16330,1765,10,7,-10
2,980,165328,-655,-16351,1708,8,4,-9
2,981,165333,-641,-16376,1739,12,-2,-9
2,982,165338,-606,-16350,1739,10,-2,-13
2,983,165343,-639,-16371,1732,10,-3,-13
2,984,165348,-720,-16419,1701,11,-8,-13
2,985,165353,-721,-16412,1664,10,-18,-14
2,986,165358,-693,-16375,1705,9,-22,-15
2,987,165363,-636,-16381,1735,10,-30,-15
2,988,165368,-584,-16389,1709,12,-32,-15
2,989,165373,-587,-16352,1687,9,-28,-19
2,990,165378,-628,-16367,1647,11,-28,-20
2,991,165383,-673,-16353,1634,12,-23,-19
2,992,165388,-640,-16412,1656,12,-16,-21
2,993,165393,-629,-16424,1656,7,-11,-18
2,994,165398,-609,-16386,1695,8,-3,-22
2,995,165403,-539,-16383,1723,7,4,-27
2,996,165408,-520,-16338,1787,9,5,-22
2,997,165413,-538,-16328,1790,8,6,-23
2,998,165418,-567,-16345,1697,8,7,-26
2,999,165423,-579,-16368,1638,7,6,-25
3,0,167383,-534,-16271,1586,15,-8,-16
3,1,167388,-534,-16306,1660,13,1,-18
3,2,167393,-532,-16287,1666,14,9,-14
3,3,167398,-510,-16277,1627,12,16,-15
3,4,167403,-541,-16276,1677,14,21,-16
3,5,167408,-576,-16289,1609,15,21,-16
3,6,167413,-498,-16343,1627,16,18,-15
3,7,167419,-518,-16356,1562,16,14,-12
3,8,167423,-552,-16402,1495,17,12,-13
3,9,167428,-605,-16413,1492,16,5,-14
3,10,167433,-660,-16418,1539,16,1,-13
3,11,167438,-683,-16426,1554,20,-5,-13
3,12,167443,-648,-16458,1554,21,-11,-12
3,13,167448,-620,-16466,1578,19,-14,-12
3,14,167453,-584,-16444,1639,18,-22,-11
3,15,167458,-595,-16420,1642,20,-28,-13
3,16,167463,-566,-16373,1655,20,-35,-11
3,17,167468,-550,-16386,1612,22,-39,-11
3,18,167473,-568,-16421,1615,22,-40,-13
3,19,167479,-552,-16396,1576,21,-34,-11
3,20,167483,-596,-16398,1468,22,-25,-11
3,21,167488,-650,-16439,1491,21,-13,-10
3,22,167493,-586,-16392,1537,19,1,-14
3,23,167498,-524,-16404,1574,20,11,-12
3,24,167503,-494,-16382,1562,19,22,-14
3,25,167508,-555,-16379,1559,19,31,-14
3,26,167513,-545,-16377,1565,19,34,-14
3,27,167518,-519,-16364,1612,16,32,-12
3,28,167523,-460,-16382,1692,16,23,-11
3,29,167528,-484,-16399,1630,18,11,-10
3,30,167533,-503,-16437,1566,18,4,-10
3,31,167539,-599,-16443,1529,20,-3,-9
3,32,167543,-635,-16450,1515,19,-7,-8
3,33,167548,-641,-16467,1578,19,-16,-7
3,34,167553,-644,-16422,1629,19,-22,-9
3,35,167558,-647,-16410,1648,21,-27,-7
3,36,167563,-664,-16406,1603,18,-25,-6
3,37,167568,-644,-16372,1587,16,-22,-7
3,38,167573,-593,-16378,1570,19,-24,-6
3,39,167578,-578,-16310,1594,19,-27,-5
3,40,167583,-534,-16262,1594,20,-27,-7
3,41,167588,-560,-16294,1567,15,-24,-5
3,42,167593,-554,-16278,1578,15,-16,-5
3,43,167599,-578,-16259,1545,14,-7,-7
3,44,167603,-513,-16244,1533,13,1,-4
3,45,167608,-513,-16257,1550,14,4,-4
3,46,167613,-540,-16262,1596,14,3,-2
3,47,167618,-562,-16348,1603,13,6,-1
3,48,167623,-603,-16368,1566,13,8,0
3,49,167628,-651,-16357,1543,13,5,-2
3,50,167633,-625,-16324,1636,11,5,1
3,51,167638,-581,-16384,1674,11,-5,-1
3,52,167643,-640,-16409,1642,13,-12,-1
3,53,167648,-693,-16449,1621,13,-15,2
3,54,167653,-687,-16422,1560,11,-17,0
3,55,167659,-648,-16410,1615,8,-19,1
3,56,167663,-628,-16369,1734,8,-25,3
3,57,167668,-581,-16339,1616,9,-29,4
3,58,167673,-574,-16396,1480,8,-21,3
3,59,167678,-602,-16365,1492,7,-9,0
3,60,167683,-615,-16371,1549,5,-2,3
3,61,167688,-555,-16329,1646,5,1,6
3,62,167693,-541,-16348,1571,5,5,3
3,63,167698,-680,-16350,1569,5,19,2
3,64,167703,-676,-16323,1560,4,28,4
3,65,167708,-677,-16342,1621,1,36,4
3,66,167713,-665,-16401,1692,1,34,2
3,67,167719,-666,-16400,1787,-3,30,5
3,68,167723,-666,-16400,1787,-3,30,5
3,69,167728,-742,-16440,1785,-4,22,2
3,70,167733,-754,-16463,1704,-3,17,3
3,71,167738,-759,-16486,1724,-3,14,5
3,72,167743,-751,-16483,1828,-9,-12,7
3,73,167748,-737,-16480,1699,-7,-30,7
3,74,167753,-688,-16504,1653,-7,-41,6
3,75,167758,-663,-16488,1707,-9,-52,6
3,76,167763,-643,-16490,1733,-9,-61,10
3,77,167768,-650,-16503,1684,-12,-66,9
3,78,167773,-659,-16496,1463,-10,-61,8
3,79,167779,-695,-16530,1328,-8,-44,11
3,80,167783,-727,-16545,1379,-9,-27,7
3,81,167788,-673,-16541,1547,-12,-18,6
3,82,167793,-566,-16545,1596,-14,-11,10
3,83,167798,-487,-16512,1615,-14,-1,9
3,84,167803,-496,-16498,1511,-14,14,7
3,85,167808,-602,-16499,1614,-15,27,8
3,86,167813,-642,-16485,1775,-16,27,8
3,87,167818,-580,-16515,1728,-15,18,11
3,88,167823,-533,-16530,1645,-15,15,12
3,89,167828,-659,-16554,1578,-16,13,13
3,90,167833,-745,-16563,1563,-20,9,8
3,91,167839,-743,-16531,1655,-20,-3,9
3,92,167843,-707,-16572,1645,-18,-19,14
3,93,167848,-646,-16544,1629,-20,-27,18
3,94,167853,-664,-16521,1644,-22,-33,13
3,95,167858,-775,-16523,1628,-19,-40,13
3,96,167863,-761,-16465,1639,-19,-48,12
3,97,167868,-676,-16434,1668,-22,-50,14
3,98,167873,-588,-16387,1603,-21,-46,15
3,99,167878,-550,-16371,1591,-22,-37,14
3,100,167883,-556,-16337,1577,-25,-36,14
3,101,167888,-646,-16338,1528,-21,-34,16
3,102,167893,-629,-16375,1480,-21,-29,19
3,103,167899,-514,-16350,1509,-23,-19,17
3,104,167903,-445,-16360,1571,-26,-10,17
3,105,167908,-399,-16289,1558,-27,3,18
3,106,167913,-482,-16285,1565,-26,7,16
3,107,167918,-545,-16280,1562,-23,8,18
3,108,167923,-578,-16306,1549,-24,13,21
3,109,167928,-566,-16302,1471,-27,18,18
3,110,167933,-605,-16345,1508,-26,24,18
3,111,167938,-645,-16327,1610,-28,20,18
3,112,167943,-549,-16340,1717,-29,13,21
3,113,167948,-508,-16319,1681,-26,3,22
3,114,167953,-528,-16362,1623,-24,-1,22
3,115,167958,-584,-16363,1511,-25,-6,24
3,116,167963,-656,-16355,1567,-26,-12,25
3,117,167968,-624,-16377,1557,-27,-16,24
3,118,167973,-635,-16441,1442,-26,-14,27
3,119,167978,-610,-16426,1460,-27,-4,23
3,120,167983,-679,-16424,1475,-26,8,23
3,121,167988,-760,-16427,1488,-26,14,20
3,122,167993,-786,-16413,1462,-26,19,22
3,123,167998,-735,-16437,1490,-27,21,24
3,124,168003,-673,-16502,1608,-25,21,24
3,125,168008,-706,-16469,1722,-26,21,23
3,126,168013,-749,-16460,1665,-26,17,20
3,127,168018,-771,-16446,1576,-25,11,21
3,128,168023,-737,-16435,1609,-26,6,21
3,129,168028,-702,-16402,1661,-26,-4,20
3,130,168033,-661,-16452,1685,-26,-12,23
3,131,168038,-680,-16471,1652,-25,-19,22
3,132,168043,-722,-16439,1597,-27,-18,19
3,133,168048,-756,-16402,1545,-26,-16,20
3,134,168053,-774,-16417,1587,-24,-17,21
3,135,168058,-792,-16452,1573,-28,-21,22
3,136,168063,-759,-16502,1592,-25,-23,17
3,137,168068,-758,-16505,1549,-22,-23,17
3,138,168073,-775,-16478,1526,-25,-20,19
3,139,168078,-731,-16476,1549,-25,-21,19
3,140,168083,-722,-16485,1552,-25,-26,16
3,141,168088,-683,-16494,1559,-22,-33,16
3,142,168093,-656,-16508,1540,-21,-32,16
3,143,168098,-663,-16513,1495,-21,-29,17
3,144,168103,-670,-16488,1463,-22,-23,15
3,145,168108,-666,-16498,1416,-17,-13,17
3,146,168113,-637,-16544,1412,-19,-9,14
3,147,168118,-628,-16516,1441,-20,-2,13
3,148,168123,-667,-16557,1429,-18,4,15
3,149,168128,-640,-16489,1451,-18,9,11
3,150,168133,-645,-16457,1461,-15,8,14
3,151,168138,-632,-16478,1497,-14,3,17
3,152,168143,-605,-16452,1554,-14,-1,14
3,153,168148,-654,-16455,1520,-12,-4,12
3,154,168153,-744,-16445,1466,-13,-3,14
3,155,168158,-835,-16504,1429,-9,0,14
3,156,168163,-806,-16533,1405,-8,3,14
3,157,168168,-763,-16527,1528,-7,4,11
3,158,168173,-711,-16490,1643,-7,3,12
3,159,168178,-667,-16478,1760,-8,0,13
3,160,168183,-659,-16449,1718,-9,-7,13
3,161,168188,-681,-16437,1585,-4,-9,12
3,162,168193,-746,-16434,1500,-4,-11,10
3,163,168198,-808,-16423,1540,-6,-10,11
3,164,168203,-775,-16442,1566,-5,-11,11
3,165,168208,-819,-16461,1537,-4,-11,10
3,166,168213,-841,-16506,1402,-1,-4,7
3,167,168218,-790,-16489,1443,1,0,7
3,168,168223,-750,-16460,1572,-2,-1,6
3,169,168228,-706,-16446,1676,-3,-7,5
3,170,168233,-711,-16444,1619,0,-16,6
3,171,168238,-701,-16479,1538,5,-17,2
3,172,168243,-732,-16447,1517,2,-10,1
3,173,168248,-741,-16414,1589,0,-10,2
3,174,168253,-713,-16426,1630,1,-11,2
3,175,168258,-655,-16429,1606,4,-7,4
3,176,168263,-659,-16470,1504,4,1,0
3,177,168268,-719,-16453,1525,4,7,-2
3,178,168273,-762,-16462,1593,3,6,-1
3,179,168278,-743,-16447,1609,5,0,0
3,180,168283,-684,-16458,1593,7,-5,-3
3,181,168288,-665,-16410,1591,6,-8,0
3,182,168293,-693,-16498,1648,4,-8,-1
3,183,168298,-809,-16550,1654,7,-11,-2
3,184,168303,-811,-16522,1605,9,-23,-2
3,185,168308,-766,-16490,1571,9,-27,-1
3,186,168313,-731,-16481,1547,7,-28,-4
3,187,168318,-676,-16414,1592,8,-31,-7
3,188,168323,-650,-16449,1621,10,-41,-3
3,189,168328,-637,-16479,1565,13,-45,-1
3,190,168333,-643,-16524,1469,14,-43,-5
3,191,168338,-669,-16479,1412,11,-33,-6
3,192,168343,-674,-16505,1386,13,-23,-4
3,193,168348,-631,-16496,1442,14,-17,-5
3,194,168353,-583,-16492,1464,13,-15,-7
3,195,168358,-588,-16484,1461,16,-4,-5
3,196,168363,-617,-16492,1440,17,5,-7
3,197,168368,-647,-16524,1434,16,12,-6
3,198,168373,-624,-16537,1408,17,14,-5
3,199,168378,-685,-16529,1434,18,18,-7
3,200,168383,-739,-16578,1511,18,18,-8
3,201,168388,-755,-16578,1599,17,16,-6
3,202,168393,-748,-16511,1576,19,15,-8
3,203,168398,-765,-16520,1564,21,10,-8
3,204,168403,-721,-16472,1566,22,0,-7
3,205,168408,-691,-16422,1591,19,-9,-7
3,206,168413,-659,-16420,1687,23,-27,-3
3,207,168418,-587,-16411,1621,23,-43,-7
3,208,168423,-629,-16425,1519,24,-46,-8
3,209,168428,-693,-16409,1430,28,-36,-7
3,210,168433,-722,-16418,1400,26,-26,-7
3,211,168438,-681,-16379,1409,26,-15,-8
3,212,168443,-681,-16384,1494,25,-7,-6
3,213,168448,-661,-16383,1528,23,5,-6
3,214,168453,-683,-16387,1548,24,18,-9
3,215,168458,-699,-16381,1541,26,28,-9
3,216,168463,-697,-16388,1533,25,35,-8
3,217,168468,-698,-16379,1588,25,33,-8
3,218,168473,-686,-16401,1599,28,18,-10
3,219,168478,-702,-16427,1628,27,14,-9
3,220,168483,-647,-16392,1621,26,12,-8
3,221,168488,-645,-16399,1616,26,8,-8
3,222,168493,-707,-16387,1572,25,7,-9
3,223,168498,-767,-16381,1501,25,3,-8
3,224,168503,-785,-16414,1464,29,4,-6
3,225,168508,-817,-16441,1472,28,5,-5
3,226,168513,-801,-16455,1531,27,10,-10
3,227,168518,-783,-16411,1615,29,9,-10
3,228,168523,-809,-16360,1637,28,4,-8
3,229,168528,-798,-16343,1698,30,-1,-9
3,230,168533,-783,-16338,1712,30,-8,-7
3,231,168538,-772,-16320,1692,29,-11,-6
3,232,168543,-783,-16307,1712,28,-11,-10
3,233,168548,-775,-16321,1692,25,-17,-11
3,234,168553,-759,-16306,1703,22,-21,-10
3,235,168558,-707,-16246,1632,27,-21,-8
3,236,168563,-706,-16272,1624,25,-18,-12
3,237,168568,-694,-16304,1615,25,-15,-11
3,238,168573,-688,-16303,1600,26,-14,-7
3,239,168578,-656,-16306,1567,22,-12,-9
3,240,168583,-653,-16309,1562,22,-6,-11
3,241,168588,-654,-16363,1537,22,-2,-9
3,242,168593,-694,-16364,1561,24,1,-6
3,243,168598,-716,-16385,1573,22,3,-8
3,244,168603,-733,-16353,1614,21,7,-9
3,245,168608,-737,-16359,1604,22,6,-8
3,246,168613,-734,-16408,1538,22,6,-10
3,247,168618,-779,-16463,1469,23,2,-7
3,248,168623,-786,-16441,1519,24,-4,-10
3,249,168628,-805,-16444,1609,23,-15,-6
3,250,168633,-814,-16439,1620,22,-25,-7
3,251,168638,-735,-16399,1595,23,-30,-8
3,252,168643,-749,-16385,1595,23,-35,-3
3,253,168648,-729,-16363,1644,21,-34,-5
3,254,168653,-780,-16334,1630,19,-32,-4
3,255,168658,-761,-16321,1608,22,-29,0
3,256,168663,-759,-16379,1661,19,-16,-5
3,257,168668,-786,-16382,1564,16,-7,-5
3,258,168673,-820,-16447,1409,19,6,-2
3,259,168678,-889,-16444,1324,19,21,-5
3,260,168683,-916,-16452,1494,17,39,-2
3,261,168688,-867,-16387,1596,16,53,-6
3,262,168693,-842,-16316,1545,17,67,-3
3,263,168698,-805,-16354,1526,19,78,-3
3,264,168703,-823,-16352,1598,12,87,-4
3,265,168708,-794,-16316,1761,13,74,1
3,266,168713,-730,-16322,1779,14,48,2
3,267,168718,-723,-16290,1694,17,26,-1
3,268,168723,-732,-16335,1617,16,12,4
3,269,168728,-712,-16291,1676,9,0,5
3,270,168733,-771,-16290,1674,11,-11,8
3,271,168738,-846,-16294,1438,17,-15,9
3,272,168743,-908,-16316,1218,14,0,7
3,273,168748,-878,-16327,1321,12,24,6
3,274,168753,-820,-16301,1488,9,34,7
3,275,168758,-753,-16287,1573,11,36,9
3,276,168763,-689,-16272,1567,13,36,12
3,277,168768,-718,-16315,1525,9,46,13
3,278,168773,-790,-16325,1533,10,53,10
3,279,168778,-847,-16243,1657,9,46,14
3,280,168783,-823,-16316,1609,11,36,15
3,281,168788,-925,-16340,1566,9,34,18
3,282,168793,-843,-16339,1606,9,27,16
3,283,168798,-785,-16309,1886,8,15,19
3,284,168803,-750,-16284,2011,7,-9,22
3,285,168808,-729,-16283,1854,8,-34,20
3,286,168813,-762,-16259,1649,7,-51,24
3,287,168818,-810,-16242,1565,6,-60,26
3,288,168823,-759,-16283,1646,1,-74,29
3,289,168828,-757,-16280,1643,2,-84,31
3,290,168833,-737,-16301,1497,4,-83,32
3,291,168838,-799,-16292,1307,4,-67,32
3,292,168843,-803,-16257,1414,2,-28,33
3,293,168848,-774,-16276,1475,0,-18,33
3,294,168853,-703,-16307,1439,3,-8,36
3,295,168858,-724,-16316,1432,1,13,33
3,296,168863,-795,-16343,1437,1,24,32
3,297,168868,-818,-16353,1562,-2,29,34
3,298,168873,-804,-16340,1574,-1,24,39
3,299,168878,-744,-16369,1580,0,21,40
3,300,168883,-758,-16375,1594,0,21,39
3,301,168888,-814,-16442,1615,-1,12,42
3,302,168893,-825,-16411,1657,-1,-2,44
3,303,168898,-819,-16389,1639,-3,-18,44
3,304,168903,-794,-16407,1604,-1,-28,45
3,305,168908,-794,-16387,1649,-2,-36,43
3,306,168913,-803,-16374,1684,-4,-46,47
3,307,168918,-847,-16352,1714,-5,-51,48
3,308,168923,-873,-16331,1626,-2,-52,45
3,309,168928,-838,-16348,1617,-7,-45,50
3,310,168933,-768,-16311,1627,-6,-39,52
3,311,168938,-735,-16332,1651,-6,-30,51
3,312,168943,-806,-16320,1748,-8,-32,52
3,313,168948,-852,-16251,1735,-9,-36,51
3,314,168953,-852,-16293,1544,-8,-29,53
3,315,168958,-831,-16348,1451,-8,-17,54
3,316,168963,-865,-16352,1527,-13,-3,52
3,317,168968,-822,-16363,1605,-13,0,53
3,318,168973,-810,-16343,1593,-12,-8,55
3,319,168978,-803,-16354,1547,-9,-10,57
3,320,168983,-768,-16397,1571,-13,-7,54
3,321,168988,-748,-16368,1669,-14,-5,55
3,322,168993,-740,-16378,1819,-13,-11,58
3,323,168998,-751,-16337,1768,-11,-21,58
3,324,169003,-800,-16382,1606,-11,-23,60
3,325,169008,-824,-16416,1599,-9,-18,61
3,326,169013,-890,-16421,1565,-16,-18,60
3,327,169018,-980,-16438,1654,-13,-22,62
3,328,169023,-999,-16440,1550,-13,-28,64
3,329,169028,-924,-16494,1548,-15,-19,61
3,330,169033,-943,-16442,1561,-11,-10,62
3,331,169038,-915,-16430,1585,-16,-1,60
3,332,169043,-917,-16428,1646,-15,2,57
3,333,169048,-891,-16455,1539,-14,-10,60
3,334,169053,-891,-16484,1604,-15,-11,61
3,335,169058,-910,-16468,1534,-15,-10,59
3,336,169063,-1010,-16439,1571,-16,-4,59
3,337,169068,-1127,-16445,1595,-16,-1,59
3,338,169073,-1112,-16453,1598,-17,6,58
3,339,169078,-1164,-16426,1575,-17,14,55
3,340,169083,-1101,-16464,1574,-17,17,55
3,341,169088,-1120,-16442,1727,-17,14,53
3,342,169093,-1137,-16457,1864,-19,3,52
3,343,169098,-1041,-16433,1913,-19,-10,54
3,344,169103,-975,-16462,1859,-16,-18,54
3,345,169108,-1064,-16458,1841,-18,-17,50
3,346,169113,-1170,-16402,1845,-21,-33,51
3,347,169118,-1289,-16392,1783,-22,-53,53
3,348,169123,-1202,-16375,1618,-21,-61,53
3,349,169128,-1195,-16393,1580,-23,-55,55
3,350,169133,-1218,-16435,1660,-23,-53,54
3,351,169138,-1168,-16439,1681,-21,-67,52
3,352,169143,-1160,-16351,1801,-23,-78,54
3,353,169148,-1200,-16298,1835,-23,-83,54
3,354,169153,-1250,-16379,1819,-23,-81,54
3,355,169158,-1272,-16358,1518,-21,-72,54
3,356,169163,-1216,-16361,1460,-16,-68,58
3,357,169168,-1218,-16358,1853,-18,-71,61
3,358,169173,-1141,-16414,2095,-20,-96,58
3,359,169178,-891,-16418,1958,-18,-126,63
3,360,169183,-1047,-16371,1814,-17,-132,68
3,361,169188,-1400,-16401,1799,-17,-138,72
3,362,169193,-1422,-16434,1866,-16,-166,79
3,363,169198,-1046,-16498,1850,-12,-213,86
3,364,169203,-776,-16488,2065,-12,-257,91
3,365,169208,-1104,-16459,2041,-7,-364,107
3,366,169213,-1224,-16434,1669,-3,-397,114
3,367,169218,-1232,-16465,1438,-2,-401,124
3,368,169223,-1180,-16554,1534,0,-388,130
3,369,169228,-1173,-16584,1528,2,-381,137
3,370,169233,-1178,-16526,1276,9,-365,142
3,371,169238,-1253,-16429,965,15,-322,145
3,372,169243,-1337,-16392,880,17,-254,151
3,373,169248,-1265,-16306,975,19,-187,158
3,374,169253,-1059,-16194,1137,21,-128,167
3,375,169258,-1089,-16147,1271,29,-74,172
3,376,169263,-1357,-16158,1196,34,-15,174
3,377,169268,-1604,-16088,1351,39,38,183
3,378,169273,-1540,-16106,1718,41,64,195
3,379,169278,-1195,-16160,2221,46,51,213
3,380,169283,-906,-16257,2729,56,-11,230
3,381,169288,-900,-16307,2887,65,-122,243
3,382,169293,-1251,-16308,2751,72,-256,261
3,383,169298,-1543,-16362,2262,81,-389,285
3,384,169303,-1695,-16378,1833,87,-479,304
3,385,169308,-1750,-16436,1671,97,-522,318
3,386,169313,-1814,-16411,1582,104,-525,329
3,387,169318,-1856,-16382,1317,112,-500,340
3,388,169323,-2032,-16344,1175,121,-443,347
3,389,169328,-2213,-16284,1243,129,-375,356
3,390,169333,-2218,-16204,1468,132,-300,366
3,391,169338,-2098,-16125,1668,140,-229,373
3,392,169343,-2183,-16136,2010,147,-173,384
3,393,169348,-2305,-16031,2228,156,-144,391
3,394,169353,-2393,-15916,2369,167,-131,407
3,395,169358,-2357,-15934,2450,173,-138,422
3,396,169363,-2265,-16000,2685,178,-153,434
3,397,169368,-2354,-15988,2870,182,-184,446
3,398,169373,-2467,-16005,2647,191,-223,463
3,399,169378,-2606,-15954,2325,200,-237,477
3,400,169383,-2716,-15932,2212,206,-223,486
3,401,169388,-2715,-15954,2424,208,-195,492
3,402,169393,-2707,-15885,2590,214,-182,502
3,403,169398,-2683,-15933,2262,225,-183,515
3,404,169403,-2978,-15868,2219,232,-151,524
3,405,169408,-3100,-15930,2570,238,-134,537
3,406,169413,-2947,-15874,2814,244,-158,550
3,407,169418,-2550,-15897,2841,252,-209,566
3,408,169423,-2484,-15944,3159,262,-261,576
3,409,169428,-2824,-15906,3094,270,-339,587
3,410,169433,-3239,-15894,2746,280,-413,607
3,411,169438,-3293,-15965,2228,290,-447,620
3,412,169443,-3155,-16005,2057,296,-410,627
3,413,169448,-3031,-15991,2348,300,-337,629
3,414,169453,-3117,-15936,2547,308,-284,636
3,415,169458,-3298,-15922,2528,315,-258,645
3,416,169463,-3382,-15937,2285,323,-230,649
3,417,169468,-3471,-15869,2432,326,-172,657
3,418,169473,-3428,-15883,2882,326,-123,665
3,419,169478,-3212,-15947,3199,334,-110,672
3,420,169483,-3284,-15806,3302,339,-124,677
3,421,169488,-3456,-15794,3231,347,-166,693
3,422,169493,-3731,-15746,3225,351,-187,700
3,423,169498,-3831,-15751,3136,356,-202,706
3,424,169503,-3815,-15783,3088,357,-194,713
3,425,169508,-3828,-15803,2996,363,-184,713
3,426,169513,-3919,-15830,3015,367,-179,722
3,427,169518,-3915,-15868,3075,370,-194,728
3,428,169523,-3868,-15751,3247,373,-209,732
3,429,169528,-3810,-15766,3135,377,-220,739
3,430,169533,-3805,-15927,2923,383,-211,742
3,431,169538,-3866,-15905,2845,386,-200,740
3,432,169543,-3935,-15849,2843,390,-198,747
3,433,169548,-4016,-15885,2911,393,-192,752
3,434,169553,-3915,-15891,2986,397,-183,755
3,435,169558,-3806,-15936,2879,400,-158,758
3,436,169563,-3839,-15916,2956,399,-117,756
3,437,169568,-4133,-15859,3049,399,-91,755
3,438,169573,-4342,-15911,2909,403,-71,763
3,439,169578,-4128,-15965,3032,406,-55,761
3,440,169583,-3982,-15969,3418,404,-39,757
3,441,169588,-4065,-15882,3539,402,-40,757
3,442,169593,-4236,-15844,3439,407,-57,757
3,443,169598,-4311,-15900,3046,408,-69,757
3,444,169603,-4336,-15894,3013,404,-57,757
3,445,169608,-4334,-15874,3198,401,-40,753
3,446,169613,-4352,-15908,3377,403,-34,750
3,447,169618,-4433,-15916,3276,402,-35,744
3,448,169623,-4482,-15868,3129,403,-22,741
3,449,169628,-4565,-15772,3155,394,-1,736
3,450,169633,-4526,-15758,3356,394,14,728
3,451,169638,-4529,-15735,3483,393,10,725
3,452,169643,-4500,-15785,3386,390,2,721
3,453,169648,-4566,-15787,3384,387,10,715
3,454,169653,-4656,-15743,3408,383,24,704
3,455,169658,-4720,-15621,3308,379,43,699
3,456,169663,-4786,-15595,3334,376,66,688
3,457,169668,-4955,-15594,3370,369,90,678
3,458,169673,-4937,-15595,3605,361,114,665
3,459,169678,-4939,-15539,3725,353,138,653
3,460,169683,-4856,-15541,3831,347,158,642
3,461,169688,-4886,-15411,3793,341,165,629
3,462,169693,-4958,-15454,3920,335,158,619
3,463,169698,-5097,-15393,4139,322,140,606
3,464,169703,-5111,-15326,4173,313,112,593
3,465,169708,-5100,-15396,4109,305,101,581
3,466,169713,-5106,-15434,4000,297,94,565
3,467,169718,-5241,-15391,3925,288,77,547
3,468,169723,-5408,-15407,3979,282,48,533
3,469,169728,-5502,-15397,4013,273,5,521
3,470,169733,-5407,-15378,3791,264,-24,506
3,471,169738,-5266,-15387,3817,257,-29,487
3,472,169743,-5205,-15316,4031,245,-42,464
3,473,169748,-5189,-15363,4173,237,-77,451
3,474,169753,-5208,-15326,3899,227,-115,436
3,475,169758,-5193,-15357,3500,218,-118,416
3,476,169763,-5206,-15377,3327,205,-88,393
3,477,169768,-5268,-15428,3514,196,-48,373
3,478,169773,-5207,-15427,3710,189,-32,353
3,479,169778,-5081,-15466,3371,180,-22,333
3,480,169783,-5134,-15427,3286,168,25,309
3,481,169788,-5220,-15455,3344,157,73,286
3,482,169793,-5313,-15392,3526,144,106,263
3,483,169798,-5286,-15335,3591,135,115,242
3,484,169803,-5341,-15246,3630,126,126,223
3,485,169808,-5415,-15237,3837,115,136,202
3,486,169813,-5377,-15177,3970,106,115,178
3,487,169818,-5228,-15198,4158,93,66,164
3,488,169823,-5235,-15193,4369,84,-11,144
3,489,169828,-5176,-15107,4368,76,-106,127
3,490,169833,-5139,-15103,4207,68,-183,111
3,491,169838,-5054,-15122,3858,58,-239,90
3,492,169843,-5074,-15125,3617,46,-264,72
3,493,169848,-5096,-15132,3364,36,-267,47
3,494,169853,-5146,-15162,3177,28,-245,26
3,495,169858,-5168,-15202,3063,16,-208,6
3,496,169863,-5089,-15162,3047,4,-143,-23
3,497,169868,-5053,-15160,3055,-6,-79,-47
3,498,169873,-4956,-15130,3150,-19,-25,-68
3,499,169878,-4888,-15099,3281,-27,10,-94
3,500,169883,-4750,-15117,3410,-40,35,-118
3,501,169888,-4751,-15113,3374,-48,59,-135
3,502,169893,-4777,-15108,3431,-58,90,-158
3,503,169898,-4866,-15095,3228,-66,115,-180
3,504,169903,-4917,-15064,3220,-79,135,-200
3,505,169908,-4913,-15011,3276,-93,141,-220
3,506,169913,-4698,-15121,3455,-103,144,-239
3,507,169918,-4649,-15128,3587,-110,144,-261
3,508,169923,-4750,-15144,3601,-117,139,-281
3,509,169928,-4853,-15117,3434,-127,134,-303
3,510,169933,-4742,-15098,3479,-134,119,-321
3,511,169938,-4383,-15048,3747,-159,55,-360
3,512,169943,-4351,-15182,3515,-165,13,-379
3,513,169948,-4541,-15209,3099,-172,-7,-399
3,514,169953,-4696,-15178,3012,-185,0,-419
3,515,169958,-4780,-15163,3103,-197,14,-434
3,516,169963,-4578,-15155,3014,-202,37,-456
3,517,169968,-4503,-15133,2945,-213,68,-478
3,518,169973,-4558,-15173,3032,-226,105,-503
3,519,169978,-4642,-15126,3166,-235,137,-521
3,520,169983,-4583,-15167,3123,-244,155,-543
3,521,169988,-4471,-15205,3108,-253,178,-561
3,522,169993,-4362,-15295,3139,-263,196,-581
3,523,169998,-4327,-15268,3290,-272,197,-604
3,524,170003,-4418,-15362,3374,-277,186,-616
3,525,170008,-4465,-15440,3218,-285,161,-630
3,526,170013,-4316,-15346,3128,-293,144,-650
3,527,170018,-4249,-15480,3101,-300,127,-659
3,528,170023,-4321,-15605,3152,-306,99,-681
3,529,170028,-4310,-15539,3196,-315,55,-700
3,530,170033,-4336,-15543,3212,-322,31,-712
3,531,170038,-4210,-15655,3013,-329,20,-728
3,532,170043,-4055,-15607,3005,-337,27,-743
3,533,170048,-4049,-15584,3068,-346,24,-761
3,534,170053,-4103,-15666,3121,-352,4,-775
3,535,170058,-4068,-15630,2909,-358,-17,-794
3,536,170063,-4011,-15652,2865,-366,-10,-801
3,537,170068,-3940,-15655,2699,-373,8,-815
3,538,170073,-3933,-15592,2847,-385,37,-839
3,539,170078,-3920,-15605,2884,-395,51,-855
3,540,170083,-3775,-15686,2912,-398,59,-863
3,541,170088,-3699,-15677,2985,-405,71,-877
3,542,170093,-3707,-15773,3007,-413,79,-889
3,543,170098,-3726,-15857,3055,-418,79,-900
3,544,170103,-3723,-15905,3023,-423,69,-915
3,545,170108,-3609,-15925,3118,-430,43,-921
3,546,170113,-3529,-15936,3292,-436,8,-931
3,547,170118,-3620,-15966,3227,-438,-38,-938
3,548,170123,-3626,-16022,3104,-441,-77,-945
3,549,170128,-3429,-16038,2900,-449,-111,-951
3,550,170133,-3262,-16035,3032,-457,-129,-959
3,551,170138,-3136,-16100,3079,-463,-156,-967
3,552,170143,-3134,-16172,2875,-463,-186,-970
3,553,170148,-3253,-16268,2454,-468,-194,-976
3,554,170153,-3279,-16347,2318,-474,-170,-984
3,555,170158,-3033,-16314,2316,-481,-140,-989
3,556,170163,-2800,-16330,2538,-487,-110,-994
3,557,170168,-2578,-16317,2524,-485,-99,-1002
3,558,170173,-2553,-16428,2262,-489,-84,-1006
3,559,170178,-2638,-16546,2082,-489,-56,-1010
3,560,170183,-2989,-16341,2042,-493,-28,-1012
3,561,170188,-2939,-16483,2301,-494,6,-1006
3,562,170193,-1041,-16686,1471,-484,-8,-1013
3,563,170198,-2819,-16717,2584,-501,108,-1027
3,564,170203,-3143,-16329,2296,-476,7,-1016
3,565,170208,-1724,-17062,1594,-475,-27,-993
3,566,170213,-1672,-16546,1454,-477,12,-1010
3,567,170218,-1130,-16956,2327,-479,18,-1004
3,568,170223,-2194,-16511,2901,-471,-57,-1006
3,569,170228,-2017,-16832,1657,-458,-148,-986
3,570,170233,-2079,-16671,946,-454,-103,-982
3,571,170238,-1459,-16731,1212,-460,-2,-987
3,572,170243,-1514,-16651,2228,-465,68,-992
3,573,170248,-1464,-16674,2258,-455,47,-985
3,574,170253,-1673,-16785,1664,-443,49,-978
3,575,170258,-1503,-16733,984,-440,112,-974
3,576,170263,-1529,-16810,1400,-444,225,-975
3,577,170268,-1624,-16786,1728,-439,271,-975
3,578,170273,-1643,-16904,2043,-429,286,-968
3,579,170278,-1606,-16782,1825,-415,291,-959
3,580,170283,-1496,-16812,1916,-410,334,-958
3,581,170288,-1498,-16783,2342,-410,349,-957
3,582,170293,-1367,-16842,2830,-396,301,-943
3,583,170298,-942,-16915,2824,-384,193,-929
3,584,170303,-711,-16861,2450,-371,24,-909
3,585,170308,-969,-16849,2105,-365,-27,-895
3,586,170313,-1078,-16838,1542,-358,-52,-882
3,587,170318,-969,-16786,1232,-353,-28,-877
3,588,170323,-812,-16822,1123,-347,39,-871
3,589,170328,-775,-16823,1051,-342,126,-869
3,590,170333,-790,-16862,975,-335,219,-863
3,591,170338,-781,-16791,956,-326,315,-861
3,592,170343,-630,-16749,1127,-322,399,-859
3,593,170348,-539,-16687,1634,-314,472,-856
3,594,170353,-394,-16626,1836,-306,515,-848
3,595,170358,-232,-16562,2011,-297,563,-838
3,596,170363,-211,-16494,2153,-292,602,-835
3,597,170368,-1282,-13541,1831,-282,618,-824
3,598,170373,14013,-26706,-21429,-193,685,-823
3,599,170378,-22198,-7903,-7803,-179,3293,-1253
3,600,170383,-32768,-6707,32767,59,6314,319
3,601,170388,3693,-3429,5637,784,4730,1473
3,602,170393,32767,-26065,-9502,676,5346,651
3,603,170398,15807,-19165,25221,-13,6592,-1130
3,604,170403,-32768,-14477,32767,-32,913,-810
3,605,170408,-32768,-709,20412,702,-10016,1074
3,606,170413,-178,-18049,-31523,839,-11651,2593
3,607,170418,32767,-25887,-32768,341,-2438,1182
3,608,170423,24677,-23361,-833,-102,6910,-1204
3,609,170428,-32240,-6715,32767,-399,5991,-1568
3,610,170433,-32768,-8700,12939,849,-5920,1022
3,611,170438,904,-21585,-32768,1128,-9056,2295
3,612,170443,27976,-20469,-32768,338,-975,636
3,613,170448,17567,-20366,-3096,-7,6876,-816
3,614,170453,-23267,-10575,32767,-223,7257,-1208
3,615,170458,-22732,-10507,19308,524,-1788,455
3,616,170463,5956,-19936,-29082,923,-5520,1657
3,617,170468,16019,-20279,-32768,308,-747,609
3,618,170473,3623,-16442,5441,72,4287,-484
3,619,170478,-12549,-12883,32767,15,4272,-615
3,620,170483,-11602,-11618,19695,474,-711,356
3,621,170488,8453,-19823,-23389,750,-3628,1208
3,622,170493,7745,-18410,-19081,271,-689,415
3,623,170498,-3839,-14729,9466,70,1731,-196
3,624,170503,-9233,-14258,25813,179,1054,-6
3,625,170508,-2568,-15215,4391,461,-993,441
3,626,170513,5882,-18349,-16678,483,-1082,580
3,627,170518,3026,-16948,-6818,226,652,167
3,628,170523,-5526,-14832,13412,124,1200,-46
3,629,170528,-6417,-14437,13530,255,-62,169
3,630,170533,591,-16681,-2362,409,-927,450
3,631,170538,4619,-17933,-9805,326,-72,346
3,632,170543,-57,-16239,2396,173,1119,61
3,633,170548,-4839,-15146,11411,187,703,61
3,634,170553,-4369,-15411,6773,299,-440,249
3,635,170558,810,-16977,-4324,343,-792,376
3,636,170563,2119,-17477,-4269,250,117,238
3,637,170568,-1200,-16436,4811,163,779,73
3,638,170573,-3650,-15767,8441,202,301,123
3,639,170578,-2265,-16311,2105,288,-474,259
3,640,170583,230,-17058,-3592,289,-423,272
3,641,170588,192,-17048,-630,214,254,174
3,642,170593,-1740,-16555,5417,170,528,113
3,643,170598,-2254,-16432,5653,209,101,161
3,644,170603,-864,-16792,599,253,-301,221
3,645,170608,-101,-17022,-1133,229,-123,202
3,646,170613,-801,-16851,1924,185,221,147
3,647,170618,-1724,-16498,4894,176,221,135
3,648,170623,-1337,-16646,3192,201,-89,181
3,649,170628,-456,-16909,440,210,-192,198
3,650,170633,-458,-16735,844,183,-25,163
3,651,170638,-1141,-16571,3046,159,79,141
3,652,170643,-1523,-16474,3561,162,-33,155
3,653,170648,-970,-16564,1838,175,-163,179
3,654,170653,-556,-16629,923,170,-102,174
3,655,170658,-810,-16473,1996,149,20,146
3,656,170663,-1241,-16317,3161,138,10,141
3,657,170668,-829,-16463,1583,142,-108,163
3,658,170673,-808,-16412,1674,131,-15,147
3,659,170678,-1130,-16390,2474,121,39,139
3,660,170683,-1254,-16342,2705,114,-12,142
3,661,170688,-1121,-16356,2138,116,-72,152
3,662,170693,-959,-16410,1923,110,-48,146
3,663,170698,-1107,-16280,2303,97,11,133
3,664,170703,-1321,-16260,2745,87,27,129
3,665,170708,-1355,-16316,2535,86,-2,135
3,666,170713,-1111,-16389,2318,82,-4,133
3,667,170718,-1070,-16302,2552,74,25,124
3,668,170723,-1174,-16259,2706,63,27,120
3,669,170728,-1306,-16325,2617,58,6,120
3,670,170733,-1371,-16295,2334,55,-19,121
3,671,170738,-1255,-16297,2417,46,-8,117
3,672,170743,-1247,-16260,2648,36,-6,113
3,673,170748,-1348,-16268,2748,33,-15,109
3,674,170753,-1496,-16248,2469,30,-28,108
3,675,170758,-1507,-16295,2279,24,-26,109
3,676,170763,-1392,-16243,2475,14,-18,98
3,677,170768,-1283,-16227,2853,10,-31,93
3,678,170773,-1323,-16201,2851,7,-59,92
3,679,170778,-1396,-16159,2514,5,-73,89
3,680,170783,-1417,-16190,2278,1,-63,89
3,681,170788,-1431,-16208,2285,-9,-46,83
3,682,170793,-1424,-16239,2457,-14,-32,78
3,683,170798,-1419,-16225,2548,-17,-24,75
3,684,170803,-1393,-16218,2395,-22,-7,70
3,685,170808,-1310,-16193,2338,-24,16,64
3,686,170813,-1259,-16189,2449,-32,30,59
3,687,170818,-1252,-16171,2726,-36,27,60
3,688,170823,-1284,-16149,2831,-41,13,57
3,689,170828,-1290,-16235,2621,-43,1,53
3,690,170833,-1297,-16248,2393,-49,7,51
3,691,170838,-1329,-16226,2499,-55,20,47
3,692,170843,-1358,-16194,2672,-60,26,41
3,693,170848,-1347,-16192,2684,-61,23,41
3,694,170853,-1459,-16281,2376,-59,19,38
3,695,170858,-1566,-16388,2113,-58,31,32
3,696,170863,-1600,-16440,2229,-66,39,25
3,697,170868,-1525,-16333,2604,-72,33,20
3,698,170873,-1388,-16236,2755,-72,12,22
3,699,170878,-1332,-16204,2731,-70,-8,15
3,700,170883,-1311,-16204,2575,-73,-18,15
3,701,170888,-1327,-16137,2579,-78,-30,13
3,702,170893,-1384,-16182,2574,-80,-49,10
3,703,170898,-1395,-16179,2454,-82,-66,7
3,704,170903,-1295,-16236,2351,-83,-73,7
3,705,170908,-1228,-16228,2434,-88,-60,0
3,706,170913,-1265,-16146,2557,-90,-41,-7
3,707,170918,-1303,-16039,2541,-89,-34,-10
3,708,170923,-1342,-16032,2450,-88,-32,-12
3,709,170928,-1189,-16023,2512,-93,-28,-14
3,710,170933,-1141,-16049,2556,-98,-19,-17
3,711,170938,-1173,-16040,2652,-99,-21,-21
3,712,170943,-1271,-16043,2584,-99,-20,-23
3,713,170948,-1390,-16144,2431,-99,-10,-24
3,714,170953,-1424,-16176,2324,-101,4,-31
3,715,170958,-1334,-16205,2462,-102,17,-36
3,716,170963,-1239,-16154,2678,-106,16,-38
3,717,170968,-1201,-16160,2716,-105,-1,-38
3,718,170973,-1297,-16163,2574,-104,-15,-41
3,719,170978,-1383,-16212,2392,-103,-28,-43
3,720,170983,-1391,-16244,2328,-105,-33,-45
3,721,170988,-1369,-16265,2362,-106,-43,-49
3,722,170993,-1325,-16276,2459,-106,-49,-48
3,723,170998,-1351,-16225,2447,-105,-47,-52
3,724,171003,-1321,-16231,2373,-102,-43,-56
3,725,171008,-1286,-16206,2376,-106,-32,-61
3,726,171013,-1189,-16165,2389,-105,-23,-63
3,727,171018,-1159,-16137,2455,-106,-21,-69
3,728,171023,-1196,-16180,2494,-106,-22,-70
3,729,171028,-1283,-16124,2472,-106,-25,-68
3,730,171033,-1146,-16156,2401,-105,-4,-75
3,731,171038,-1231,-16149,2449,-106,6,-81
3,732,171043,-1267,-16150,2492,-105,8,-80
3,733,171048,-1238,-16127,2525,-105,-7,-79
3,734,171053,-1122,-16142,2491,-105,-13,-80
3,735,171058,-1095,-16153,2488,-104,-15,-84
3,736,171063,-1235,-16192,2473,-104,-17,-86
3,737,171068,-1314,-16260,2375,-101,-24,-89
3,738,171073,-1251,-16217,2263,-102,-29,-88
3,739,171078,-1172,-16199,2361,-100,-21,-90
3,740,171083,-1086,-16224,2319,-98,-17,-92
3,741,171088,-1155,-16187,2345,-97,-18,-94
3,742,171093,-1226,-16171,2290,-94,-28,-99
3,743,171098,-1199,-16233,2166,-93,-35,-96
3,744,171103,-1174,-16231,2210,-94,-32,-95
3,745,171108,-1011,-16231,2295,-93,-23,-99
3,746,171113,-1048,-16188,2394,-93,-13,-103
3,747,171118,-1039,-16200,2410,-88,-13,-104
3,748,171123,-1085,-16132,2282,-88,-16,-103
3,749,171128,-972,-16210,2146,-86,-14,-100
3,750,171133,-954,-16229,2213,-86,-4,-105
3,751,171138,-936,-16240,2280,-85,-4,-107
3,752,171143,-948,-16223,2304,-83,2,-106
3,753,171148,-1014,-16227,2110,-81,21,-108
3,754,171153,-985,-16274,2007,-81,51,-109
3,755,171158,-1044,-16240,2065,-79,77,-111
3,756,171163,-1037,-16242,2205,-80,83,-111
3,757,171168,-976,-16245,2292,-78,83,-111
3,758,171173,-990,-16313,2239,-76,87,-109
3,759,171178,-1110,-16313,2242,-73,94,-114
3,760,171183,-1155,-16339,2266,-70,91,-113
3,761,171188,-1099,-16348,2282,-70,74,-111
3,762,171193,-1022,-16344,2414,-68,56,-112
3,763,171198,-944,-16350,2450,-67,27,-113
3,764,171203,-965,-16281,2454,-66,-3,-111
3,765,171208,-1051,-16235,2335,-62,-28,-109
3,766,171213,-1020,-16253,2165,-59,-44,-107
3,767,171218,-998,-16218,2117,-59,-46,-109
3,768,171223,-934,-16209,2189,-61,-38,-107
3,769,171228,-923,-16210,2214,-57,-35,-105
3,770,171233,-971,-16246,2066,-57,-21,-111
3,771,171238,-1004,-16269,1953,-59,9,-115
3,772,171243,-982,-16249,2012,-58,35,-114
3,773,171248,-939,-16248,2191,-59,49,-112
3,774,171253,-909,-16321,2313,-56,53,-113
3,775,171258,-861,-16353,2249,-53,53,-111
3,776,171263,-850,-16376,2214,-49,57,-110
3,777,171268,-961,-16410,2216,-48,62,-112
3,778,171273,-1015,-16373,2250,-51,54,-110
3,779,171278,-941,-16376,2266,-49,35,-104
3,780,171283,-934,-16412,2307,-45,15,-102
3,781,171288,-874,-16413,2310,-45,-3,-101
3,782,171293,-862,-16398,2371,-49,-23,-98
3,783,171298,-895,-16361,2409,-44,-44,-95
3,784,171303,-950,-16354,2256,-40,-62,-96
3,785,171308,-986,-16361,2161,-40,-67,-94
3,786,171313,-960,-16382,2107,-41,-62,-93
3,787,171318,-930,-16378,2117,-42,-55,-92
3,788,171323,-941,-16393,2048,-42,-47,-92
3,789,171328,-1013,-16420,1985,-37,-27,-92
3,790,171333,-936,-16448,1889,-35,-7,-90
3,791,171338,-857,-16477,2040,-36,18,-89
3,792,171343,-794,-16408,2151,-36,29,-89
3,793,171348,-811,-16430,2152,-34,33,-87
3,794,171353,-832,-16429,1989,-33,41,-87
3,795,171358,-919,-16434,1955,-34,59,-85
3,796,171363,-959,-16459,2066,-31,68,-84
3,797,171368,-932,-16488,2164,-30,73,-82
3,798,171373,-931,-16476,2188,-27,73,-80
3,799,171378,-961,-16482,2230,-29,75,-79
3,800,171383,-1010,-16432,2233,-29,72,-78
3,801,171388,-987,-16409,2290,-27,62,-76
3,802,171393,-954,-16442,2275,-25,48,-74
3,803,171398,-977,-16510,2261,-23,29,-74
3,804,171403,-924,-16493,2291,-20,0,-65
3,805,171408,-807,-16478,2332,-20,-16,-63
3,806,171413,-702,-16479,2261,-18,-29,-60
3,807,171418,-723,-16404,2177,-17,-45,-61
3,808,171423,-826,-16375,2071,-16,-49,-58
3,809,171428,-911,-16352,1980,-15,-48,-52
3,810,171433,-878,-16316,1985,-14,-36,-51
3,811,171438,-798,-16366,2004,-12,-14,-50
3,812,171443,-831,-16409,2072,-13,10,-49
3,813,171448,-952,-16424,2007,-11,33,-48
3,814,171453,-1150,-16536,1913,-9,54,-46
3,815,171458,-1158,-16601,1955,-8,71,-48
3,816,171463,-984,-16563,2147,-9,86,-45
3,817,171468,-862,-16526,2302,-10,98,-42
3,818,171473,-864,-16499,2323,-8,98,-48
3,819,171478,-973,-16449,2231,-5,83,-43
3,820,171483,-1043,-16458,2102,-3,66,-36
3,821,171488,-1083,-16488,2109,-2,49,-34
3,822,171493,-985,-16583,2145,-1,37,-33
3,823,171498,-948,-16642,2211,2,28,-28
3,824,171503,-999,-16583,2272,2,17,-27
3,825,171508,-1042,-16491,2255,4,7,-28
3,826,171513,-1011,-16477,2182,4,0,-20
3,827,171518,-1000,-16421,2225,4,-2,-17
3,828,171523,-973,-16359,2240,4,-2,-19
3,829,171528,-999,-16324,2149,5,-10,-17
3,830,171533,-1016,-16312,2016,5,-11,-15
3,831,171538,-1107,-16439,1885,8,-2,-12
3,832,171543,-1110,-16529,1901,14,7,-9
3,833,171548,-949,-16520,2032,13,13,-8
3,834,171553,-789,-16462,2228,10,15,-5
3,835,171558,-860,-16315,2293,13,12,-5
3,836,171563,-872,-16304,2240,19,1,-1
3,837,171568,-826,-16296,2198,19,-7,4
3,838,171573,-720,-16267,2152,14,-14,7
3,839,171578,-708,-16277,2183,18,-12,8
3,840,171583,-824,-16338,2104,20,-10,13
3,841,171588,-911,-16291,1958,22,-1,14
3,842,171593,-873,-16312,1879,21,13,19
3,843,171598,-877,-16328,1906,19,36,20
3,844,171603,-901,-16338,1982,21,55,17
3,845,171608,-888,-16359,1982,21,60,21
3,846,171613,-892,-16391,2006,22,62,21
3,847,171618,-865,-16334,2059,23,66,24
3,848,171623,-867,-16327,2118,23,72,29
3,849,171628,-879,-16299,2168,24,67,25
3,850,171633,-945,-16340,2122,24,58,29
3,851,171638,-948,-16353,2108,26,44,35
3,852,171643,-907,-16362,2148,30,39,35
3,853,171648,-865,-16322,2203,28,30,37
3,854,171653,-922,-16300,2182,31,18,42
3,855,171658,-956,-16281,2110,31,13,42
3,856,171663,-1014,-16307,2040,30,9,45
3,857,171668,-1009,-16362,1958,31,6,47
3,858,171673,-987,-16371,1888,30,9,46
3,859,171678,-985,-16397,2015,29,14,48
3,860,171683,-936,-16390,2132,30,15,49
3,861,171688,-934,-16332,2128,31,19,51
3,862,171693,-980,-16300,1993,32,32,49
3,863,171698,-1054,-16357,1866,32,45,48
3,864,171703,-1032,-16343,1881,29,47,50
3,865,171708,-921,-16335,1988,30,45,51
3,866,171713,-926,-16358,2105,33,47,52
3,867,171718,-908,-16376,2103,35,46,54
3,868,171723,-992,-16351,2053,35,54,54
3,869,171728,-1006,-16296,1932,33,59,55
3,870,171733,-995,-16269,2076,30,64,52
3,871,171738,-978,-16276,2169,32,55,54
3,872,171743,-967,-16283,2182,34,48,52
3,873,171748,-917,-16286,2099,31,43,53
3,874,171753,-992,-16295,2179,30,44,54
3,875,171758,-1043,-16305,2173,31,41,54
3,876,171763,-1113,-16325,2183,29,30,55
3,877,171768,-1057,-16375,2097,31,3,57
3,878,171773,-1028,-16338,2174,29,-3,59
3,879,171778,-1056,-16307,2175,28,-12,56
3,880,171783,-1118,-16349,2118,30,-20,55
3,881,171788,-1055,-16373,1952,29,-24,58
3,882,171793,-1088,-16302,1981,27,-16,59
3,883,171798,-1087,-16342,2016,26,-12,55
3,884,171803,-1106,-16378,1968,28,-10,53
3,885,171808,-1142,-16351,1956,25,-3,52
3,886,171813,-1070,-16311,1961,25,3,53
3,887,171818,-992,-16258,2106,24,11,47
3,888,171823,-892,-16231,2180,21,15,47
3,889,171828,-892,-16171,2292,22,11,49
3,890,171833,-825,-16196,2203,22,2,50
3,891,171838,-892,-16206,2221,17,-2,49
3,892,171843,-908,-16245,2165,16,-8,49
3,893,171848,-1013,-16305,2089,20,-8,48
3,894,171853,-956,-16367,1994,15,-8,49
3,895,171858,-940,-16357,2063,14,-4,49
3,896,171863,-956,-16360,2245,13,4,50
3,897,171868,-1035,-16277,2256,14,0,47
3,898,171873,-1042,-16277,2113,12,-6,46
3,899,171878,-1018,-16288,2046,12,-8,49
3,900,171883,-1014,-16356,2051,7,-9,44
3,901,171888,-1155,-16399,2085,8,-11,43
3,902,171893,-1179,-16421,2016,9,-19,42
3,903,171898,-1088,-16442,1936,7,-23,38
3,904,171903,-1094,-16470,2052,9,-26,40
3,905,171908,-1057,-16424,2152,5,-26,36
3,906,171913,-994,-16424,2210,8,-28,34
3,907,171918,-1062,-16440,2174,8,-32,36
3,908,171923,-1092,-16369,2204,4,-34,32
3,909,171928,-1129,-16379,2224,3,-38,35
3,910,171933,-1043,-16377,2264,-1,-35,34
3,911,171938,-1069,-16365,2189,-2,-34,32
3,912,171943,-1054,-16361,2206,-1,-29,30
3,913,171948,-1027,-16359,2146,-1,-25,26
3,914,171953,-1131,-16428,2146,-3,-22,27
3,915,171958,-1078,-16408,2102,-5,-23,25
3,916,171963,-1086,-16452,2077,-5,-20,27
3,917,171968,-1099,-16462,1977,-4,-20,23
3,918,171973,-1207,-16408,1931,-5,-19,23
3,919,171978,-1194,-16407,1937,-6,-18,20
3,920,171983,-1108,-16409,2014,-4,-24,18
