event_id,seq,ts_ms,ax,ay,az,gx,gy,gz
28,0,969251,-1605,-15865,-3387,8,85,30
28,1,969256,-1642,-15894,-3388,6,98,32
28,2,969261,-1594,-15870,-3290,9,107,33
28,3,969266,-1609,-15903,-3235,8,114,36
28,4,969271,-1567,-15875,-3191,7,117,38
28,5,969276,-1611,-15869,-3203,8,116,37
28,6,969281,-1644,-15870,-3240,10,115,32
28,7,969286,-1640,-15855,-3226,8,115,35
28,8,969291,-1661,-15818,-3321,6,114,36
28,9,969296,-1674,-15821,-3431,9,109,33
28,10,969301,-1684,-15865,-3533,12,106,34
28,11,969306,-1692,-15866,-3606,11,109,33
28,12,969311,-1655,-15879,-3673,13,111,30
28,13,969316,-1668,-15838,-3738,15,110,28
28,14,969321,-1716,-15846,-3784,17,114,29
28,15,969326,-1733,-15828,-3800,19,120,29
28,16,969331,-1773,-15913,-3747,20,125,26
28,17,969336,-1826,-16045,-3730,25,123,23
28,18,969341,-1785,-16141,-3623,26,117,23
28,19,969346,-1678,-16211,-3494,25,114,22
28,20,969351,-1574,-16343,-3383,30,109,16
28,21,969356,-1507,-16381,-3233,30,95,16
28,22,969361,-1539,-16403,-3141,30,70,13
28,23,969366,-1526,-16335,-3170,30,45,12
28,24,969371,-1469,-16288,-3185,32,33,10
28,25,969376,-1429,-16222,-3154,33,23,9
28,26,969381,-1410,-16205,-3139,32,2,8
28,27,969386,-1422,-16136,-3123,27,-15,8
28,28,969391,-1464,-16056,-3081,27,-27,8
28,29,969396,-1446,-16006,-3308,29,-39,8
28,30,969401,-1401,-15975,-3496,30,-31,6
28,31,969406,-1403,-15913,-3592,30,-12,3
28,32,969411,-1506,-15856,-3637,29,10,0
28,33,969416,-1603,-15763,-3757,29,28,-1
28,34,969421,-1627,-15730,-3822,31,52,-3
28,35,969426,-1610,-15735,-3826,33,80,-6
28,36,969431,-1569,-15710,-3792,32,107,-9
28,37,969436,-1577,-15651,-3744,32,125,-14
28,38,969441,-1602,-15629,-3703,35,135,-18
28,39,969446,-1589,-15560,-3677,36,143,-20
28,40,969451,-1491,-15555,-3435,39,151,-24
28,41,969456,-1566,-15513,-3467,41,147,-21
28,42,969461,-1638,-15496,-3436,37,143,-25
28,43,969466,-1661,-15574,-3368,37,139,-23
28,44,969471,-1596,-15601,-3256,40,130,-21
28,45,969476,-1511,-15679,-3224,43,111,-18
28,46,969481,-1543,-15769,-3225,43,93,-18
28,47,969486,-1594,-15825,-3235,44,72,-18
28,48,969491,-1642,-15855,-3327,45,49,-17
28,49,969496,-1644,-15921,-3490,48,33,-14
28,50,969501,-1616,-15963,-3498,50,23,-12
28,51,969506,-1634,-16022,-3479,50,21,-12
28,52,969511,-1662,-16048,-3513,50,21,-13
28,53,969516,-1612,-16163,-3563,50,24,-12
28,54,969521,-1551,-16179,-3575,48,37,-12
28,55,969526,-1416,-16173,-3382,47,46,-8
28,56,969531,-1317,-16177,-3165,44,45,-8
28,57,969536,-1262,-16177,-3083,46,34,-6
28,58,969541,-1311,-16248,-3066,46,29,-5
28,59,969546,-1320,-16215,-2928,40,27,0
28,60,969551,-1350,-16177,-2697,34,29,2
28,61,969556,-1430,-16179,-2629,32,23,3
28,62,969561,-1511,-16160,-2650,31,26,5
28,63,969566,-1529,-16118,-2601,25,33,8
28,64,969571,-1584,-16102,-2504,20,32,11
28,65,969576,-1695,-16052,-2518,16,24,11
28,66,969581,-1732,-16032,-2660,11,24,12
28,67,969586,-1750,-16006,-2766,5,32,15
28,68,969591,-1679,-16026,-2768,3,48,18
28,69,969596,-1606,-16029,-2809,-1,54,16
28,70,969601,-1570,-16000,-2936,-3,49,13
28,71,969606,-1532,-15989,-3030,-8,48,15
28,72,969611,-1473,-15957,-3114,-7,48,17
28,73,969616,-1489,-15971,-3209,-7,40,17
28,74,969621,-1639,-15961,-3249,-12,28,16
28,75,969626,-1704,-15945,-3413,-12,18,18
28,76,969631,-1703,-15876,-3495,-11,20,19
28,77,969636,-1781,-15834,-3489,-10,31,17
28,78,969641,-1868,-15896,-3434,-12,38,18
28,79,969646,-1935,-15888,-3437,-9,35,19
28,80,969651,-1962,-15890,-3510,-12,36,18
28,81,969656,-1927,-15957,-3466,-12,39,14
28,82,969661,-1938,-15924,-3403,-6,33,14
28,83,969666,-1887,-15935,-3470,-6,14,14
28,84,969671,-1845,-15988,-3559,-5,-5,11
28,85,969676,-1839,-15969,-3599,-2,-8,14
28,86,969681,-1837,-15982,-3516,0,-12,13
28,87,969686,-1828,-16023,-3504,0,-16,11
28,88,969691,-1850,-15959,-3554,4,-18,8
28,89,969696,-1778,-15978,-3549,6,-9,8
28,90,969701,-1707,-16022,-3396,9,11,4
28,91,969706,-1629,-16044,-3222,10,18,3
28,92,969711,-1591,-16056,-3026,9,20,3
28,93,969716,-1545,-16056,-2925,10,10,2
28,94,969721,-1598,-16121,-2959,9,7,-3
28,95,969726,-1580,-16138,-2851,9,0,-2
28,96,969731,-1563,-16118,-2749,7,-13,-1
28,97,969736,-1578,-16154,-2653,5,-42,-1
28,98,969741,-1625,-16206,-2783,4,-74,-5
28,99,969746,-1636,-16168,-2896,8,-90,-2
28,100,969751,-1603,-16096,-2933,6,-95,-4
28,101,969756,-1588,-16090,-2981,5,-103,-7
28,102,969761,-1625,-16092,-3181,6,-108,-10
28,103,969766,-1653,-16093,-3381,9,-105,-11
28,104,969771,-1634,-16039,-3458,8,-93,-14
28,105,969776,-1662,-16004,-3530,8,-80,-18
28,106,969781,-1670,-15943,-3584,9,-72,-22
28,107,969786,-1589,-15955,-3665,9,-57,-25
28,108,969791,-1620,-15917,-3689,14,-38,-26
28,109,969796,-1641,-15816,-3607,19,-23,-31
28,120,969851,-1411,-15933,-3464,44,40,-55
28,121,969856,-1496,-16026,-3316,41,44,-56
28,122,969861,-1722,-16322,-3289,35,34,-59
28,123,969866,-1544,-16444,-3393,39,24,-53
28,124,969871,-1220,-16315,-3240,38,43,-51
28,125,969876,-1237,-16250,-2817,36,60,-54
28,126,969881,-1421,-16233,-2545,34,37,-56
28,127,969886,-1485,-16253,-2643,33,-1,-52
28,128,969891,-1272,-16255,-2675,30,-18,-43
28,129,969896,-1041,-16339,-2579,26,-30,-40
28,130,969901,-913,-16497,-2517,25,-62,-37
28,131,969906,-919,-16663,-2610,23,-105,-32
28,132,969911,-844,-16727,-2726,19,-141,-28
28,133,969916,-816,-16746,-2772,17,-147,-20
28,134,969921,-764,-16786,-2771,12,-144,-16
28,135,969926,-727,-16857,-2840,8,-139,-12
28,136,969931,-686,-16840,-3048,6,-134,-5
28,137,969936,-702,-16847,-3152,4,-119,1
28,138,969941,-794,-16806,-3108,2,-96,0
28,139,969946,-863,-16750,-3085,-2,-81,9
28,140,969951,-890,-16699,-3198,-1,-69,13
28,141,969956,-912,-16573,-3176,-7,-46,13
28,142,969961,-1007,-16433,-3077,-7,-23,16
28,143,969966,-1117,-16300,-3009,-8,-13,19
28,144,969971,-1108,-16109,-3044,-4,-10,24
28,145,969976,-1142,-15938,-3163,-3,-4,25
28,146,969981,-1257,-15803,-3162,-5,-2,27
28,147,969986,-1308,-15650,-3199,-5,-8,29
28,148,969991,-1306,-15475,-3269,-4,-10,29
28,149,969996,-1376,-15380,-3306,-4,-10,30
28,260,970551,-1736,-16069,-3164,-4,-28,9
28,261,970556,-1702,-16060,-3286,-2,-27,9
28,262,970561,-1686,-16006,-3337,0,-18,6
28,263,970566,-1665,-16008,-3338,1,-4,8
28,264,970571,-1634,-15990,-3359,3,0,7
28,265,970576,-1666,-15920,-3320,5,2,4
28,266,970581,-1642,-15866,-3322,8,6,1
28,267,970586,-1702,-15851,-3233,7,14,-2
28,268,970591,-1697,-15829,-3151,9,11,-3
28,269,970596,-1651,-15781,-3168,11,2,-3
28,270,970601,-1672,-15814,-3101,13,-7,-5
28,271,970606,-1732,-15818,-3018,12,-10,-7
28,272,970611,-1736,-15814,-2986,16,-19,-9
28,273,970616,-1760,-15813,-3027,16,-27,-9
28,274,970621,-1775,-15821,-3007,14,-29,-10
28,275,970626,-1797,-15836,-3029,15,-29,-12
28,276,970631,-1752,-15869,-2984,16,-34,-13
28,277,970636,-1630,-15938,-3011,19,-40,-13
28,278,970641,-1660,-15967,-3036,20,-51,-17
28,279,970646,-1588,-16000,-3039,18,-66,-16
28,280,970651,-1553,-16013,-3096,16,-78,-15
28,281,970656,-1534,-16089,-3199,19,-92,-18
28,282,970661,-1506,-16119,-3296,22,-96,-14
28,283,970666,-1533,-16160,-3379,23,-91,-15
28,284,970671,-1547,-16236,-3340,23,-79,-17
28,285,970676,-1461,-16258,-3244,25,-69,-11
28,286,970681,-1383,-16275,-3245,27,-56,-9
28,287,970686,-1372,-16310,-3210,27,-40,-15
28,288,970691,-1419,-16319,-3047,23,-29,-17
28,289,970696,-1404,-16283,-3021,24,-28,-14
28,290,970701,-1430,-16274,-3232,25,-24,-17
28,291,970706,-1450,-16265,-3088,25,-17,-15
28,292,970711,-1500,-16176,-2798,22,-18,-13
28,293,970716,-1578,-16082,-2778,22,-37,-16
28,294,970721,-1660,-16044,-2992,23,-50,-9
28,295,970726,-1692,-16023,-3000,23,-48,-9
28,296,970731,-1658,-15966,-2769,20,-49,-11
28,297,970736,-1633,-15954,-2708,17,-64,-8
28,298,970741,-1620,-16082,-2819,16,-80,-7
28,299,970746,-1536,-16066,-2907,14,-82,-7
28,300,970751,-1432,-16082,-2839,12,-81,-5
28,301,970756,-1314,-16145,-2853,11,-87,-6
28,302,970761,-1310,-16128,-3002,12,-95,-4
28,303,970766,-1383,-16172,-3130,8,-94,-5
28,304,970771,-1458,-16239,-3091,4,-80,-6
28,305,970776,-1386,-16260,-3182,2,-70,-4
28,306,970781,-1312,-16319,-3245,1,-54,-3
28,307,970786,-1287,-16337,-3306,0,-35,-1
28,308,970791,-1356,-16280,-3253,-3,-14,-7
28,309,970796,-1463,-16171,-3170,-2,-2,-7
28,310,970801,-1553,-16083,-3139,-6,9,-6
28,311,970806,-1580,-16028,-3115,-8,24,-8
28,312,970811,-1517,-15975,-3005,-5,45,-3
28,313,970816,-1480,-15971,-2937,-7,58,-3
28,314,970821,-1551,-15903,-2909,-10,60,-6
28,315,970826,-1543,-15930,-2920,-11,57,-6
28,316,970831,-1538,-15895,-2983,-13,58,-4
28,317,970836,-1560,-15842,-2977,-14,65,-3
28,318,970841,-1565,-15859,-2948,-15,67,-4
28,319,970846,-1610,-15840,-2998,-19,65,-5
28,320,970851,-1645,-15834,-2987,-20,57,-5
28,321,970856,-1596,-15917,-3039,-19,52,-4
28,322,970861,-1601,-15978,-3137,-19,46,-1
28,323,970866,-1596,-16044,-3116,-17,40,0
28,324,970871,-1582,-16005,-3187,-19,35,-3
28,325,970876,-1612,-16030,-3277,-18,36,-1
28,326,970881,-1636,-16109,-3247,-18,41,-3
28,327,970886,-1598,-16104,-3319,-18,43,-2
28,328,970891,-1581,-16080,-3341,-17,50,-2
28,329,970896,-1570,-16085,-3330,-13,59,-4
28,330,970901,-1605,-16121,-3334,-11,70,-3
28,331,970906,-1632,-16116,-3335,-12,85,-5
28,332,970911,-1604,-16098,-3333,-9,99,-4
28,333,970916,-1597,-16142,-3196,-7,131,-5
28,334,970921,-1524,-16182,-3152,-8,141,-4
28,335,970926,-1458,-16171,-3153,-9,143,-4
28,336,970931,-1448,-16269,-3156,-7,142,-5
28,337,970936,-1325,-16334,-3173,-7,134,-4
28,338,970941,-1243,-16408,-3059,-7,121,-1
28,339,970946,-1160,-16453,-2891,-5,104,-3
28,340,970951,-1246,-16550,-2908,-5,84,-3
28,341,970956,-1300,-16600,-2857,-5,69,-4
28,342,970961,-1366,-16524,-2726,-5,52,1
28,343,970966,-1376,-16431,-2720,-9,35,7
28,344,970971,-1424,-16360,-2740,-8,20,7
28,345,970976,-1454,-16362,-2861,-7,16,7
28,346,970981,-1577,-16353,-2856,-8,19,6
28,347,970986,-1588,-16257,-2815,-11,25,6
28,348,970991,-1544,-16166,-2780,-10,45,8
28,349,970996,-1520,-16171,-2629,-14,63,6
28,350,971001,-1518,-16154,-2509,-15,68,3
28,351,971006,-1380,-16129,-2452,-19,62,3
28,352,971011,-1383,-16066,-2340,-22,45,2
28,353,971016,-1451,-15966,-2338,-21,23,0
28,354,971021,-1508,-15910,-2370,-24,0,-3
28,355,971026,-1657,-15862,-2354,-25,-23,-2
28,356,971031,-1781,-15823,-2476,-25,-46,-4
28,357,971036,-1840,-15804,-2620,-28,-63,-4
28,358,971041,-1916,-15757,-2708,-27,-72,-3
28,359,971046,-1981,-15714,-2774,-26,-79,-6
28,360,971051,-1985,-15682,-2811,-29,-86,-6
28,361,971056,-1958,-15647,-2925,-28,-89,-7
28,362,971061,-2028,-15631,-3021,-25,-82,-11
28,363,971066,-2068,-15671,-3089,-25,-63,-14
28,364,971071,-2066,-15649,-3164,-22,-45,-18
28,365,971076,-2043,-15679,-3218,-19,-30,-20
28,366,971081,-2038,-15711,-3198,-18,-17,-25
28,367,971086,-2048,-15728,-3256,-14,-8,-27
28,368,971091,-1921,-15807,-3266,-11,-5,-25
28,369,971096,-1764,-15820,-3303,-8,-4,-29
28,370,971101,-1711,-15867,-3230,-4,-9,-30
28,371,971106,-1682,-15927,-3231,3,-19,-28
28,372,971111,-1659,-15976,-3447,9,-25,-27
28,373,971116,-1519,-16013,-3504,12,-23,-24
28,374,971121,-1445,-16010,-3466,18,-18,-27
28,375,971126,-1492,-15963,-3519,24,-15,-26
28,376,971131,-1607,-15942,-3532,27,-13,-26
28,377,971136,-1669,-15903,-3481,30,-4,-25
28,378,971141,-1676,-15849,-3366,36,7,-24
28,379,971146,-1737,-15828,-3198,43,14,-23
28,380,971151,-1723,-15856,-3054,43,13,-20
28,381,971156,-1828,-15981,-2984,45,10,-18
28,382,971161,-1612,-15875,-2746,48,8,-17
28,383,971166,-1523,-16071,-2403,50,10,-13
28,384,971171,-1975,-16468,-2354,52,0,-18
28,385,971176,-1447,-16646,-2381,51,-12,-10
28,386,971181,-1039,-16364,-2064,45,4,-6
28,387,971186,-1046,-16238,-1546,45,13,-8
28,388,971191,-1438,-16260,-1427,45,-21,-5
28,389,971196,-1571,-16117,-1650,42,-72,2
28,390,971201,-1454,-16133,-1647,38,-98,11
28,391,971206,-1338,-16165,-1514,34,-115,15
28,392,971211,-1364,-16249,-1606,34,-161,20
28,393,971216,-1366,-16262,-1848,30,-218,26
28,394,971221,-1272,-16202,-2067,28,-257,31
28,395,971226,-1323,-16225,-2442,27,-272,32
28,396,971231,-1296,-16186,-2590,23,-273,33
28,397,971236,-1356,-16070,-2639,20,-272,35
28,398,971241,-1406,-15991,-2939,22,-267,39
28,399,971246,-1443,-15915,-3224,24,-240,40
28,400,971251,-1427,-15852,-3340,25,-201,41
28,401,971256,-1489,-15807,-3211,25,-179,42
28,402,971261,-1560,-15797,-3310,27,-174,43
28,403,971266,-1632,-15799,-3431,26,-154,39
28,404,971271,-1645,-15785,-3364,25,-122,43
28,405,971276,-1562,-15790,-3265,28,-95,46
28,406,971281,-1429,-15894,-3348,35,-62,45
28,407,971286,-1443,-15951,-3353,36,-35,43
28,408,971291,-1455,-15984,-3171,36,-10,41
28,409,971296,-1463,-15979,-3143,37,6,42
28,410,971301,-1430,-15957,-3186,37,21,42
28,411,971306,-1428,-15918,-3132,39,38,40
28,412,971311,-1554,-15885,-2999,39,47,40
28,413,971316,-1577,-15979,-3090,41,40,43
28,414,971321,-1527,-16101,-3157,42,37,46
28,415,971326,-1445,-16110,-3114,42,40,45
28,416,971331,-1492,-16104,-3078,44,53,43
28,417,971336,-1590,-16108,-3275,45,72,41
28,418,971341,-1591,-16058,-3377,48,93,41
28,419,971346,-1579,-16031,-3207,45,119,39
28,420,971351,-1501,-16013,-3016,46,124,37
28,421,971356,-1494,-15991,-2972,52,116,36
28,422,971361,-1568,-15982,-3038,53,109,36
28,423,971366,-1644,-15890,-3070,52,110,33
28,424,971371,-1750,-15880,-3108,54,109,34
28,425,971376,-1770,-15924,-3125,56,105,32
28,426,971381,-1640,-15950,-3148,58,104,32
28,427,971386,-1539,-15929,-3185,61,110,32
28,428,971391,-1544,-15908,-3160,63,121,27
28,429,971396,-1636,-15956,-2987,62,120,26
28,430,971401,-1651,-15881,-2990,60,113,25
28,431,971406,-1697,-15856,-3010,60,111,25
28,432,971411,-1741,-15883,-3010,65,112,22
28,433,971416,-1865,-15876,-3018,67,110,21
28,434,971421,-1872,-15934,-3050,68,97,20
28,435,971426,-1893,-15937,-3047,66,83,19
28,436,971431,-1876,-15940,-3047,67,71,15
28,437,971436,-1807,-15983,-3054,69,52,15
28,438,971441,-1781,-16013,-3126,71,34,15
28,439,971446,-1779,-16027,-3260,72,25,14
28,440,971451,-1818,-16017,-3361,73,27,10
28,441,971456,-1841,-15994,-3319,71,39,6
28,442,971461,-1843,-15976,-3249,70,45,7
28,443,971466,-1840,-15950,-3233,75,56,4
28,444,971471,-1837,-15960,-3198,75,68,5
28,445,971476,-1678,-15937,-3159,73,69,5
28,446,971481,-1547,-16015,-3055,72,54,5
28,447,971486,-1372,-16054,-2989,71,29,4
28,448,971491,-1292,-16109,-3047,72,4,5
28,449,971496,-1285,-16123,-3042,67,-16,6
28,450,971501,-1338,-16175,-3027,68,-24,10
28,451,971506,-1406,-16176,-2972,64,-20,11
28,452,971511,-1395,-16162,-2886,62,-7,11
28,453,971516,-1419,-16208,-2873,57,11,10
28,454,971521,-1446,-16167,-2780,56,36,8
28,455,971526,-1505,-16144,-2584,48,56,8
28,456,971531,-1536,-16104,-2469,43,61,8
28,457,971536,-1561,-16087,-2461,38,65,8
28,458,971541,-1570,-16058,-2460,31,66,8
28,459,971546,-1581,-16041,-2421,25,50,7
28,460,971551,-1569,-16017,-2424,21,28,8
28,461,971556,-1474,-16089,-2491,16,6,9
28,462,971561,-1435,-16123,-2532,11,-8,10
28,463,971566,-1460,-16203,-2559,6,-15,10
28,464,971571,-1462,-16254,-2589,0,-18,10
28,465,971576,-1534,-16311,-2572,-7,-10,7
28,466,971581,-1581,-16405,-2559,-16,5,6
28,467,971586,-1646,-16512,-2456,-22,16,2
28,468,971591,-1649,-16542,-2326,-26,14,4
28,469,971596,-1620,-16596,-2205,-30,2,0
28,470,971601,-1611,-16673,-2128,-39,-20,-2
28,471,971606,-1593,-16700,-1970,-47,-55,2
28,472,971611,-1631,-16703,-1924,-51,-94,-1
28,473,971616,-1598,-16683,-1960,-58,-130,-2
28,474,971621,-1654,-16661,-2112,-63,-152,-3
28,475,971626,-1744,-16585,-2321,-69,-160,-6
28,476,971631,-1853,-16555,-2551,-70,-162,-8
28,477,971636,-1863,-16567,-2882,-75,-164,-6
28,478,971641,-1815,-16510,-3066,-80,-159,-8
28,479,971646,-1723,-16528,-3208,-82,-133,-17
28,480,971651,-1695,-16511,-3237,-85,-118,-18
28,481,971656,-1616,-16478,-3283,-86,-99,-21
28,482,971661,-1638,-16431,-3365,-84,-77,-24
28,483,971666,-1633,-16337,-3419,-86,-62,-29
28,484,971671,-1647,-16240,-3435,-87,-54,-31
28,485,971676,-1704,-16123,-3439,-85,-44,-31
28,486,971681,-1696,-16030,-3433,-85,-37,-33
28,487,971686,-1639,-16036,-3447,-86,-29,-34
28,488,971691,-1594,-16001,-3376,-84,-24,-33
28,489,971696,-1645,-15956,-3337,-79,-22,-37
28,490,971701,-1640,-15946,-3400,-76,-17,-38
28,491,971706,-1713,-15937,-3448,-76,-8,-39
28,492,971711,-1743,-15899,-3385,-73,6,-40
28,493,971716,-1746,-15883,-3402,-69,19,-41
28,494,971721,-1748,-15954,-3383,-68,26,-43
28,495,971726,-1750,-15980,-3322,-66,31,-42
28,496,971731,-1694,-15993,-3202,-63,37,-44
28,497,971736,-1678,-16038,-3183,-61,33,-44
28,498,971741,-1681,-15984,-3129,-59,23,-43
28,499,971746,-1698,-15965,-3067,-55,17,-43
28,500,971751,-1668,-16006,-3096,-55,6,-44
28,501,971756,-1628,-16018,-3139,-53,-3,-44
28,502,971761,-1569,-15967,-3046,-50,-10,-41
28,503,971766,-1664,-15942,-3018,-48,-15,-43
28,504,971771,-1701,-15968,-3094,-44,-19,-40
28,505,971776,-1655,-16022,-3158,-42,-15,-39
28,506,971781,-1563,-15994,-3101,-42,-1,-41
28,507,971786,-1583,-15947,-2960,-41,3,-40
28,508,971791,-1599,-15888,-2898,-40,-5,-40
28,509,971796,-1617,-15844,-2851,-38,-13,-39
28,510,971801,-1637,-15761,-2865,-38,-16,-36
28,511,971806,-1669,-15724,-2866,-36,-23,-34
28,512,971811,-1682,-15657,-2899,-34,-40,-34
28,513,971816,-1586,-15633,-2987,-32,-60,-31
28,514,971821,-1598,-15599,-3066,-30,-73,-27
28,515,971826,-1573,-15586,-3077,-29,-79,-28
28,516,971831,-1638,-15635,-3145,-28,-80,-28
28,517,971836,-1662,-15666,-3230,-25,-75,-24
28,518,971841,-1653,-15742,-3206,-24,-57,-26
28,519,971846,-1655,-15776,-3063,-24,-41,-24
28,520,971851,-1598,-15866,-2927,-21,-36,-22
28,521,971856,-1522,-15902,-2881,-22,-38,-22
28,522,971861,-1565,-15892,-2852,-23,-43,-21
28,523,971866,-1655,-15939,-2786,-21,-44,-21
28,524,971871,-1621,-15939,-2757,-20,-47,-18
28,525,971876,-1533,-16010,-2810,-18,-58,-14
28,526,971881,-1545,-16078,-2857,-19,-63,-14
28,527,971886,-1603,-16064,-2802,-17,-68,-13
28,528,971891,-1583,-16043,-2793,-19,-68,-13
28,529,971896,-1619,-16054,-2915,-17,-62,-8
28,530,971901,-1642,-16127,-3011,-16,-44,-3
28,531,971906,-1534,-16156,-2941,-16,-29,-6
28,532,971911,-1494,-16101,-2909,-18,-23,-7
28,533,971916,-1482,-16099,-2953,-16,-22,-1
28,534,971921,-1528,-16105,-3000,-15,-25,-1
28,535,971926,-1548,-16040,-2990,-15,-29,0
28,536,971931,-1507,-16003,-2974,-15,-33,1
28,537,971936,-1517,-15983,-3071,-14,-42,3
28,538,971941,-1573,-16039,-3084,-11,-46,5
28,539,971946,-1584,-16078,-3114,-12,-40,7
28,540,971951,-1578,-16112,-3137,-14,-32,8
28,541,971956,-1560,-16098,-3111,-12,-25,7
28,542,971961,-1586,-16150,-3118,-8,-14,10
28,543,971966,-1674,-16163,-3101,-7,6,8
28,544,971971,-1705,-16157,-2970,-11,23,8
28,545,971976,-1679,-16161,-2865,-8,32,10
28,546,971981,-1673,-16200,-2835,-6,32,8
28,547,971986,-1640,-16219,-2807,-8,27,6
28,548,971991,-1611,-16181,-2756,-7,18,10
28,549,971996,-1615,-16181,-2720,-9,12,12
28,550,972001,-1616,-16180,-2693,-7,5,13
28,551,972006,-1646,-16193,-2713,-9,3,12
28,552,972011,-1553,-16187,-2802,-11,-2,13
28,553,972016,-1536,-16146,-2913,-11,-10,13
28,554,972021,-1573,-16080,-2995,-10,-14,13
28,555,972026,-1559,-16053,-3081,-8,-17,15
28,556,972031,-1519,-16024,-3107,-11,-18,15
28,557,972036,-1506,-16005,-3087,-12,-11,12
28,558,972041,-1537,-16011,-3071,-8,-6,13
28,559,972046,-1500,-16006,-3081,-5,-6,12
28,560,972051,-1504,-15995,-3103,-5,-3,15
28,561,972056,-1481,-16020,-3138,-4,9,15
28,562,972061,-1417,-16009,-3126,-5,18,13
28,563,972066,-1377,-16025,-3194,-4,21,12
28,564,972071,-1472,-16054,-3167,-3,28,12
28,565,972076,-1564,-16061,-3081,-1,33,9
28,566,972081,-1563,-16045,-3058,1,31,10
28,567,972086,-1584,-16029,-3072,-2,37,10
28,568,972091,-1606,-16031,-3005,0,36,5
28,569,972096,-1585,-16100,-2956,4,31,7
28,570,972101,-1580,-16103,-3001,4,22,8
28,571,972106,-1568,-16120,-3030,4,18,6
28,572,972111,-1543,-16076,-2995,4,12,3
28,573,972116,-1491,-16101,-2982,7,-1,1
28,574,972121,-1529,-16129,-3051,4,-11,2
28,575,972126,-1536,-16080,-3159,6,-16,-1
28,576,972131,-1608,-16051,-3275,8,-18,-4
28,577,972136,-1638,-16020,-3311,9,-17,-5
28,578,972141,-1655,-16074,-3307,9,-12,-4
28,579,972146,-1658,-16139,-3199,11,-9,-5
28,580,972151,-1679,-16161,-3192,11,-7,-11
28,581,972156,-1694,-16177,-3169,10,-1,-13
28,582,972161,-1685,-16251,-3099,10,4,-14
28,583,972166,-1659,-16326,-3065,11,11,-17
28,584,972171,-1629,-16360,-3000,12,11,-25
28,585,972176,-1629,-16385,-2990,9,4,-23
28,586,972181,-1619,-16384,-3084,9,-4,-23
28,587,972186,-1671,-16378,-3092,9,-15,-29
28,588,972191,-1708,-16338,-3110,9,-25,-31
28,589,972196,-1712,-16320,-3117,9,-33,-31
28,590,972201,-1734,-16314,-3126,8,-37,-33
28,591,972206,-1798,-16267,-3078,9,-34,-39
28,592,972211,-1904,-16226,-2988,9,-37,-38
28,593,972216,-1926,-16229,-2989,7,-32,-39
28,594,972221,-1947,-16186,-2954,5,-26,-42
28,595,972226,-1932,-16212,-2886,3,-24,-45
28,596,972231,-1910,-16284,-2762,3,-33,-48
28,597,972236,-1816,-16242,-2677,4,-46,-47
28,598,972241,-1755,-16233,-2734,0,-56,-48
28,599,972246,-1739,-16214,-2659,-4,-63,-50
28,600,972251,-1728,-16231,-2657,-6,-75,-50
28,601,972256,-1711,-16189,-2765,-8,-90,-50
28,602,972261,-1699,-16071,-2824,-8,-96,-52
28,603,972266,-1662,-16002,-2827,-11,-92,-55
28,604,972271,-1703,-15863,-2908,-15,-92,-56
28,605,972276,-1674,-15823,-2951,-15,-97,-52
28,606,972281,-1654,-15804,-2941,-16,-94,-51
28,607,972286,-1620,-15827,-2973,-16,-87,-51
28,608,972291,-1578,-15821,-2910,-17,-81,-50
28,609,972296,-1552,-15773,-2924,-20,-73,-51
28,610,972301,-1578,-15772,-2913,-24,-65,-50
28,611,972306,-1544,-15825,-2866,-24,-54,-51
28,612,972311,-1541,-15863,-2820,-26,-45,-50
28,613,972316,-1567,-15905,-2816,-27,-45,-46
28,614,972321,-1598,-15952,-2830,-27,-50,-44
28,615,972326,-1580,-15996,-2775,-28,-48,-42
28,616,972331,-1622,-15996,-2772,-33,-49,-41
28,617,972336,-1641,-16022,-2805,-34,-57,-43
28,618,972341,-1676,-16035,-2836,-35,-64,-39
28,619,972346,-1700,-16016,-2892,-35,-73,-36
28,620,972351,-1718,-16045,-3013,-33,-79,-36
28,621,972356,-1718,-16044,-3200,-34,-84,-35
28,622,972361,-1659,-16082,-3293,-37,-85,-31
28,623,972366,-1571,-16099,-3335,-34,-76,-33
28,624,972371,-1625,-16080,-3374,-32,-67,-32
28,625,972376,-1599,-16047,-3492,-29,-39,-29
28,626,972381,-1552,-16049,-3456,-30,-18,-30
28,627,972386,-1534,-16038,-3437,-26,-5,-30
28,628,972391,-1549,-16028,-3365,-23,4,-31
28,629,972396,-1606,-15975,-3358,-23,8,-27
28,630,972401,-1593,-15938,-3321,-24,12,-26
28,631,972406,-1570,-15934,-3306,-21,16,-25
28,632,972411,-1526,-16032,-3256,-17,18,-22
28,633,972416,-1561,-16098,-3253,-16,15,-21
28,634,972421,-1556,-16059,-3185,-13,17,-18
28,635,972426,-1474,-16047,-3181,-10,16,-15
28,636,972431,-1452,-16095,-3173,-10,13,-15
28,637,972436,-1409,-16144,-3118,-7,-1,-11
28,638,972441,-1341,-16157,-3050,-7,-25,-10
28,639,972446,-1335,-16159,-2978,-6,-53,-6
28,640,972451,-1357,-16144,-3057,-3,-77,-3
28,641,972456,-1353,-16135,-3096,-1,-101,1
28,642,972461,-1333,-16142,-3174,1,-117,3
28,643,972466,-1363,-16110,-3240,0,-127,7
28,644,972471,-1421,-16093,-3332,2,-131,9
28,645,972476,-1478,-16099,-3357,4,-130,9
28,646,972481,-1309,-16093,-3452,4,-120,11
28,647,972486,-1258,-16077,-3375,4,-91,14
28,648,972491,-1429,-16118,-3246,4,-66,9
28,649,972496,-1416,-16120,-3448,5,-61,10
28,650,972501,-1350,-15976,-3552,0,-47,11
28,651,972506,-1544,-15872,-3261,-1,-23,8
28,652,972511,-1677,-15851,-3023,0,-26,9
28,653,972516,-1631,-15888,-3222,3,-38,16
28,654,972521,-1537,-15875,-3340,2,-27,15
28,655,972526,-1475,-15895,-3201,1,-10,16
28,656,972531,-1507,-15936,-3114,1,-17,16
28,657,972536,-1545,-15884,-3164,0,-34,16
28,658,972541,-1578,-15858,-3292,0,-43,17
28,659,972546,-1634,-15845,-3211,-5,-42,18
28,660,972551,-1662,-15866,-3130,-5,-43,16
28,661,972556,-1673,-15873,-3253,-4,-54,18
28,662,972561,-1646,-15911,-3373,-4,-54,19
28,663,972566,-1693,-15890,-3387,-6,-41,16
28,664,972571,-1783,-15850,-3290,-9,-28,13
28,665,972576,-1763,-15896,-3321,-11,-19,12
28,666,972581,-1724,-15917,-3330,-13,-1,14
28,667,972586,-1738,-15927,-3289,-14,20,11
28,668,972591,-1692,-15966,-3201,-17,35,9
28,669,972596,-1606,-16011,-3133,-19,42,10
28,670,972601,-1508,-15981,-3075,-21,41,10
28,671,972606,-1462,-15984,-2954,-23,38,12
28,672,972611,-1464,-16002,-2954,-27,31,13
28,673,972616,-1486,-16054,-2953,-32,18,14
28,674,972621,-1487,-16051,-2930,-32,7,20
28,675,972626,-1456,-16081,-2999,-33,-6,18
28,676,972631,-1439,-16034,-3034,-35,-8,18
28,677,972636,-1410,-16000,-3032,-38,-6,20
28,678,972641,-1396,-16021,-3008,-41,-5,22
28,679,972646,-1423,-16026,-3024,-42,-5,21
28,680,972651,-1379,-16035,-3008,-45,-1,25
28,681,972656,-1381,-16089,-3024,-50,10,25
28,682,972661,-1356,-16074,-3006,-49,18,28
28,683,972666,-1399,-16036,-2919,-51,28,26
28,684,972671,-1429,-16014,-2904,-57,31,25
28,685,972676,-1448,-15989,-2942,-58,30,29
28,686,972681,-1466,-15986,-2952,-58,32,28
28,687,972686,-1447,-15964,-2904,-63,32,28
28,688,972691,-1403,-15986,-2929,-66,21,30
28,689,972696,-1367,-15964,-2957,-67,12,31
28,690,972701,-1410,-15979,-2987,-68,3,31
28,691,972706,-1462,-16002,-3009,-68,-6,33
28,692,972711,-1477,-16012,-3044,-70,-7,34
28,693,972716,-1499,-16023,-3129,-72,-5,31
28,694,972721,-1526,-16002,-3171,-70,1,28
28,695,972726,-1535,-16065,-3194,-71,13,26
28,696,972731,-1552,-16060,-3250,-74,21,25
28,697,972736,-1571,-16020,-3137,-74,23,24
28,698,972741,-1563,-16041,-3190,-71,25,20
28,699,972746,-1546,-16007,-3387,-71,36,15
28,700,972751,-1455,-15993,-3316,-70,51,14
28,701,972756,-1424,-16017,-3181,-70,51,12
28,702,972761,-1423,-16061,-3123,-73,39,11
28,703,972766,-1397,-16061,-3257,-69,31,8
28,704,972771,-1479,-16045,-3290,-66,34,5
28,705,972776,-1494,-16034,-3197,-64,37,5
28,706,972781,-1466,-16025,-3237,-62,34,5
28,707,972786,-1405,-16003,-3255,-58,33,1
28,708,972791,-1389,-16024,-3233,-58,33,-3
28,709,972796,-1442,-16035,-3153,-58,28,-5
28,710,972801,-1447,-16000,-3208,-53,20,-7
28,711,972806,-1428,-15968,-3282,-47,16,-11
28,712,972811,-1472,-15962,-3332,-45,20,-12
28,713,972816,-1482,-16009,-3317,-43,29,-13
28,714,972821,-1477,-16088,-3271,-42,29,-16
28,715,972826,-1489,-16209,-3222,-39,26,-18
28,716,972831,-1553,-16286,-3164,-38,26,-21
28,717,972836,-1590,-16305,-3057,-36,23,-24
28,718,972841,-1628,-16344,-2987,-34,10,-28
28,719,972846,-1695,-16355,-2959,-31,-7,-29
28,720,972851,-1755,-16389,-2966,-25,-24,-30
28,721,972856,-1856,-16376,-2939,-23,-41,-35
28,722,972861,-1874,-16323,-2929,-26,-54,-39
28,723,972866,-1907,-16269,-2925,-22,-69,-42
28,724,972871,-1959,-16170,-2979,-19,-82,-45
28,725,972876,-1998,-16133,-2995,-19,-90,-49
28,726,972881,-1964,-16080,-3039,-17,-97,-51
28,727,972886,-1800,-16027,-3143,-13,-103,-53
28,728,972891,-1687,-16033,-3145,-12,-109,-55
28,729,972896,-1688,-16044,-3166,-13,-117,-57
28,730,972901,-1724,-16049,-3145,-12,-130,-59
28,731,972906,-1684,-16064,-3326,-11,-135,-61
28,732,972911,-1749,-16156,-3347,-7,-126,-62
28,733,972916,-1760,-16150,-3322,-6,-119,-66
28,734,972921,-1883,-16092,-3229,-7,-115,-68
28,735,972926,-1887,-16010,-3166,-5,-110,-68
28,736,972931,-1883,-15966,-3079,-4,-101,-71
28,737,972936,-1873,-15943,-2940,-3,-97,-72
28,738,972941,-1856,-15855,-2825,-4,-102,-71
28,739,972946,-1792,-15782,-2849,-4,-116,-71
28,740,972951,-1744,-15758,-2905,-4,-126,-69
28,741,972956,-1641,-15715,-2950,-5,-131,-66
28,742,972961,-1585,-15708,-3032,-5,-132,-67
28,743,972966,-1531,-15739,-3136,-5,-136,-65
28,744,972971,-1452,-15800,-3270,-7,-133,-62
28,745,972976,-1410,-15830,-3272,-7,-120,-60
28,746,972981,-1411,-15903,-3302,-9,-106,-57
28,747,972986,-1471,-15976,-3222,-7,-93,-56
28,748,972991,-1497,-16028,-3323,-5,-84,-53
28,749,972996,-1494,-16040,-3443,-3,-70,-47
28,750,973001,-1456,-16064,-3330,-4,-50,-44
28,751,973006,-1481,-16095,-3265,-2,-39,-45
28,752,973011,-1512,-16132,-3314,-4,-37,-40
28,753,973016,-1483,-16215,-3361,-3,-36,-34
28,754,973021,-1443,-16262,-3352,-4,-30,-29
28,755,973026,-1443,-16267,-3350,-1,-21,-25
28,756,973031,-1419,-16197,-3382,-1,-19,-21
28,757,973036,-1481,-16192,-3404,2,-21,-19
28,758,973041,-1488,-16205,-3361,2,-20,-13
28,759,973046,-1528,-16157,-3340,4,-12,-7
28,760,973051,-1639,-16117,-3359,6,-8,-3
28,761,973056,-1709,-16055,-3387,8,-13,2
28,762,973061,-1772,-16009,-3310,8,-21,7
28,763,973066,-1776,-15971,-3201,12,-33,11
28,764,973071,-1781,-16012,-3282,13,-53,16
28,765,973076,-1838,-16115,-3321,14,-65,19
28,766,973081,-1878,-16152,-3341,15,-73,22
28,767,973086,-2038,-16157,-3293,18,-81,25
28,768,973091,-2224,-16229,-3387,20,-89,28
28,769,973096,-2247,-16193,-3521,24,-97,34
28,770,973101,-2268,-16295,-3573,27,-97,37
28,771,973106,-2378,-16359,-3509,30,-92,37
28,772,973111,-2552,-16250,-3637,36,-94,38
28,773,973116,-2595,-16084,-3535,40,-84,40
28,774,973121,-2723,-16001,-3260,41,-83,40
28,775,973126,-2836,-15991,-3222,44,-102,42
28,776,973131,-2811,-15973,-3380,49,-114,48
28,777,973136,-2733,-15869,-3349,52,-102,49
28,778,973141,-2796,-15821,-3177,52,-91,45
28,779,973146,-2863,-15820,-3314,54,-94,48
28,780,973151,-2849,-15804,-3544,60,-80,49
28,781,973156,-2932,-15723,-3530,64,-36,47
28,782,973161,-3037,-15597,-3406,65,11,48
28,783,973166,-3062,-15579,-3313,66,53,52
28,784,973171,-3126,-15620,-3187,63,93,50
28,785,973176,-3150,-15683,-3072,67,127,53
28,786,973181,-3150,-15699,-2759,71,148,59
28,787,973186,-3123,-15679,-2583,73,144,62
28,788,973191,-3099,-15739,-2462,74,130,65
28,789,973196,-3117,-15762,-2331,76,106,72
28,790,973201,-3226,-15766,-2302,79,77,81
28,791,973206,-3264,-15757,-2381,85,40,89
28,792,973211,-3344,-15763,-2569,89,9,97
28,793,973216,-3370,-15742,-2707,93,-7,103
28,794,973221,-3471,-15699,-2867,94,-6,110
28,795,973226,-3569,-15653,-2943,96,9,114
28,796,973231,-3589,-15655,-3042,100,24,122
28,797,973236,-3565,-15655,-3034,107,37,128
28,798,973241,-3591,-15672,-2874,109,49,135
28,799,973246,-3688,-15661,-2783,111,63,143
28,800,973251,-3712,-15619,-2679,117,73,149
28,801,973256,-3694,-15641,-2605,120,76,156
28,802,973261,-3666,-15689,-2519,121,77,162
28,803,973266,-3638,-15666,-2459,126,69,173
28,804,973271,-3504,-15713,-2464,129,50,185
28,805,973276,-3469,-15718,-2387,132,22,196
28,806,973281,-3507,-15755,-2439,134,-8,202
28,807,973286,-3514,-15779,-2403,136,-25,217
28,808,973291,-3450,-15827,-2531,139,-44,228
28,809,973296,-3408,-15944,-2685,146,-53,240
28,810,973301,-3398,-15963,-2778,147,-47,249
28,811,973306,-3461,-15889,-2784,151,-34,257
28,812,973311,-3539,-15877,-2782,151,-12,263
28,813,973316,-3582,-15907,-2825,153,-1,278
28,814,973321,-3498,-15900,-2927,159,9,290
28,815,973326,-3489,-15920,-2800,157,27,299
28,816,973331,-3497,-15960,-2857,158,29,309
28,817,973336,-3556,-16024,-2886,163,40,318
28,818,973341,-3515,-16079,-3031,166,52,327
28,819,973346,-3531,-16072,-3082,165,70,337
28,820,973351,-3563,-16079,-2978,167,88,344
28,821,973356,-3564,-16069,-2934,169,93,352
28,822,973361,-3626,-16088,-3004,169,101,359
28,823,973366,-3666,-16079,-3035,171,120,367
28,824,973371,-3572,-16066,-2979,172,137,374
28,825,973376,-3498,-16034,-2872,172,148,382
28,826,973381,-3427,-16069,-2860,174,148,393
28,827,973386,-3428,-16046,-2822,172,149,400
28,828,973391,-3401,-16007,-2698,172,151,408
28,829,973396,-3317,-15999,-2694,172,157,419
28,830,973401,-3218,-16039,-2662,171,156,426
28,831,973406,-3154,-15990,-2691,171,153,434
28,832,973411,-3158,-15975,-2720,170,143,439
28,833,973416,-3118,-16026,-2723,170,142,448
28,834,973421,-3141,-16046,-2829,170,146,456
28,835,973426,-3102,-16057,-2943,167,159,464
28,836,973431,-3077,-16064,-2896,167,174,471
28,837,973436,-3069,-16012,-2889,167,185,477
28,838,973441,-2980,-16009,-2948,163,189,485
28,839,973446,-2899,-16024,-2963,159,201,489
28,840,973451,-2821,-16062,-2915,161,216,494
28,841,973456,-2815,-16127,-2818,157,220,501
28,842,973461,-2768,-16169,-2743,154,217,506
28,843,973466,-2685,-16121,-2647,153,214,511
28,844,973471,-2680,-16121,-2572,152,212,515
28,845,973476,-2603,-16113,-2473,143,208,526
28,846,973481,-2643,-16038,-2398,142,198,531
28,847,973486,-2740,-16077,-2414,138,180,535
28,848,973491,-2809,-16070,-2432,135,158,537
28,849,973496,-2831,-16065,-2471,131,137,540
28,850,973501,-2886,-16003,-2499,124,122,541
28,851,973506,-2908,-16033,-2581,120,107,544
28,852,973511,-2864,-16093,-2641,121,100,543
28,853,973516,-2829,-16112,-2613,121,98,541
28,854,973521,-2793,-16176,-2789,120,98,540
28,855,973526,-2755,-16210,-2912,115,113,538
28,856,973531,-2773,-16219,-2898,108,136,534
28,857,973536,-2753,-16218,-2811,107,150,531
28,858,973541,-2809,-16202,-2799,107,157,525
28,859,973546,-2858,-16168,-2800,103,166,520
28,860,973551,-2833,-16135,-2774,101,168,518
28,861,973556,-2807,-16141,-2662,97,169,514
28,862,973561,-2808,-16153,-2622,93,166,506
28,863,973566,-2810,-16101,-2738,94,157,501
28,864,973571,-2763,-16099,-2783,88,150,498
28,865,973576,-2754,-16169,-2721,88,153,491
28,866,973581,-2808,-16184,-2748,89,154,484
28,867,973586,-2883,-16166,-2845,87,156,476
28,868,973591,-2887,-16110,-2916,86,169,468
28,869,973596,-2927,-16072,-2830,84,188,460
28,870,973601,-2934,-16035,-2803,83,196,454
28,871,973606,-2932,-16029,-2843,82,194,448
28,872,973611,-2962,-16005,-2757,81,188,441
28,873,973616,-2956,-15978,-2771,84,179,435
28,874,973621,-2944,-15947,-2805,80,180,424
28,875,973626,-2957,-15913,-2823,78,182,415
28,876,973631,-2995,-15873,-2725,76,189,402
28,877,973636,-3160,-15828,-2704,76,196,394
28,878,973641,-3194,-15759,-2726,78,207,387
28,879,973646,-3229,-15630,-2622,75,213,378
28,880,973651,-3178,-15598,-2518,74,212,367
28,881,973656,-3104,-15610,-2407,77,200,361
28,882,973661,-3070,-15631,-2395,73,180,353
28,883,973666,-3119,-15625,-2388,75,160,345
28,884,973671,-3127,-15612,-2491,75,145,337
28,885,973676,-3094,-15624,-2642,76,142,332
28,886,973681,-3095,-15579,-2753,77,146,326
28,887,973686,-3128,-15593,-2763,78,158,314
28,888,973691,-3221,-15607,-2777,75,178,304
28,889,973696,-3280,-15611,-2768,77,193,295
28,890,973701,-3288,-15622,-2799,81,211,290
28,891,973706,-3299,-15569,-2760,78,230,278
28,892,973711,-3266,-15556,-2719,78,236,265
28,893,973716,-3345,-15542,-2609,80,230,262
28,894,973721,-3313,-15541,-2643,83,214,256
28,895,973726,-3286,-15609,-2534,83,199,248
28,896,973731,-3296,-15682,-2484,83,186,240
28,897,973736,-3270,-15696,-2491,88,162,236
28,898,973741,-3349,-15674,-2504,90,137,229
28,899,973746,-3364,-15642,-2530,89,115,221
28,900,973751,-3319,-15640,-2423,89,91,217
28,901,973756,-3270,-15663,-2319,92,56,212
28,902,973761,-3258,-15664,-2238,92,17,207
28,903,973766,-3217,-15666,-2282,92,-26,201
28,904,973771,-3195,-15675,-2365,95,-68,198
28,905,973776,-3190,-15713,-2405,96,-97,197
28,906,973781,-3211,-15766,-2533,95,-113,191
28,907,973786,-3129,-15854,-2742,94,-120,187
28,908,973791,-2928,-15897,-2933,97,-104,185
28,909,973796,-2766,-15922,-3122,102,-73,179
28,910,973801,-2696,-15968,-3396,104,-46,170
28,911,973806,-2781,-15900,-3677,105,-16,161
28,912,973811,-2964,-15797,-3804,104,17,152
28,913,973816,-3083,-15638,-3788,101,57,141
28,914,973821,-3251,-15594,-3627,102,107,133
28,915,973826,-3377,-15615,-3417,102,158,127
28,916,973831,-3328,-15659,-3246,103,206,118
28,917,973836,-3277,-15662,-2878,98,260,108
28,918,973841,-3319,-15587,-2222,100,265,92
28,919,973846,-3283,-15579,-2219,95,237,88
28,920,973851,-3208,-15623,-2185,90,224,79
28,921,973856,-3325,-15641,-1918,85,205,71
28,922,973861,-3343,-15667,-1890,82,163,64
28,923,973866,-3330,-15693,-2013,78,125,56
28,924,973871,-3340,-15684,-2064,70,104,50
28,925,973876,-3246,-15702,-2008,67,77,41
28,926,973881,-3133,-15703,-2020,61,36,33
28,927,973886,-3013,-15765,-2221,55,1,25
28,928,973891,-2987,-15782,-2458,50,-14,14
28,929,973896,-3013,-15818,-2690,42,-7,4
28,930,973901,-3017,-15898,-2705,36,6,-7
28,931,973906,-3089,-16011,-2897,32,14,-21
28,932,973911,-3110,-16038,-3231,21,46,-35
28,933,973916,-3116,-16078,-3399,9,106,-49
28,934,973921,-2940,-16017,-3357,0,174,-67
28,935,973926,-2826,-15986,-3357,-6,248,-87
28,936,973931,-2830,-15937,-3370,-11,342,-108
28,937,973936,-2840,-15999,-3148,-18,449,-128
28,938,973941,-2698,-15985,-2855,-28,550,-146
28,939,973946,-2604,-15886,-2188,-36,615,-166
28,940,973951,-2560,-15778,-1433,-47,598,-185
28,941,973956,-2542,-15719,-1152,-60,505,-200
28,942,973961,-2272,-15727,-1355,-69,388,-212
28,943,973966,-2080,-15706,-1366,-77,283,-222
28,944,973971,-1860,-15746,-1426,-87,162,-235
28,945,973976,-1656,-15776,-1992,-92,21,-251
28,946,973981,-1672,-15847,-2608,-103,-90,-271
28,947,973986,-1624,-15912,-2890,-112,-140,-286
28,948,973991,-1521,-16071,-3317,-115,-140,-302
28,949,973996,-1370,-16460,-3653,-121,-86,-331
28,950,974001,-1044,-16589,-3466,-127,-22,-354
28,951,974006,-624,-16719,-3496,-129,15,-381
28,952,974011,-713,-16817,-3391,-133,36,-411
28,953,974016,-472,-16892,-3610,-141,10,-430
28,954,974021,-323,-16679,-3504,-144,-17,-455
28,955,974026,-328,-16812,-3801,-148,-43,-482
28,956,974031,-615,-16936,-3799,-151,-64,-508
28,957,974036,-628,-16889,-3978,-152,-98,-527
28,958,974041,-539,-16728,-3806,-156,-108,-555
28,959,974046,-123,-16818,-4252,-156,-103,-579
28,960,974051,-95,-16931,-3836,-158,-67,-612
28,961,974056,81,-16883,-3043,-165,-88,-639
28,962,974061,195,-16866,-2932,-164,-159,-664
28,963,974066,260,-16829,-3177,-164,-196,-690
28,964,974071,452,-16724,-3316,-169,-201,-711
28,965,974076,634,-16774,-3107,-173,-209,-741
28,966,974081,788,-16922,-3085,-170,-253,-765
28,967,974086,668,-16827,-3576,-171,-293,-790
28,968,974091,486,-16796,-3837,-175,-275,-821
28,969,974096,627,-16807,-3981,-180,-230,-845
28,970,974101,859,-16805,-3835,-181,-193,-868
28,971,974106,826,-16714,-3646,-182,-191,-894
28,972,974111,752,-16775,-3692,-189,-209,-918
28,973,974116,770,-16797,-3690,-190,-206,-936
28,974,974121,989,-16818,-3624,-190,-182,-956
28,975,974126,1144,-16907,-3447,-192,-154,-982
28,976,974131,1198,-17113,-3318,-191,-153,-1006
28,977,974136,1212,-17182,-3283,-193,-157,-1031
28,978,974141,1153,-17147,-3396,-193,-148,-1056
28,979,974146,832,-17098,-3427,-193,-135,-1080
28,980,974151,510,-17071,-3471,-201,-143,-1102
28,981,974156,460,-17183,-3659,-202,-154,-1119
28,982,974161,500,-17350,-3757,-202,-140,-1139
28,983,974166,442,-17439,-3847,-197,-111,-1160
28,984,974171,230,-17460,-3939,-189,-78,-1177
28,985,974176,-127,-17466,-4254,-187,-44,-1199
28,986,974181,-434,-17372,-4335,-188,-14,-1216
28,987,974186,-565,-17233,-4163,-188,-3,-1234
28,988,974191,-842,-17173,-3729,-187,-24,-1245
28,989,974196,-1070,-17200,-3699,-183,-76,-1255
28,990,974201,-1196,-17154,-4133,-177,-107,-1262
28,991,974206,-1657,-16955,-4571,-168,-84,-1279
28,992,974211,-1839,-16991,-4641,-167,-70,-1286
28,993,974216,-1807,-16982,-4293,-168,-77,-1292
28,994,974221,-2038,-17187,-4060,-163,-89,-1298
28,995,974226,-2250,-17350,-3753,-159,-93,-1302
28,996,974231,-2192,-17320,-3483,-156,-112,-1296
28,997,974236,-2579,-17439,-3304,-156,-148,-1299
28,998,974241,-3110,-17401,-3088,-159,-230,-1296
28,999,974246,11990,-5368,-2919,-179,-409,-1246
28,1000,974251,-20710,8433,25400,-184,-295,-1674
28,1001,974256,-16199,-14182,-7237,35,-3191,-325
28,1002,974261,13120,-21153,-32768,-115,-4456,-167
28,1003,974266,1919,-20279,-14751,-224,3552,-1030
28,1004,974271,-10238,-14799,25751,-158,4912,-1381
28,1005,974276,-2688,-16015,9140,-101,-750,-784
28,1006,974281,-2410,-19211,-5268,-30,-1721,-702
28,1007,974286,-3825,-17626,-12383,-117,-1057,-763
28,1008,974291,-3933,-17853,-2231,-178,348,-767
28,1009,974296,-6880,-14792,6818,-206,401,-901
28,1010,974301,-6070,-16006,-928,-152,-982,-706
28,1011,974306,-4531,-16913,-9413,-151,-1199,-656
28,1012,974311,-4852,-16603,-6171,-180,-156,-688
28,1013,974316,-4513,-16858,422,-175,471,-695
28,1014,974321,-4431,-16500,2430,-186,127,-679
28,1015,974326,-3346,-16894,-2769,-197,-579,-591
28,1016,974331,-3536,-16707,-4590,-220,-522,-575
28,1017,974336,-4477,-16361,-1996,-235,-99,-573
28,1018,974341,-4807,-16151,839,-226,-34,-541
28,1019,974346,-4590,-15960,-784,-219,-343,-492
28,1020,974351,-4362,-15934,-3512,-219,-472,-452
28,1021,974356,-4521,-15906,-3334,-233,-256,-430
28,1022,974361,-4468,-15838,-1270,-240,-81,-406
28,1023,974366,-4055,-15768,-948,-242,-186,-366
28,1024,974371,-3680,-15782,-2573,-240,-344,-330
28,1025,974376,-3591,-15835,-3440,-236,-296,-303
28,1026,974381,-3661,-15740,-2674,-231,-127,-281
28,1027,974386,-3608,-15689,-1937,-228,-77,-254
28,1028,974391,-3212,-15725,-2581,-228,-153,-217
28,1029,974396,-2853,-15732,-3308,-228,-172,-188
28,1030,974401,-2695,-15715,-3249,-225,-92,-165
28,1031,974406,-2647,-15578,-2480,-220,-26,-148
28,1032,974411,-2537,-15570,-2425,-211,-54,-118
28,1033,974416,-2382,-15432,-3058,-204,-94,-92
28,1034,974421,-2234,-15370,-3389,-199,-61,-68
28,1035,974426,-2184,-15388,-3112,-194,11,-47
28,1036,974431,-2073,-15360,-2789,-190,44,-31
28,1037,974436,-1946,-15326,-2927,-183,39,-8
28,1038,974441,-1903,-15299,-3219,-177,63,10
28,1039,974446,-1780,-15327,-3200,-166,131,28
28,1040,974451,-1746,-15253,-2988,-154,194,43
28,1041,974456,-1679,-15310,-2942,-146,219,57
28,1042,974461,-1517,-15402,-3156,-140,221,71
28,1043,974466,-1421,-15410,-3229,-131,241,88
28,1044,974471,-1295,-15466,-3111,-122,273,96
28,1045,974476,-1105,-15582,-3058,-110,290,106
28,1046,974481,-856,-15684,-3083,-105,296,119
28,1047,974486,-778,-15720,-3128,-95,306,125
28,1048,974491,-829,-15832,-2884,-87,315,129
28,1049,974496,-860,-15867,-2670,-82,298,136
28,1050,974501,-909,-15853,-2635,-74,276,143
28,1051,974506,-942,-15830,-2872,-63,272,150
28,1052,974511,-900,-15836,-2957,-54,290,155
28,1053,974516,-878,-15756,-2890,-44,296,156
28,1054,974521,-867,-15775,-2906,-35,288,157
28,1055,974526,-765,-15923,-3026,-28,282,164
28,1056,974531,-731,-15951,-3064,-18,292,162
28,1057,974536,-696,-15936,-3002,-8,301,158
28,1058,974541,-581,-15874,-3026,-1,294,159
28,1059,974546,-492,-15920,-3114,7,278,156
28,1060,974551,-600,-15900,-3212,16,263,151
28,1061,974556,-755,-15785,-3221,26,258,145
28,1062,974561,-749,-15770,-3362,37,255,142
28,1063,974566,-721,-15834,-3401,45,262,140
28,1064,974571,-479,-15924,-3271,59,245,125
28,1065,974576,-541,-15966,-3202,68,218,116
28,1066,974581,-601,-15980,-3323,78,181,112
28,1067,974586,-623,-15942,-3396,85,159,102
28,1068,974591,-663,-15910,-3401,95,143,95
28,1069,974596,-689,-15833,-3339,100,119,91
28,1070,974601,-666,-15864,-3435,107,85,86
28,1071,974606,-593,-15913,-3526,112,57,79
28,1072,974611,-431,-15950,-3678,121,47,74
28,1073,974616,-281,-16041,-3832,128,56,69
28,1074,974621,-56,-16115,-3910,134,77,62
28,1075,974626,133,-16228,-3951,138,100,55
28,1076,974631,150,-16209,-3837,143,130,45
28,1077,974636,7,-16192,-3644,149,157,36
28,1078,974641,-120,-16242,-3548,150,188,28
28,1079,974646,-39,-16261,-3303,152,222,26
28,1080,974651,143,-16152,-2808,147,243,22
28,1081,974656,219,-16143,-2341,146,229,14
28,1082,974661,337,-16222,-2120,148,181,16
28,1083,974666,483,-16329,-2046,143,123,16
28,1084,974671,556,-16409,-1927,140,70,17
28,1085,974676,571,-16423,-2093,135,14,18
28,1086,974681,549,-16389,-2445,132,-28,15
28,1087,974686,597,-16355,-2987,127,-49,14
28,1088,974691,591,-16301,-2951,119,-21,12
28,1089,974696,667,-16259,-2953,116,7,14
28,1090,974701,658,-16270,-2882,114,34,13
28,1091,974706,768,-16285,-2977,112,56,9
28,1092,974711,847,-16221,-2974,104,80,7
28,1093,974716,883,-16204,-2862,101,90,4
28,1094,974721,871,-16230,-2836,96,74,4
28,1095,974726,851,-16192,-2739,90,53,2
28,1096,974731,821,-16059,-2982,85,21,3
28,1097,974736,777,-16042,-3069,82,11,9
28,1098,974741,880,-16044,-3058,76,22,7
28,1099,974746,948,-16099,-2974,73,21,6
28,1100,974751,983,-16094,-2979,67,3,0
28,1101,974756,840,-16136,-2999,63,-13,1
28,1102,974761,764,-16115,-3092,64,-23,-2
28,1103,974766,655,-16040,-3122,62,-28,-5
28,1104,974771,592,-16016,-3151,55,-36,-9
28,1105,974776,622,-16007,-3333,53,-47,-10
28,1106,974781,696,-16077,-3456,52,-45,-11
28,1107,974786,735,-16167,-3422,51,-36,-16
28,1108,974791,751,-16202,-3470,47,-31,-20
28,1109,974796,673,-16232,-3523,47,-31,-24
28,1110,974801,582,-16240,-3573,45,-37,-34
28,1111,974806,586,-16269,-3672,43,-36,-38
28,1112,974811,545,-16275,-3758,42,-21,-43
28,1113,974816,446,-16267,-3870,44,-3,-50
28,1114,974821,409,-16186,-3906,43,12,-54
28,1115,974826,398,-16148,-3883,42,19,-58
28,1116,974831,446,-16138,-3734,41,19,-60
28,1117,974836,453,-16115,-3582,41,13,-65
28,1118,974841,422,-16124,-3601,42,0,-72
28,1119,974846,435,-16126,-3715,41,-10,-74
28,1120,974851,482,-16137,-3698,45,-14,-78
28,1121,974856,464,-16098,-3724,47,-17,-84
28,1122,974861,390,-16117,-3716,47,-24,-88
28,1123,974866,291,-16095,-3628,44,-30,-96
28,1124,974871,268,-16079,-3588,43,-33,-97
28,1125,974876,270,-16128,-3504,46,-32,-99
28,1126,974881,324,-16125,-3275,43,-27,-106
28,1127,974886,375,-16118,-3141,42,-42,-107
28,1128,974891,320,-16095,-3032,44,-67,-109
28,1129,974896,232,-16044,-2964,42,-97,-109
28,1130,974901,259,-16038,-3109,42,-126,-106
28,1131,974906,393,-16008,-3191,39,-143,-108
28,1132,974911,346,-15957,-3267,36,-156,-112
28,1133,974916,259,-15922,-3442,34,-173,-114
28,1134,974921,212,-15896,-3572,36,-189,-110
28,1135,974926,237,-15956,-3625,35,-187,-110
28,1136,974931,313,-15948,-3641,32,-179,-112
28,1137,974936,354,-15960,-3561,33,-170,-113
28,1138,974941,315,-16005,-3600,29,-162,-110
28,1139,974946,274,-16022,-3625,30,-163,-109
28,1140,974951,241,-16065,-3651,31,-164,-104
28,1141,974956,299,-16112,-3649,28,-163,-103
28,1142,974961,287,-16129,-3682,30,-162,-100
28,1143,974966,249,-16094,-3749,29,-153,-97
28,1144,974971,298,-16029,-3808,30,-142,-93
28,1145,974976,240,-16016,-3810,28,-127,-92
28,1146,974981,258,-16059,-3646,26,-105,-90
28,1147,974986,379,-16086,-3493,25,-84,-84
28,1148,974991,388,-16083,-3350,26,-68,-78
28,1149,974996,330,-16018,-3406,24,-62,-75
28,1150,975001,381,-15945,-3376,24,-64,-70
28,1151,975006,449,-15907,-3320,22,-68,-65
28,1152,975011,498,-15916,-3287,20,-80,-55
28,1153,975016,537,-15919,-3287,15,-93,-51
28,1154,975021,507,-15919,-3365,15,-95,-47
28,1155,975026,430,-15939,-3504,14,-87,-38
28,1156,975031,406,-15958,-3500,11,-69,-35
28,1157,975036,370,-15904,-3555,13,-52,-27
28,1158,975041,312,-15874,-3503,12,-36,-23
28,1159,975046,287,-15841,-3531,6,-24,-19
28,1160,975051,352,-15814,-3569,5,-21,-12
28,1161,975056,382,-15858,-3558,2,-15,-5
28,1162,975061,424,-15910,-3485,0,-14,-2
28,1163,975066,425,-15880,-3375,2,-21,2
28,1164,975071,438,-15891,-3432,1,-25,10
28,1165,975076,428,-15975,-3511,0,-21,13
28,1166,975081,435,-16013,-3563,-5,-9,18
28,1167,975086,343,-16007,-3550,-6,7,20
28,1168,975091,229,-16059,-3526,-9,23,22
28,1169,975096,230,-16118,-3538,-10,33,26
28,1170,975101,285,-16119,-3589,-9,50,30
28,1171,975106,359,-16143,-3530,-9,73,30
28,1172,975111,347,-16174,-3523,-13,86,30
28,1173,975116,256,-16170,-3495,-15,81,30
28,1174,975121,227,-16160,-3555,-12,75,33
28,1175,975126,250,-16163,-3559,-11,73,36
28,1176,975131,300,-16178,-3565,-14,72,36
28,1177,975136,311,-16172,-3563,-15,63,38
28,1178,975141,287,-16156,-3630,-15,56,38
28,1179,975146,298,-16071,-3679,-11,51,36
28,1180,975151,243,-16040,-3655,-14,47,35
28,1181,975156,232,-16020,-3547,-15,43,33
28,1182,975161,236,-15995,-3461,-15,39,35
28,1183,975166,283,-16002,-3368,-18,35,35
28,1184,975171,262,-16058,-3335,-17,25,30
28,1185,975176,315,-16006,-3340,-17,12,29
28,1186,975181,354,-16001,-3388,-17,-2,28
28,1187,975186,392,-16041,-3302,-18,-18,24
28,1188,975191,346,-16017,-3246,-20,-42,22
28,1189,975196,403,-16042,-3250,-20,-72,22
28,1190,975201,564,-16013,-3530,-17,-89,22
28,1191,975206,662,-16012,-3689,-20,-89,19
28,1192,975211,619,-15981,-3650,-19,-91,18
28,1193,975216,539,-15935,-3717,-18,-105,14
28,1194,975221,452,-15855,-3824,-19,-112,14
28,1195,975226,524,-15810,-3742,-21,-101,14
28,1196,975231,614,-15851,-3711,-21,-83,11
28,1197,975236,692,-15925,-3722,-21,-66,7
28,1198,975241,728,-15953,-3771,-17,-56,6
28,1199,975246,777,-15935,-3747,-19,-43,6
28,1200,975251,806,-16010,-3731,-22,-23,0
28,1201,975256,805,-16057,-3631,-24,-9,-2
28,1202,975261,788,-16079,-3570,-24,1,-3
28,1203,975266,704,-16059,-3518,-22,11,-6
28,1204,975271,657,-16105,-3469,-22,27,-9
28,1205,975276,625,-16122,-3413,-23,41,-10
28,1206,975281,633,-16112,-3389,-25,50,-13
28,1207,975286,666,-16091,-3419,-25,50,-14
28,1208,975291,626,-16126,-3352,-27,40,-14
28,1209,975296,610,-16083,-3302,-29,26,-14
28,1210,975301,648,-16067,-3337,-28,7,-13
28,1211,975306,714,-16112,-3584,-26,-3,-14
28,1212,975311,731,-16138,-3673,-27,6,-17
28,1213,975316,740,-16140,-3711,-26,16,-15
28,1214,975321,721,-16143,-3696,-30,21,-16
28,1215,975326,705,-16133,-3613,-29,27,-18
28,1216,975331,695,-16154,-3580,-27,29,-18
28,1217,975336,781,-16181,-3515,-26,29,-20
28,1218,975341,806,-16175,-3357,-24,23,-21
28,1219,975346,694,-16167,-3257,-26,10,-20
28,1220,975351,672,-16180,-3347,-23,-8,-19
28,1221,975356,761,-16199,-3354,-26,-17,-18
28,1222,975361,808,-16209,-3261,-25,-23,-20
28,1223,975366,769,-16202,-3260,-24,-36,-20
28,1224,975371,709,-16163,-3349,-23,-53,-19
28,1225,975376,578,-16120,-3486,-24,-60,-21
28,1226,975381,504,-16067,-3539,-22,-59,-17
28,1227,975386,587,-16101,-3591,-26,-58,-15
28,1228,975391,716,-16139,-3650,-24,-54,-16
28,1229,975396,723,-16211,-3534,-25,-46,-17
28,1230,975401,674,-16178,-3523,-26,-41,-20
28,1231,975406,654,-16102,-3558,-25,-38,-19
28,1232,975411,566,-16131,-3624,-22,-32,-21
28,1233,975416,559,-16084,-3684,-26,-20,-21
28,1234,975421,485,-16049,-3672,-25,-11,-21
28,1235,975426,406,-16021,-3578,-24,-12,-21
28,1236,975431,365,-16007,-3496,-23,-9,-23
28,1237,975436,440,-15973,-3591,-22,-6,-18
28,1238,975441,546,-15985,-3559,-21,-3,-15
28,1239,975446,602,-15993,-3438,-24,-3,-18
28,1440,976451,496,-16103,-3684,9,25,18
28,1441,976456,451,-16105,-3603,8,15,18
28,1442,976461,484,-16141,-3603,7,3,19
28,1443,976466,481,-16141,-3629,10,-4,23
28,1444,976471,487,-16113,-3660,7,-7,18
28,1445,976476,498,-16073,-3679,7,-4,16
28,1446,976481,501,-16069,-3712,6,-7,17
28,1447,976486,487,-16038,-3840,7,-9,15
28,1448,976491,472,-16065,-3903,7,-7,13
28,1449,976496,502,-16063,-3878,6,-3,16
28,1450,976501,562,-16026,-3759,5,-1,13
28,1451,976506,523,-16042,-3793,5,-11,13
28,1452,976511,500,-16017,-3844,5,-26,9
28,1453,976516,414,-15984,-3920,7,-33,9
28,1454,976521,349,-15944,-3995,8,-38,10
28,1455,976526,421,-15916,-4108,7,-30,11
28,1456,976531,522,-15948,-4066,6,-16,6
28,1457,976536,507,-15952,-3838,8,-13,2
28,1458,976541,425,-15890,-3741,9,-23,2
28,1459,976546,396,-15890,-3785,8,-35,-1
28,1460,976551,456,-15927,-3928,6,-32,0
28,1461,976556,553,-15963,-3907,7,-18,1
28,1462,976561,512,-15991,-3827,6,-5,-4
28,1463,976566,396,-15961,-3744,8,-4,-6
28,1464,976571,360,-15899,-3752,7,-10,-7
28,1465,976576,341,-15915,-3688,6,-9,-4
28,1466,976581,355,-15969,-3670,4,-8,-7
28,1467,976586,460,-15976,-3658,4,-14,-8
28,1468,976591,487,-16008,-3713,3,-23,-10
28,1469,976596,478,-15971,-3814,3,-31,-11
28,1470,976601,442,-15959,-3866,5,-31,-9
28,1471,976606,452,-15916,-3818,-1,-29,-8
28,1472,976611,454,-15960,-3788,-1,-20,-8
28,1473,976616,515,-15969,-3795,0,-10,-11
28,1474,976621,554,-15960,-3737,-2,2,-12
28,1475,976626,571,-16004,-3678,-4,6,-15
28,1476,976631,566,-16000,-3575,-8,2,-13
28,1477,976636,565,-15993,-3561,-7,-5,-13
28,1478,976641,554,-16019,-3542,-4,-10,-14
28,1479,976646,464,-16003,-3516,-6,-10,-14
28,1495,976726,616,-16031,-3756,-11,-9,-7
28,1496,976731,631,-16008,-3751,-10,-9,-8
28,1497,976736,522,-16015,-3766,-10,-18,-5
28,1498,976741,448,-15993,-3769,-9,-25,-4
28,1499,976746,452,-16010,-3806,-7,-27,-4
28,1500,976751,482,-16019,-3826,-8,-16,-6
28,1501,976756,448,-16039,-3784,-8,-9,-8
28,1502,976761,455,-16045,-3745,-7,-5,-6
28,1503,976766,431,-15983,-3766,-6,-1,-6
28,1504,976771,484,-16052,-3726,-5,-1,-3
28,1505,976776,501,-16057,-3672,-3,-6,-7
28,1506,976781,417,-16023,-3654,-4,-12,-8
28,1507,976786,409,-15956,-3727,-2,-16,-5
28,1508,976791,413,-15962,-3782,0,-13,-6
28,1509,976796,477,-15967,-3803,-3,-3,-5
28,1510,976801,491,-15936,-3825,-3,-3,-3
28,1511,976806,439,-15928,-3807,-3,-6,-6
28,1512,976811,484,-15927,-3844,-3,-5,-3
28,1513,976816,488,-15882,-3830,-3,-2,-3
28,1514,976821,442,-15874,-3745,0,-3,-3
28,1515,976826,377,-15868,-3729,2,-6,-2
28,1516,976831,356,-15851,-3821,0,-8,1
28,1517,976836,333,-15838,-3780,1,-8,2
28,1518,976841,332,-15865,-3773,3,-4,4
28,1519,976846,382,-15880,-3813,7,-5,4
28,1520,976851,527,-15886,-3861,8,-14,4
28,1521,976856,653,-15938,-3866,7,-22,5
28,1522,976861,776,-15941,-3941,10,-32,9
28,1523,976866,798,-15850,-4046,13,-42,8
28,1524,976871,760,-15773,-4150,16,-51,8
28,1525,976876,719,-15686,-4243,16,-46,8
28,1526,976881,748,-15543,-4176,17,-39,7
28,1527,976886,726,-15436,-4106,17,-38,10
28,1528,976891,691,-15337,-4007,18,-51,14
28,1529,976896,660,-15309,-3883,19,-65,15
28,1530,976901,698,-15449,-3927,22,-73,19
28,1531,976906,862,-15598,-3934,23,-71,22
28,1532,976911,1006,-15731,-3840,22,-63,24
28,1533,976916,1074,-15901,-3900,20,-62,23
28,1534,976921,1022,-16088,-3896,20,-56,23
28,1535,976926,920,-16213,-3926,21,-50,25
28,1536,976931,788,-16364,-3959,19,-36,26
28,1537,976936,660,-16608,-3953,19,-23,26
28,1538,976941,704,-16741,-4137,22,-1,28
28,1539,976946,660,-16830,-4199,19,38,26
28,1540,976951,532,-16902,-3949,14,75,21
28,1541,976956,467,-16948,-3822,16,98,19
28,1542,976961,506,-16944,-3843,15,115,20
28,1543,976966,505,-16915,-3790,10,144,17
28,1544,976971,474,-16836,-3523,6,171,14
28,1545,976976,384,-16671,-3194,4,174,11
28,1546,976981,245,-16486,-3075,5,155,9
28,1547,976986,200,-16311,-3108,2,127,12
28,1548,976991,293,-16187,-3223,-2,98,14
28,1549,976996,321,-16094,-3259,-7,67,15
28,1550,977001,396,-15910,-3340,-8,32,15
28,1551,977006,367,-15811,-3518,-12,0,13
28,1552,977011,376,-15768,-3749,-14,-15,14
28,1553,977016,403,-15656,-3759,-18,-22,11
28,1554,977021,307,-15555,-3916,-19,-29,12
28,1555,977026,241,-15513,-4007,-18,-23,14
28,1556,977031,308,-15465,-4074,-22,-14,14
28,1557,977036,354,-15407,-4049,-24,4,13
28,1558,977041,331,-15351,-3934,-23,15,10
28,1559,977046,316,-15300,-3950,-22,10,7
28,1560,977051,306,-15265,-4016,-23,-2,11
28,1561,977056,377,-15263,-4066,-22,-11,14
28,1562,977061,399,-15344,-4046,-24,-16,14
28,1563,977066,506,-15512,-4048,-21,-28,14
28,1564,977071,644,-15677,-4068,-19,-40,15
28,1565,977076,796,-15824,-3976,-21,-44,18
28,1566,977081,853,-15976,-3795,-19,-56,20
28,1567,977086,781,-16083,-3824,-18,-77,19
28,1568,977091,584,-16061,-3983,-20,-93,17
28,1569,977096,472,-16028,-4125,-17,-90,18
28,1570,977101,428,-16084,-4159,-17,-59,19
28,1571,977106,467,-16100,-4121,-16,-26,19
28,1572,977111,597,-16109,-4024,-16,-9,18
28,1573,977116,709,-16189,-3928,-18,-5,20
28,1574,977121,822,-16275,-3798,-15,-1,21
28,1575,977126,984,-16332,-3799,-12,4,17
28,1576,977131,993,-16342,-3826,-11,7,16
28,1577,977136,956,-16281,-3959,-14,21,17
28,1578,977141,1002,-16268,-3898,-10,20,16
28,1579,977146,1033,-16249,-3797,-9,20,16
28,1580,977151,1084,-16292,-3724,-9,14,14
28,1581,977156,1130,-16279,-3686,-9,0,14
28,1582,977161,1086,-16204,-3755,-4,-10,17
28,1583,977166,1009,-16259,-3863,-2,-4,12
28,1584,977171,1088,-16250,-3865,1,16,10
28,1585,977176,1121,-16178,-3856,1,29,10
28,1586,977181,1135,-16150,-3793,-1,34,7
28,1587,977186,1187,-16152,-3746,-1,37,4
28,1588,977191,1080,-16123,-3716,1,46,6
28,1589,977196,1066,-16075,-3635,0,55,-1
28,1590,977201,1002,-16043,-3618,1,57,-6
28,1591,977206,926,-16006,-3620,2,60,-9
28,1592,977211,878,-15977,-3559,2,62,-12
28,1593,977216,850,-15937,-3429,1,56,-14
28,1594,977221,756,-15900,-3453,3,45,-16
28,1595,977226,709,-15873,-3622,0,41,-19
28,1596,977231,708,-15905,-3650,-2,47,-23
28,1597,977236,683,-15920,-3647,2,56,-26
28,1598,977241,591,-15938,-3710,2,63,-32
28,1599,977246,440,-15911,-3702,2,68,-37
