event_id,seq,ts_ms,ax,ay,az,gx,gy,gz
5,0,331398,-2555,-15559,3385,270,290,620
5,1,331403,-2940,-15501,3390,268,306,614
5,2,331408,-2976,-15419,3450,265,308,614
5,3,331413,-2709,-15361,3767,263,297,612
5,4,331418,-2680,-15360,4137,261,264,607
5,5,331423,-2938,-15417,4233,259,191,604
5,6,331428,-3087,-15463,4016,258,103,604
5,7,331433,-2939,-15419,3881,255,34,608
5,8,331438,-2832,-15269,4005,253,-12,606
5,9,331443,-2991,-15209,4147,253,-59,598
5,10,331448,-3227,-15211,3943,249,-103,594
5,11,331453,-3419,-15183,3524,247,-121,593
5,12,331458,-3597,-15186,3233,244,-95,588
5,13,331463,-3591,-15155,3258,240,-34,579
5,14,331468,-3740,-15104,3349,234,37,565
5,15,331473,-3923,-15107,3400,231,104,557
5,16,331478,-4145,-15160,3394,228,158,549
5,17,331483,-4115,-15217,3441,225,219,536
5,18,331488,-3808,-15183,3607,222,282,526
5,19,331493,-3640,-15137,3837,218,317,515
5,20,331498,-3783,-15112,4511,213,338,508
5,21,331503,-3991,-15077,4462,203,273,505
5,22,331508,-4106,-15147,4032,201,206,508
5,23,331513,-4188,-15265,3980,197,210,499
5,24,331518,-4315,-15314,4399,191,228,483
5,25,331523,-4428,-15404,4382,192,192,478
5,26,331528,-4534,-15420,4064,191,141,478
5,27,331533,-4591,-15470,3950,186,114,467
5,28,331538,-4816,-15536,4049,177,114,455
5,29,331543,-4952,-15528,4140,177,111,446
5,30,331548,-4820,-15487,4064,175,94,439
5,31,331553,-4714,-15448,3862,170,76,430
5,32,331558,-4726,-15416,4147,164,68,419
5,33,331563,-4876,-15383,4045,162,38,416
5,34,331568,-4810,-15376,3974,159,42,404
5,35,331573,-4573,-15319,3898,155,50,394
5,36,331578,-4521,-15327,4017,151,55,385
5,37,331583,-4596,-15358,4079,148,43,377
5,38,331588,-4732,-15277,4075,143,36,369
5,39,331593,-4743,-15297,3883,142,35,362
5,40,331598,-4791,-15296,3831,142,44,354
5,41,331603,-4957,-15314,4057,135,63,345
5,42,331608,-4980,-15308,4135,127,60,338
5,43,331613,-4813,-15330,3977,125,41,330
5,44,331618,-4711,-15347,3795,123,40,322
5,45,331623,-4840,-15308,3909,118,64,309
5,46,331628,-5002,-15261,3774,115,64,299
5,47,331633,-4920,-15209,3700,109,99,283
5,48,331638,-4913,-15195,4008,106,126,268
5,49,331643,-5042,-15207,4014,103,128,262
5,50,331648,-5125,-15240,3872,100,124,254
5,51,331653,-5112,-15184,4060,94,131,246
5,52,331658,-5119,-15170,4151,91,119,240
5,53,331663,-5302,-15267,4364,90,108,231
5,54,331668,-5341,-15284,4249,85,78,224
5,55,331673,-5148,-15224,4055,83,53,218
5,56,331678,-5093,-15208,4090,79,28,209
5,57,331683,-5165,-15206,4393,75,-3,204
5,58,331688,-5192,-15173,4282,72,-44,199
5,59,331693,-5106,-15239,3850,73,-71,196
5,60,331698,-5183,-15324,3662,70,-72,188
5,61,331703,-5281,-15293,3726,64,-63,175
5,62,331708,-5333,-15321,3826,60,-57,171
5,63,331713,-5259,-15380,3563,57,-49,161
5,64,331718,-5320,-15386,3418,57,-3,147
5,65,331723,-5351,-15366,3460,55,57,133
5,66,331728,-5531,-15312,3760,48,109,121
5,67,331733,-5709,-15382,3961,44,129,119
5,68,331738,-5470,-15512,3906,44,129,117
5,69,331743,-5227,-15546,3890,43,133,109
5,70,331748,-5274,-15503,4266,38,124,97
5,71,331753,-5349,-15510,4510,36,77,96
5,72,331758,-5099,-15462,4207,37,13,98
5,73,331763,-4745,-15497,3762,36,-28,97
5,74,331768,-4780,-15428,3737,34,-42,87
5,75,331773,-5062,-15355,3836,29,-57,83
5,76,331778,-5247,-15346,3632,26,-67,81
5,77,331783,-5211,-15384,3245,27,-51,79
5,78,331788,-5149,-15388,3106,27,13,71
5,79,331793,-5199,-15329,3393,25,91,56
5,80,331798,-5270,-15269,3658,20,137,47
5,81,331803,-5179,-15174,3753,17,146,43
5,82,331808,-5062,-15108,3712,14,158,42
5,83,331813,-5109,-15130,3776,9,192,32
5,84,331818,-5254,-15120,4018,6,229,22
5,85,331823,-5391,-15062,4047,4,252,19
5,86,331828,-5425,-15064,4049,1,261,16
5,87,331833,-5437,-15100,4135,-1,260,11
5,88,331838,-5467,-15123,4371,-4,238,4
5,89,331843,-5496,-15139,4540,-7,199,-1
5,90,331848,-5549,-15174,4545,-7,144,-1
5,91,331853,-5622,-15291,4465,-11,84,-3
5,92,331858,-5558,-15335,4409,-13,25,-9
5,93,331863,-5529,-15274,4356,-16,-27,-14
5,94,331868,-5682,-15283,4236,-20,-76,-20
5,95,331873,-5823,-15339,4130,-23,-122,-25
5,96,331878,-5881,-15319,3909,-25,-147,-29
5,97,331883,-5762,-15308,3795,-25,-136,-36
5,98,331888,-5763,-15311,3809,-28,-102,-46
5,99,331893,-5722,-15317,3899,-34,-69,-58
5,100,331898,-5663,-15233,3853,-38,-43,-69
5,101,331903,-5563,-15203,3837,-41,-18,-78
5,102,331908,-5426,-15092,3922,-48,10,-85
5,103,331913,-5303,-14979,4064,-54,48,-97
5,104,331918,-5403,-14912,4137,-58,82,-107
5,105,331923,-5490,-14955,4139,-61,112,-113
5,106,331928,-5521,-14925,4013,-67,143,-119
5,107,331933,-5430,-14960,4023,-70,176,-127
5,108,331938,-5463,-14981,4078,-80,206,-141
5,109,331943,-5687,-15016,4371,-84,235,-156
5,110,331948,-5827,-15158,4195,-85,221,-162
5,111,331953,-5987,-15297,4232,-87,207,-170
5,112,331958,-5927,-15411,4590,-93,175,-178
5,113,331963,-5559,-15462,4819,-97,85,-183
5,114,331968,-5313,-15503,4486,-96,-30,-186
5,115,331973,-5439,-15619,4442,-99,-102,-200
5,116,331978,-5593,-15561,4354,-108,-179,-203
5,117,331983,-5648,-15601,3831,-110,-266,-205
5,118,331988,-5539,-15682,3297,-114,-295,-216
5,119,331993,-5551,-15645,3146,-120,-252,-232
5,120,331998,-5469,-15559,3332,-128,-127,-259
5,121,332003,-5206,-15504,3372,-130,-77,-270
5,122,332008,-4971,-15478,3513,-140,-23,-286
5,123,332013,-4803,-15396,3672,-149,27,-302
5,124,332018,-4857,-15258,3711,-156,81,-316
5,125,332023,-5122,-15220,3801,-164,146,-328
5,126,332028,-5499,-15376,3894,-167,204,-336
5,127,332033,-5453,-15464,3754,-171,251,-349
5,128,332038,-5096,-15403,3899,-174,293,-364
5,129,332043,-4982,-15456,4425,-179,281,-380
5,130,332048,-5083,-15487,4922,-184,200,-389
5,131,332053,-5003,-15545,4762,-190,70,-390
5,132,332058,-4800,-15627,4266,-192,-50,-391
5,133,332063,-4753,-15654,3953,-194,-130,-400
5,134,332068,-4803,-15624,3928,-199,-196,-410
5,135,332073,-4923,-15586,3745,-206,-266,-415
5,136,332078,-4932,-15664,3168,-210,-312,-421
5,137,332083,-4857,-15740,2761,-211,-304,-429
5,138,332088,-4733,-15741,2704,-216,-238,-446
5,139,332093,-4598,-15656,2945,-225,-160,-468
5,140,332098,-4485,-15612,3081,-227,-107,-480
5,141,332103,-4395,-15634,2938,-233,-71,-489
5,142,332108,-4450,-15697,2907,-240,-28,-501
5,143,332113,-4555,-15787,3000,-245,28,-511
5,144,332118,-4511,-15879,3176,-247,85,-523
5,145,332123,-4507,-16027,3420,-246,129,-532
5,146,332128,-4567,-16198,3604,-245,132,-539
5,147,332133,-4451,-16223,3780,-246,85,-549
5,148,332138,-4245,-16273,4016,-247,1,-555
5,149,332143,-4095,-16275,4114,-248,-107,-558
5,150,332148,-3984,-16244,4029,-250,-226,-559
5,151,332153,-4032,-16193,3823,-252,-340,-562
5,152,332158,-4036,-16173,3495,-254,-432,-562
5,153,332163,-4022,-16149,3144,-257,-486,-563
5,154,332168,-3929,-16087,2837,-256,-498,-567
5,155,332173,-3805,-16052,2609,-260,-465,-575
5,156,332178,-3814,-16041,2559,-261,-413,-582
5,157,332183,-3812,-15983,2607,-267,-343,-592
5,158,332188,-3742,-15952,2599,-269,-265,-601
5,159,332193,-3607,-15930,2611,-270,-181,-608
5,160,332198,-3467,-15894,2757,-272,-103,-620
5,161,332203,-3420,-15866,3052,-275,-42,-625
5,162,332208,-3466,-15856,3338,-275,-18,-626
5,163,332213,-3491,-15922,3420,-277,-18,-628
5,164,332218,-3462,-15993,3357,-275,-20,-631
5,165,332223,-3232,-15973,3392,-275,-23,-637
5,166,332228,-3114,-15914,3530,-272,-44,-640
5,167,332233,-3046,-15905,3599,-274,-91,-634
5,168,332238,-2996,-15862,3479,-274,-155,-632
5,169,332243,-2975,-15893,3130,-277,-205,-631
5,170,332248,-2937,-15922,2810,-276,-212,-630
5,171,332253,-2990,-16018,2657,-271,-188,-634
5,172,332258,-3033,-16040,2670,-273,-154,-644
5,173,332263,-2894,-16025,2627,-274,-132,-644
5,174,332268,-2662,-15954,2556,-271,-110,-647
5,175,332273,-2615,-15878,2672,-273,-84,-652
5,176,332278,-2573,-15862,2830,-273,-63,-655
5,177,332283,-2516,-15837,2845,-272,-44,-653
5,178,332288,-2357,-15867,2721,-275,-28,-654
5,179,332293,-2211,-15878,2769,-272,-6,-656
5,180,332298,-2408,-15927,2974,-273,14,-653
5,181,332303,-2721,-16014,3027,-272,20,-655
5,182,332308,-2703,-16037,2766,-269,28,-654
5,183,332313,-2341,-16055,2725,-267,46,-653
5,184,332318,-2125,-16018,3102,-265,41,-658
5,185,332323,-2194,-15982,3495,-267,-12,-660
5,186,332328,-2227,-16007,3437,-266,-109,-654
5,187,332333,-2059,-16017,3055,-264,-201,-646
5,188,332338,-1941,-16030,2845,-261,-246,-642
5,189,332343,-1927,-16007,2908,-259,-272,-640
5,190,332348,-1881,-15948,2803,-260,-299,-643
5,191,332353,-1759,-15862,2461,-260,-330,-643
5,192,332358,-1655,-15835,2133,-260,-336,-638
5,193,332363,-1480,-15805,1969,-261,-246,-639
5,194,332368,-1394,-15790,1806,-259,-180,-640
5,195,332373,-1278,-15788,1613,-260,-100,-642
5,196,332378,-1150,-15806,1656,-261,-18,-647
5,197,332383,-1316,-15878,1863,-257,64,-649
5,198,332388,-1499,-15969,1917,-255,131,-649
5,199,332393,-1517,-16113,2024,-253,191,-650
5,200,332398,-1427,-16158,2310,-246,231,-654
5,201,332403,-1268,-16203,2688,-243,226,-654
5,202,332408,-1106,-16155,3032,-241,171,-651
5,203,332413,-1053,-16166,3117,-241,79,-648
5,204,332418,-1097,-16213,3119,-239,-28,-640
5,205,332423,-1080,-16217,2934,-239,-122,-632
5,206,332428,-966,-16249,2799,-235,-192,-627
5,207,332433,-986,-16189,2588,-231,-245,-625
5,208,332438,-1102,-16196,2379,-233,-286,-620
5,209,332443,-1145,-16096,2083,-231,-317,-619
5,210,332448,-1043,-16015,1698,-232,-323,-617
5,211,332453,-812,-16014,1694,-228,-270,-619
5,212,332458,-701,-16024,1967,-230,-207,-622
5,213,332463,-564,-15996,1866,-229,-174,-623
5,214,332468,-566,-16216,1522,-229,-148,-620
5,215,332473,-520,-16023,1524,-230,-89,-642
5,216,332478,-333,-15896,1675,-232,-23,-636
5,217,332483,-277,-16104,1696,-225,27,-618
5,218,332488,-31,-15927,1624,-222,73,-629
5,219,332493,-86,-16060,1834,-218,110,-616
5,220,332498,-79,-16092,2033,-218,122,-617
5,221,332503,-27,-16036,2059,-215,107,-622
5,222,332508,-62,-16126,2152,-214,96,-615
5,223,332513,-62,-16200,2201,-214,76,-611
5,224,332518,-46,-16102,2442,-212,42,-613
5,225,332523,17,-16089,2461,-209,-15,-606
5,226,332528,-410,-16063,2604,-209,-87,-598
5,227,332533,352,-15917,2103,-209,-185,-593
5,228,332538,200,-16396,2491,-197,-219,-579
5,229,332543,-98,-16099,1924,-204,-283,-596
5,230,332548,-380,-16207,1935,-203,-300,-585
5,231,332553,387,-15981,1683,-201,-316,-575
5,232,332558,666,-16263,2056,-203,-307,-564
5,233,332563,526,-16088,1626,-204,-330,-570
5,234,332568,429,-16223,1413,-200,-306,-561
5,235,332573,484,-16172,1079,-201,-255,-564
5,236,332578,976,-16151,1105,-199,-177,-566
5,237,332583,1257,-16231,1188,-195,-104,-566
5,238,332588,1243,-16318,1078,-194,-58,-566
5,239,332593,986,-16378,992,-194,-9,-560
5,240,332598,922,-16361,750,-193,49,-552
5,241,332603,1020,-16414,752,-189,137,-550
5,242,332608,1104,-16407,956,-180,222,-554
5,243,332613,1132,-16379,1333,-175,275,-552
5,244,332618,1080,-16405,1472,-175,273,-547
5,245,332623,1086,-16305,1549,-175,250,-543
5,246,332628,1139,-16313,1724,-169,236,-533
5,247,332633,1190,-16231,1941,-163,224,-532
5,248,332638,1134,-16260,2192,-159,202,-526
5,249,332643,967,-16182,2438,-159,145,-521
5,250,332648,924,-16152,2410,-158,68,-512
5,251,332653,851,-16088,2285,-158,-12,-505
5,252,332658,870,-16024,2338,-155,-75,-500
5,253,332663,980,-16057,2256,-153,-134,-491
5,254,332668,1136,-16176,2051,-150,-183,-485
5,255,332673,1181,-16124,1954,-149,-217,-484
5,256,332678,1150,-16089,1718,-150,-248,-474
5,257,332683,1204,-16111,1421,-149,-270,-468
5,258,332688,1360,-16157,1188,-146,-274,-464
5,259,332693,1577,-16238,924,-145,-259,-457
5,260,332698,1919,-16352,907,-142,-211,-453
5,261,332703,1970,-16429,1003,-138,-149,-454
5,262,332708,1936,-16429,634,-131,-103,-451
5,263,332713,1824,-16406,427,-129,-53,-448
5,264,332718,1869,-16355,355,-124,7,-441
5,265,332723,1974,-16342,562,-120,71,-436
5,266,332728,1820,-16328,953,-114,159,-434
5,267,332733,1716,-16379,1077,-107,183,-428
5,268,332738,1868,-16340,1142,-104,190,-425
5,269,332743,1955,-16299,1527,-98,184,-418
5,270,332748,2111,-16288,1766,-93,148,-411
5,271,332753,2059,-16332,1776,-90,87,-404
5,272,332758,2021,-16316,1715,-83,18,-396
5,273,332763,1936,-16292,1675,-83,-49,-382
5,274,332768,1921,-16264,1488,-79,-108,-373
5,275,332773,1986,-16263,1344,-73,-129,-367
5,276,332778,2096,-16251,1238,-69,-141,-364
5,277,332783,2049,-16285,1094,-68,-158,-360
5,278,332788,2184,-16242,843,-67,-172,-353
5,279,332793,2318,-16342,797,-67,-152,-343
5,280,332798,2328,-16346,759,-64,-109,-345
5,281,332803,2177,-16365,888,-60,-54,-343
5,282,332808,2087,-16361,907,-54,-20,-336
5,283,332813,2153,-16355,888,-52,7,-330
5,284,332818,2433,-16368,962,-51,41,-323
5,285,332823,2520,-16466,1208,-48,70,-320
5,286,332828,2355,-16526,1342,-43,70,-321
5,287,332833,2300,-16507,1230,-41,54,-314
5,288,332838,2449,-16472,1223,-42,31,-304
5,289,332843,2625,-16419,1275,-40,11,-300
5,290,332848,2604,-16390,1356,-36,-9,-296
5,291,332853,2492,-16349,1176,-30,-39,-288
5,292,332858,2511,-16358,963,-26,-65,-276
5,293,332863,2516,-16368,771,-24,-79,-272
5,294,332868,2467,-16366,830,-24,-80,-273
5,295,332873,2375,-16345,895,-23,-78,-265
5,296,332878,2466,-16375,712,-18,-72,-259
5,297,332883,2741,-16430,567,-12,-58,-253
5,298,332888,2872,-16497,845,-11,-33,-249
5,299,332893,2917,-16435,1070,-11,-25,-244
5,300,332898,2905,-16464,895,-7,-31,-237
5,301,332903,2983,-16449,546,-4,-27,-228
5,302,332908,2948,-16474,506,-4,0,-225
5,303,332913,2884,-16453,784,-3,31,-221
5,304,332918,2966,-16405,913,1,44,-218
5,305,332923,2994,-16422,681,4,52,-209
5,306,332928,2950,-16461,501,10,76,-203
5,307,332933,2864,-16393,714,9,108,-199
5,308,332938,2909,-16382,939,8,120,-194
5,309,332943,2923,-16384,896,10,115,-187
5,310,332948,2914,-16408,831,12,117,-179
5,311,332953,2825,-16410,973,16,128,-174
5,312,332958,2762,-16428,1178,16,131,-171
5,313,332963,2748,-16441,1269,20,119,-169
5,314,332968,2751,-16459,1160,22,103,-162
5,315,332973,2785,-16486,1186,25,82,-155
5,316,332978,2763,-16429,1393,20,52,-154
5,317,332983,2749,-16380,1510,21,13,-150
5,318,332988,2763,-16366,1225,23,-17,-140
5,319,332993,2791,-16276,1028,21,-25,-135
5,320,332998,2801,-16251,1019,21,-21,-132
5,321,333003,2763,-16180,1065,20,-18,-129
5,322,333008,2844,-16183,925,21,-22,-121
5,323,333013,2943,-16252,910,20,-15,-116
5,324,333018,2993,-16273,947,22,-2,-114
5,325,333023,2957,-16232,978,27,13,-112
5,326,333028,3016,-16180,919,26,13,-107
5,327,333033,3055,-16187,957,27,11,-98
5,328,333038,3103,-16220,985,26,1,-94
5,329,333043,3210,-16266,954,25,3,-90
5,330,333048,3219,-16362,865,27,8,-84
5,331,333053,3066,-16401,914,29,15,-83
5,332,333058,3024,-16367,877,30,13,-76
5,333,333063,2992,-16340,942,28,9,-71
5,334,333068,3061,-16338,893,31,10,-66
5,335,333073,3034,-16360,882,29,20,-65
5,336,333078,2959,-16333,910,29,38,-62
5,337,333083,2980,-16293,908,29,47,-58
5,338,333088,2951,-16245,1075,27,54,-56
5,339,333093,2845,-16213,1230,28,43,-49
5,340,333098,2910,-16226,1127,28,37,-42
5,341,333103,2891,-16240,1148,30,37,-38
5,342,333108,2891,-16269,1239,27,27,-35
5,343,333113,2923,-16276,1211,25,12,-32
5,344,333118,3062,-16287,1147,26,6,-33
5,345,333123,3038,-16314,1165,25,15,-31
5,346,333128,2845,-16234,1251,21,24,-33
5,347,333133,2776,-16163,1126,22,29,-28
5,348,333138,2736,-16128,1022,19,33,-24
5,349,333143,2953,-16176,995,18,38,-22
5,350,333148,3004,-16173,1185,16,51,-18
5,351,333153,3009,-16245,1194,14,52,-19
5,352,333158,2743,-16272,1111,13,55,-19
5,353,333163,2599,-16218,1007,12,58,-14
5,354,333168,2687,-16252,1030,11,67,-10
5,355,333173,2765,-16282,1280,10,72,-10
5,356,333178,2832,-16316,1396,8,65,-14
5,357,333183,2768,-16306,1363,5,43,-12
5,358,333188,2794,-16308,1215,5,15,-5
5,359,333193,2799,-16284,1204,5,0,-2
5,360,333198,2877,-16253,1237,2,-6,-2
5,361,333203,2832,-16220,1239,2,-9,0
5,362,333208,2724,-16264,1134,-1,-10,5
5,363,333213,2604,-16263,1045,-1,-9,6
5,364,333218,2596,-16236,1026,-2,-6,9
5,365,333223,2717,-16240,1155,-5,1,12
5,366,333228,2897,-16216,1178,-3,-6,17
5,367,333233,2969,-16240,1216,-5,-18,20
5,368,333238,3013,-16233,1199,-5,-42,24
5,369,333243,3066,-16222,1191,-4,-70,29
5,370,333248,3031,-16269,1054,-6,-91,38
5,371,333253,3049,-16268,891,-1,-102,44
5,372,333258,3075,-16297,802,-1,-104,50
5,373,333263,3056,-16302,791,1,-107,58
5,374,333268,3089,-16308,785,4,-113,65
5,375,333273,3220,-16302,672,6,-113,74
5,376,333278,3300,-16316,610,9,-104,78
5,377,333283,3263,-16302,647,9,-89,87
5,378,333288,3179,-16232,589,13,-76,96
5,379,333293,3186,-16161,557,15,-62,105
5,380,333298,3306,-16118,543,16,-40,112
5,381,333303,3378,-16127,677,23,-15,122
5,382,333308,3347,-16082,826,26,-3,130
5,383,333313,3314,-16012,905,28,-1,141
5,384,333318,3378,-15978,771,32,-6,154
5,385,333323,3488,-15903,923,32,-5,165
5,386,333328,3562,-15875,1088,40,-7,178
5,387,333333,3455,-15783,1083,41,-9,188
5,388,333338,3203,-15731,897,43,-13,203
5,389,333343,3082,-15755,747,48,-9,215
5,390,333348,3071,-15742,742,51,10,229
5,391,333353,3041,-15718,876,54,28,236
5,392,333358,2903,-15761,879,58,44,244
5,393,333363,2807,-15835,790,61,57,257
5,394,333368,2798,-15770,914,65,72,270
5,395,333373,2808,-15773,1044,68,87,276
5,396,333378,2771,-15839,1146,70,92,289
5,397,333383,2682,-15823,1141,74,88,299
5,398,333388,2704,-15921,1222,79,83,306
5,399,333393,2701,-15972,1456,78,69,319
5,400,333398,2678,-15999,1616,81,46,331
5,401,333403,2563,-15982,1568,89,19,342
5,402,333408,2448,-16045,1391,91,-2,352
5,403,333413,2325,-16013,1406,92,-26,364
5,404,333418,2308,-16042,1453,95,-54,376
5,405,333423,2271,-16053,1383,99,-79,387
5,406,333428,2258,-16076,1366,101,-90,395
5,407,333433,2202,-16139,1356,105,-85,404
5,408,333438,2240,-16160,1349,107,-75,413
5,409,333443,2276,-16120,1382,111,-65,420
5,410,333448,2186,-16143,1248,117,-59,431
5,411,333453,2191,-16102,1116,119,-53,440
5,412,333458,2221,-15988,1357,123,-32,456
5,413,333463,2217,-16113,1325,128,-24,467
5,414,333468,2150,-15987,1294,132,-13,472
5,415,333473,2101,-16058,1246,138,-1,483
5,416,333478,2053,-16049,1369,141,1,490
5,417,333483,1990,-16026,1596,142,-4,501
5,418,333488,1947,-15989,1601,144,-15,509
5,419,333493,1913,-15947,1486,151,-24,518
5,420,333498,1870,-15906,1523,154,-26,529
5,421,333503,1866,-15869,1596,157,-34,534
5,422,333508,1910,-15840,1590,163,-59,543
5,423,333513,2024,-15783,1645,164,-79,552
5,424,333518,2047,-15875,1612,168,-90,567
5,425,333523,1948,-15857,1456,173,-96,572
5,426,333528,1944,-15780,1463,176,-89,576
5,427,333533,1850,-15793,1492,181,-81,589
5,428,333538,1844,-15748,1412,182,-85,595
5,429,333543,1852,-15717,1441,186,-77,600
5,430,333548,1703,-15796,1439,187,-63,612
5,431,333553,1638,-15782,1472,194,-51,614
5,432,333558,1551,-15894,1553,194,-30,619
5,433,333563,1476,-15884,1668,198,-18,624
5,434,333568,1378,-15939,1852,201,-9,629
5,435,333573,1209,-15902,1871,204,-11,636
5,436,333578,1098,-15864,1921,209,-21,644
5,437,333583,1021,-15871,2008,214,-35,654
5,438,333588,1102,-15880,1942,214,-58,659
5,439,333593,1109,-15867,1992,218,-80,661
5,440,333598,1115,-15825,2097,222,-112,667
5,441,333603,1088,-15804,2091,226,-143,671
5,442,333608,1030,-15829,1974,228,-172,678
5,443,333613,1027,-15779,1924,232,-184,681
5,444,333618,953,-15736,1909,236,-191,686
5,445,333623,819,-15725,1937,237,-197,694
5,446,333628,694,-15746,1891,240,-201,698
5,447,333633,587,-15838,1839,244,-195,700
5,448,333638,414,-15938,1855,246,-178,704
5,449,333643,290,-16011,1799,251,-151,710
5,450,333648,294,-16032,1805,251,-112,708
5,451,333653,248,-16071,1883,253,-70,707
5,452,333658,184,-16096,1949,255,-35,708
5,453,333663,74,-16058,1921,258,-3,707
5,454,333668,-79,-16039,1985,259,26,707
5,455,333673,-291,-16058,2100,259,55,705
5,456,333678,-425,-16051,2223,262,77,705
5,457,333683,-378,-16034,2321,264,85,705
5,458,333688,-320,-15982,2505,264,79,708
5,459,333693,-392,-15934,2691,263,54,705
5,460,333698,-463,-15863,2773,265,9,708
5,461,333703,-427,-15834,2750,267,-41,712
5,462,333708,-427,-15856,2736,273,-76,715
5,463,333713,-478,-15883,2781,271,-115,721
5,464,333718,-448,-15892,2728,271,-156,724
5,465,333723,-480,-15924,2556,273,-193,724
5,466,333728,-612,-15928,2564,278,-219,727
5,467,333733,-729,-15942,2476,276,-227,730
5,468,333738,-756,-15975,2466,275,-212,732
5,469,333743,-765,-16032,2373,276,-171,726
5,470,333748,-832,-16064,2247,279,-115,726
5,471,333753,-970,-16026,2270,276,-53,719
5,472,333758,-1170,-16013,2306,275,-2,717
5,473,333763,-1236,-15988,2358,274,46,712
5,474,333768,-1264,-15967,2460,273,92,707
5,475,333773,-1283,-15957,2573,274,127,702
5,476,333778,-1308,-15927,2762,273,141,699
5,477,333783,-1353,-15928,2948,273,129,697
5,478,333788,-1439,-15968,3134,274,90,700
5,479,333793,-1594,-16035,3155,270,41,696
5,480,333798,-1704,-16015,3127,270,-8,692
5,481,333803,-1859,-15937,3106,267,-46,689
5,482,333808,-2046,-15853,3243,269,-74,687
5,483,333813,-2029,-15771,3272,269,-107,683
5,484,333818,-1822,-15719,3207,262,-133,680
5,485,333823,-1774,-15558,3295,260,-157,670
5,486,333828,-1818,-15455,3460,257,-166,668
5,487,333833,-1740,-15391,3389,254,-171,666
5,488,333838,-1587,-15309,3229,252,-163,659
5,489,333843,-1549,-15232,3251,247,-152,654
5,490,333848,-1650,-15220,3346,242,-156,648
5,491,333853,-1605,-15142,3378,238,-171,648
5,492,333858,-1613,-15093,3234,236,-174,645
5,493,333863,-1736,-15035,3134,230,-147,640
5,494,333868,-2062,-15007,3198,224,-112,630
5,495,333873,-2314,-14996,3253,220,-83,622
5,496,333878,-2407,-14927,3139,216,-59,615
5,497,333883,-2511,-14893,3066,211,-39,604
5,498,333888,-2686,-14985,3188,204,-21,594
5,499,333893,-2884,-15088,3404,197,-6,583
5,500,333898,-2998,-15241,3482,194,-5,577
5,501,333903,-3056,-15435,3370,191,-11,567
5,502,333908,-3000,-15576,3189,190,-24,556
5,503,333913,-2886,-15739,3328,186,-51,547
5,504,333918,-2720,-15797,3511,181,-98,543
5,505,333923,-2604,-15724,3429,175,-158,535
5,506,333928,-2668,-15938,3056,173,-208,543
5,507,333933,-2756,-15903,2860,173,-231,523
5,508,333938,-2768,-15819,2897,169,-235,508
5,509,333943,-2879,-15914,2995,166,-237,506
5,510,333948,-2853,-15855,2872,160,-229,491
5,511,333953,-2998,-15933,2667,161,-193,480
5,512,333958,-3287,-15950,2759,157,-133,466
5,513,333963,-3526,-15916,3136,151,-76,452
5,514,333968,-3511,-15877,3415,148,-39,440
5,515,333973,-3275,-15839,3433,142,-20,432
5,516,333978,-3296,-15830,3577,135,-15,419
5,517,333983,-3259,-15691,3975,131,-36,405
5,518,333988,-3409,-15794,4152,122,-86,415
5,519,333993,-3234,-15752,3944,119,-141,404
5,520,333998,-3054,-15642,3786,119,-177,390
5,521,334003,-3003,-15697,3745,117,-204,387
5,522,334008,-3010,-15441,3733,107,-235,368
5,523,334013,-3216,-15441,3388,102,-268,368
5,524,334018,-3394,-15558,2971,102,-269,359
5,525,334023,-3410,-15656,2673,97,-232,346
5,526,334028,-3350,-15799,2797,96,-166,337
5,527,334033,-3276,-15819,2957,91,-114,326
5,528,334038,-3255,-15853,2876,89,-73,314
5,529,334043,-3406,-16100,2645,84,-36,310
5,530,334048,-3531,-16146,2709,83,14,293
5,531,334053,-3541,-16169,3000,80,60,282
5,532,334058,-3485,-16223,3226,79,86,272
5,533,334063,-3503,-16227,3268,77,93,260
5,534,334068,-3568,-16240,3283,73,86,251
5,535,334073,-3604,-16172,3468,71,71,240
5,536,334078,-3575,-16068,3698,72,42,236
5,537,334083,-3631,-15941,3673,69,-4,232
5,538,334088,-3496,-15815,3679,68,-55,224
5,539,334093,-3499,-15798,3697,63,-99,216
5,540,334098,-3536,-15763,3682,57,-140,211
5,541,334103,-3540,-15764,3596,55,-171,204
5,542,334108,-3493,-15767,3366,52,-182,196
5,543,334113,-3487,-15837,3268,51,-175,186
5,544,334118,-3550,-15882,3161,48,-152,177
5,545,334123,-3625,-15946,3129,44,-124,169
5,546,334128,-3555,-16045,2986,40,-88,161
5,547,334133,-3529,-16137,2972,37,-37,151
5,548,334138,-3509,-16110,3038,34,15,137
5,549,334143,-3504,-16070,3129,30,59,126
5,550,334148,-3477,-16054,3176,28,83,118
5,551,334153,-3486,-16046,3161,24,101,111
5,552,334158,-3615,-16061,3239,23,124,101
5,553,334163,-3779,-16031,3362,18,142,92
5,554,334168,-3822,-15907,3456,12,153,82
5,555,334173,-3854,-15747,3548,8,154,85
5,556,334178,-3962,-15881,3798,6,147,81
5,557,334183,-3979,-15640,3972,-3,129,56
5,558,334188,-4123,-15657,3729,-13,50,45
5,559,334193,-4062,-15677,3675,-15,14,34
5,560,334198,-3909,-15733,3791,-23,-20,30
5,561,334203,-3943,-15786,3823,-27,-63,21
5,562,334208,-4012,-15845,3663,-31,-94,12
5,563,334213,-4138,-15899,3406,-34,-116,5
5,564,334218,-4127,-15945,3214,-39,-119,-4
5,565,334223,-4037,-15979,3218,-43,-107,-14
5,566,334228,-3987,-15991,3327,-49,-93,-26
5,567,334233,-3872,-15997,3277,-53,-90,-33
5,568,334238,-3765,-15941,3162,-59,-79,-42
5,569,334243,-3737,-15953,3154,-61,-59,-50
5,570,334248,-3734,-15910,3201,-68,-40,-62
5,571,334253,-3678,-15832,3301,-73,-19,-70
5,572,334258,-3659,-15733,3386,-76,-5,-77
5,573,334263,-3647,-15628,3454,-84,0,-85
5,574,334268,-3658,-15509,3551,-91,4,-92
5,575,334273,-3681,-15403,3613,-95,1,-97
5,576,334278,-3565,-15272,3586,-101,-9,-104
5,577,334283,-3552,-15392,3627,-109,-30,-94
5,578,334288,-3569,-15478,3793,-113,-50,-104
5,579,334293,-3504,-15389,3841,-121,-74,-118
5,580,334298,-3591,-15454,3592,-127,-98,-117
5,581,334303,-3631,-15416,3278,-132,-111,-130
5,582,334308,-3754,-15419,3110,-139,-107,-135
5,583,334313,-3783,-15381,3201,-146,-101,-138
5,584,334318,-3711,-15462,3108,-152,-90,-146
5,585,334323,-3606,-15470,2973,-155,-63,-157
5,586,334328,-3569,-15534,2745,-158,-37,-162
5,587,334333,-3649,-15557,2865,-165,-9,-170
5,588,334338,-3736,-15648,2870,-170,-3,-175
5,589,334343,-3728,-15812,2909,-174,-7,-178
5,590,334348,-3705,-15954,2814,-177,-13,-184
5,591,334353,-3767,-16025,2909,-177,-13,-189
5,592,334358,-3793,-16013,3021,-179,-23,-194
5,593,334363,-3706,-16049,3138,-181,-55,-199
5,594,334368,-3545,-16008,3082,-182,-99,-199
5,595,334373,-3390,-16018,3011,-185,-136,-198
5,596,334378,-3430,-16067,2929,-189,-156,-198
5,597,334383,-3523,-16220,2736,-190,-159,-202
5,598,334388,-3562,-16305,2487,-193,-155,-204
5,599,334393,-6695,-19673,1057,-192,-134,-204
5,600,334398,-1597,-19968,11823,173,889,-607
5,601,334403,-6464,-8090,-31213,168,-479,-201
5,602,334408,15806,-20610,-14661,-524,112,24
5,603,334413,-25123,-7468,29028,-214,10291,-671
5,604,334418,-3934,-4784,31865,3,1372,-191
5,605,334423,20899,-17563,7731,452,-2563,556
5,606,334428,-2416,-18820,1937,143,-31,115
5,607,334433,-6818,-16793,6045,-51,164,-359
5,608,334438,-13530,-13495,-606,46,-884,121
5,609,334443,-4039,-15604,-2652,38,-830,234
5,610,334448,-1816,-15942,-158,23,-117,168
5,611,334453,3214,-15907,6872,47,274,54
5,612,334458,-3460,-13580,11036,-19,101,-47
5,613,334463,-7775,-13682,9685,24,-956,116
5,614,334468,-5296,-15941,524,71,-1704,353
5,615,334473,-2725,-16946,-2605,34,-1062,280
5,616,334478,-1746,-16910,2133,24,-145,94
5,617,334483,-3686,-15440,6988,5,-109,30
5,618,334488,-4727,-14918,6615,5,-805,140
5,619,334493,-4885,-15515,2654,11,-1231,235
5,620,334498,-3802,-16108,125,-2,-931,187
5,621,334503,-3736,-16204,668,20,-280,93
5,622,334508,-4122,-15866,3687,24,109,31
5,623,334513,-4480,-15425,4899,2,-47,41
5,624,334518,-3759,-15989,3241,4,-382,103
5,625,334523,-3431,-16222,1554,-1,-300,81
5,626,334528,-3921,-15866,1533,3,59,23
5,627,334533,-4244,-15730,3283,8,277,-7
5,628,334538,-3993,-15608,4023,10,229,6
5,629,334543,-2868,-15962,2886,12,72,39
5,630,334548,-2795,-15908,2224,10,127,22
5,631,334553,-3720,-15819,2943,6,263,-7
5,632,334558,-3860,-15623,3222,14,207,14
5,633,334563,-3375,-15941,2827,21,196,26
5,634,334568,-3430,-15932,2871,17,243,10
5,635,334573,-4201,-15772,3536,12,250,-1
5,636,334578,-4508,-15608,3531,5,172,8
5,637,334583,-4430,-15670,3306,10,111,24
5,638,334588,-4110,-15812,2840,13,114,26
5,639,334593,-4076,-15793,3314,17,170,14
5,640,334598,-4209,-15710,3623,15,146,8
5,641,334603,-4445,-15658,3631,9,52,19
5,642,334608,-4406,-15710,3165,14,-32,32
5,643,334613,-4261,-15727,3171,16,-16,26
5,644,334618,-4115,-15663,3618,15,13,21
5,645,334623,-4023,-15608,3972,11,-12,22
5,646,334628,-3938,-15667,3703,8,-87,29
5,647,334633,-4012,-15735,3479,6,-132,32
5,648,334638,-4084,-15774,3124,7,-155,33
5,649,334643,-4059,-15781,3129,7,-131,35
5,650,334648,-3957,-15719,3502,7,-109,33
5,651,334653,-3831,-15696,3490,6,-123,32
5,652,334658,-3786,-15686,3493,5,-135,29
5,653,334663,-3945,-15709,3314,3,-137,29
5,654,334668,-3991,-15731,3222,1,-118,24
5,655,334673,-3991,-15714,3258,4,-90,19
5,656,334678,-3885,-15757,3281,5,-66,17
5,657,334683,-3897,-15790,3172,4,-52,15
5,658,334688,-3943,-15783,3126,4,-42,11
5,659,334693,-4114,-15796,3168,2,-40,9
5,660,334698,-4077,-15814,3060,3,-34,12
5,661,334703,-4052,-15731,3166,0,-12,6
5,662,334708,-4114,-15677,3322,0,10,1
5,663,334713,-4138,-15679,3383,3,24,-2
5,664,334718,-4122,-15710,3310,1,30,-3
5,665,334723,-4019,-15745,3323,2,31,-5
5,666,334728,-3945,-15748,3426,5,33,-8
5,667,334733,-3878,-15719,3362,1,31,-7
5,668,334738,-3809,-15688,3470,-2,28,-7
5,669,334743,-3786,-15643,3512,-2,18,-8
5,670,334748,-3777,-15682,3555,-1,1,-7
5,671,334753,-3736,-15712,3478,1,-14,-3
5,672,334758,-3744,-15697,3471,-3,-15,-5
5,673,334763,-3682,-15701,3586,-5,-17,-4
5,674,334768,-3683,-15695,3559,-5,-24,-3
5,675,334773,-3756,-15720,3424,-5,-34,-1
5,676,334778,-3900,-15756,3386,-8,-42,1
5,677,334783,-3935,-15761,3181,-9,-44,2
5,678,334788,-3937,-15772,3244,-10,-38,-1
5,679,334793,-4042,-15740,3175,-7,-39,-3
5,680,334798,-4033,-15722,3190,-9,-44,-4
5,681,334803,-4041,-15732,3250,-11,-48,-4
5,682,334808,-4033,-15733,3210,-12,-55,-3
5,683,334813,-4086,-15728,3220,-10,-56,-4
5,684,334818,-4020,-15767,3220,-8,-58,-4
5,685,334823,-3968,-15738,3275,-8,-61,-3
5,686,334828,-3841,-15702,3283,-9,-68,-3
5,687,334833,-3782,-15729,3293,-9,-77,-5
5,688,334838,-3757,-15737,3286,-10,-92,-3
5,689,334843,-3708,-15733,3281,-7,-105,1
5,690,334848,-3565,-15710,3301,-8,-113,4
5,691,334853,-3444,-15684,3375,-6,-117,5
5,692,334858,-3435,-15700,3416,-6,-124,5
5,693,334863,-3475,-15716,3441,-10,-131,5
5,694,334868,-3468,-15668,3419,-7,-135,12
5,695,334873,-3521,-15710,3337,-10,-131,12
5,696,334878,-3558,-15740,3422,-13,-115,7
5,697,334883,-3544,-15692,3378,-13,-100,7
5,698,334888,-3460,-15687,3473,-12,-89,6
5,699,334893,-3607,-15701,3482,-15,-81,6
5,700,334898,-3726,-15724,3117,-15,-77,5
5,701,334903,-3838,-15775,2964,-14,-55,2
5,702,334908,-3969,-15812,3052,-12,-40,-1
5,703,334913,-3823,-15813,3005,-14,-33,1
5,704,334918,-3733,-15779,2987,-14,-19,2
5,705,334923,-3779,-15711,3188,-14,-7,-9
5,706,334928,-3794,-15768,3161,-13,-12,-4
5,707,334933,-3752,-15785,3155,-11,-14,-3
5,708,334938,-3658,-15761,3211,-12,-10,-5
5,709,334943,-3699,-15738,3303,-11,-6,-5
5,710,334948,-3728,-15719,3343,-9,-20,0
5,711,334953,-3715,-15678,3282,-9,-37,2
5,712,334958,-3614,-15737,3233,-9,-47,3
5,713,334963,-3672,-15740,3345,-8,-46,1
5,714,334968,-3545,-15750,3401,-11,-50,4
5,715,334973,-3529,-15712,3460,-12,-56,5
5,716,334978,-3506,-15697,3414,-15,-63,6
5,717,334983,-3601,-15692,3354,-13,-68,9
5,718,334988,-3620,-15757,3370,-15,-71,9
5,719,334993,-3577,-15743,3410,-14,-71,9
5,720,334998,-3649,-15691,3195,-13,-70,10
5,721,335003,-3784,-15729,3265,-15,-60,8
5,722,335008,-3866,-15742,3306,-15,-60,7
5,723,335013,-3918,-15781,2921,-11,-66,9
5,724,335018,-3972,-15821,2986,-10,-54,10
5,725,335023,-3917,-15808,3055,-12,-51,7
5,726,335028,-3861,-15734,3174,-12,-46,7
5,727,335033,-3939,-15733,3267,-14,-49,3
5,728,335038,-4011,-15736,3193,-11,-60,3
5,729,335043,-4022,-15759,3107,-9,-62,6
5,730,335048,-3964,-15779,3114,-7,-55,5
5,731,335053,-3899,-15775,3109,-10,-50,1
5,732,335058,-3932,-15771,3223,-9,-54,2
5,733,335063,-3865,-15738,3312,-9,-70,2
5,734,335068,-3821,-15732,3243,-10,-82,2
5,735,335073,-3736,-15722,3200,-7,-81,5
5,736,335078,-3708,-15711,3250,-9,-70,5
5,737,335083,-3640,-15722,3299,-10,-64,3
5,738,335088,-3664,-15723,3450,-9,-68,2
5,739,335093,-3681,-15699,3247,-10,-87,4
5,740,335098,-3664,-15740,3067,-10,-92,5
5,741,335103,-3706,-15773,3080,-9,-83,4
5,742,335108,-3644,-15796,2964,-8,-78,6
5,743,335113,-3565,-15762,3074,-7,-66,7
5,744,335118,-3616,-15788,3218,-4,-68,5
5,745,335123,-3726,-15742,3190,-4,-81,4
5,746,335128,-3850,-15743,3157,-8,-84,6
5,747,335133,-3925,-15740,3200,-7,-78,6
5,748,335138,-3953,-15720,3155,-3,-69,5
5,749,335143,-3893,-15768,3215,-3,-58,2
5,750,335148,-3850,-15799,3275,-3,-58,3
5,751,335153,-3797,-15742,3233,-4,-72,-1
5,752,335158,-3758,-15732,3247,-7,-83,3
5,753,335163,-3735,-15725,3264,-7,-85,1
5,754,335168,-3719,-15716,3241,-5,-89,3
5,755,335173,-3664,-15719,3240,-8,-90,3
5,756,335178,-3526,-15781,3185,-6,-94,5
5,757,335183,-3518,-15769,3140,-5,-97,5
5,758,335188,-3523,-15763,3222,-7,-99,7
5,759,335193,-3552,-15720,3146,-7,-106,11
5,760,335198,-3553,-15702,3196,-5,-103,11
5,761,335203,-3610,-15742,3140,-4,-92,10
5,762,335208,-3589,-15733,3072,-5,-74,6
5,763,335213,-3746,-15735,3039,-3,-60,4
5,764,335218,-3828,-15810,3051,-1,-51,2
5,765,335223,-3865,-15812,3008,-2,-39,3
5,766,335228,-3751,-15798,2980,-4,-23,3
5,767,335233,-3787,-15745,3120,-2,1,-3
5,768,335238,-3910,-15689,3218,2,20,-8
5,769,335243,-3878,-15686,3286,1,23,-10
5,770,335248,-3826,-15778,3154,0,27,-10
5,771,335253,-3730,-15764,3096,1,34,-9
5,772,335258,-3697,-15726,3246,2,45,-8
5,773,335263,-3765,-15721,3307,0,45,-11
5,774,335268,-3792,-15731,3330,1,32,-11
5,775,335273,-3771,-15730,3236,2,19,-11
5,776,335278,-3705,-15734,3152,3,19,-9
5,777,335283,-3659,-15759,3217,1,20,-9
5,778,335288,-3657,-15755,3309,0,7,-6
5,779,335293,-3659,-15712,3341,2,-9,-5
5,780,335298,-3686,-15716,3293,2,-17,-4
5,781,335303,-3748,-15762,3263,2,-17,-3
5,782,335308,-3767,-15778,3307,0,-16,-1
5,783,335313,-3774,-15727,3265,1,-13,-1
5,784,335318,-3834,-15716,3223,2,-15,-2
5,785,335323,-3887,-15743,3188,2,-15,-4
5,786,335328,-3911,-15743,3210,2,-12,-6
5,787,335333,-3810,-15771,3215,2,-6,-7
5,788,335338,-3680,-15733,3251,3,-2,-7
5,789,335343,-3665,-15703,3294,2,-3,-6
5,790,335348,-3695,-15714,3356,0,-6,-5
5,791,335353,-3720,-15761,3312,4,-18,-3
5,792,335358,-3672,-15762,3237,2,-25,-2
5,793,335363,-3689,-15755,3297,2,-22,-2
5,794,335368,-3814,-15727,3324,2,-27,-3
5,795,335373,-3802,-15725,3410,3,-33,-2
5,796,335378,-3755,-15716,3378,3,-45,1
5,797,335383,-3708,-15731,3317,2,-46,2
5,798,335388,-3684,-15706,3369,-2,-40,0
5,799,335393,-3749,-15724,3434,-2,-38,-3
5,800,335398,-3740,-15713,3356,-3,-39,0
5,801,335403,-3704,-15726,3267,-3,-41,-1
5,802,335408,-3692,-15742,3221,-1,-38,1
5,803,335413,-3724,-15756,3275,-3,-25,-2
5,804,335418,-3812,-15711,3177,-2,-16,-5
5,805,335423,-3802,-15749,3140,1,-16,-4
5,806,335428,-3768,-15771,3079,1,-12,-4
5,807,335433,-3698,-15813,3090,2,-5,-5
5,808,335438,-3642,-15770,3143,2,3,-6
5,809,335443,-3680,-15748,3178,2,6,-8
5,810,335448,-3652,-15727,3192,3,1,-5
5,811,335453,-3663,-15781,3129,2,-1,-5
5,812,335458,-3597,-15808,3054,1,0,-6
5,813,335463,-3555,-15786,3173,5,1,-7
5,814,335468,-3653,-15753,3249,6,0,-3
5,815,335473,-3690,-15719,3278,2,-7,-1
5,816,335478,-3735,-15682,3257,4,-17,-2
5,817,335483,-3779,-15705,3214,8,-18,-2
5,818,335488,-3774,-15797,3198,5,-13,-1
5,819,335493,-3703,-15750,3241,4,-7,-1
5,820,335498,-3670,-15748,3281,3,-8,0
5,821,335503,-3626,-15740,3318,2,-14,-3
5,822,335508,-3670,-15751,3305,3,-19,-2
5,823,335513,-3728,-15708,3253,4,-21,1
5,824,335518,-3787,-15717,3178,7,-15,2
5,825,335523,-3815,-15754,3151,5,-8,-3
5,826,335528,-3865,-15763,3149,4,-8,-2
5,827,335533,-3783,-15778,3164,8,-10,0
5,828,335538,-3644,-15732,3192,6,-10,0
5,829,335543,-3590,-15702,3291,5,-8,-2
5,830,335548,-3591,-15719,3340,6,-12,-3
5,831,335553,-3592,-15717,3340,6,-18,0
5,832,335558,-3570,-15768,3235,7,-23,3
5,833,335563,-3525,-15792,3238,8,-18,3
5,834,335568,-3660,-15763,3310,6,-14,3
5,835,335573,-3795,-15717,3256,6,-14,0
5,836,335578,-3905,-15731,3137,5,-15,-2
5,837,335583,-3934,-15782,3185,7,-13,-1
5,838,335588,-3885,-15763,3131,7,-2,-2
5,839,335593,-3853,-15744,3205,7,19,-8
5,840,335598,-3917,-15720,3333,5,28,-10
5,841,335603,-3913,-15715,3391,4,22,-10
5,842,335608,-3811,-15763,3287,8,19,-7
5,843,335613,-3752,-15734,3310,7,25,-11
5,844,335618,-3704,-15726,3319,7,34,-9
5,845,335623,-3705,-15757,3435,6,33,-12
5,846,335628,-3667,-15732,3506,4,26,-11
5,847,335633,-3652,-15693,3414,5,11,-7
5,848,335638,-3631,-15739,3358,5,4,-7
5,849,335643,-3639,-15734,3376,3,7,-6
5,850,335648,-3653,-15709,3413,2,7,-5
5,851,335653,-3832,-15711,3329,4,0,-5
5,852,335658,-3822,-15752,3286,3,-9,-2
5,853,335663,-3871,-15720,3257,5,-10,-2
5,854,335668,-3889,-15762,3317,1,-5,-3
5,855,335673,-3904,-15729,3317,3,-6,-3
5,856,335678,-3919,-15694,3369,5,-8,-6
5,857,335683,-3900,-15741,3382,1,-19,-4
5,858,335688,-3847,-15756,3312,2,-23,-3
5,859,335693,-3720,-15724,3286,1,-21,-3
5,860,335698,-3706,-15721,3364,-2,-21,-6
5,861,335703,-3708,-15709,3398,-1,-29,-5
5,862,335708,-3742,-15678,3408,-1,-44,-5
5,863,335713,-3714,-15702,3299,0,-52,-2
5,864,335718,-3720,-15721,3265,-1,-54,0
5,865,335723,-3664,-15763,3296,0,-50,-2
5,866,335728,-3697,-15722,3336,0,-46,-5
5,867,335733,-3671,-15667,3365,0,-52,-5
5,868,335738,-3704,-15679,3301,0,-56,-4
5,869,335743,-3760,-15708,3249,1,-53,-4
5,870,335748,-3801,-15753,3274,0,-47,-5
5,871,335753,-3780,-15721,3277,0,-36,-5
5,872,335758,-3752,-15719,3314,-1,-28,-5
5,873,335763,-3765,-15754,3279,-1,-30,-4
5,874,335768,-3813,-15785,3195,1,-32,-5
5,875,335773,-3804,-15780,3145,1,-28,-6
5,876,335778,-3727,-15766,3214,-2,-23,-9
5,877,335783,-3667,-15708,3265,-4,-18,-7
5,878,335788,-3696,-15737,3390,0,-17,-6
5,879,335793,-3778,-15723,3395,1,-24,-8
5,880,335798,-3678,-15744,3236,-2,-29,-7
5,881,335803,-3570,-15777,3181,0,-25,-5
5,882,335808,-3563,-15759,3261,0,-16,-7
5,883,335813,-3657,-15725,3335,-5,-17,-9
5,884,335818,-3704,-15692,3356,-4,-30,-6
5,885,335823,-3706,-15733,3301,-2,-42,-3
5,886,335828,-3701,-15720,3206,0,-36,-2
5,887,335833,-3679,-15767,3181,1,-27,-6
5,888,335838,-3722,-15765,3253,-1,-14,-7
5,889,335843,-3736,-15744,3309,-1,-20,-5
5,890,335848,-3678,-15725,3291,-2,-32,-4
5,891,335853,-3658,-15708,3229,-1,-34,-5
5,892,335858,-3640,-15742,3200,-2,-25,-4
5,893,335863,-3689,-15748,3248,-1,-18,-5
5,894,335868,-3705,-15747,3272,-1,-14,-4
5,895,335873,-3684,-15765,3255,-3,-16,-5
5,896,335878,-3688,-15793,3289,1,-21,-5
5,897,335883,-3707,-15779,3299,0,-18,-6
5,898,335888,-3745,-15746,3221,-2,-16,-9
5,899,335893,-3775,-15736,3293,-1,-11,-8
5,900,335898,-3830,-15759,3316,0,-14,-5
5,901,335903,-3777,-15739,3214,0,-15,-6
5,902,335908,-3810,-15758,3208,-1,-11,-10
5,903,335913,-3841,-15752,3265,0,-12,-7
5,904,335918,-3834,-15746,3281,-1,-8,-11
5,905,335923,-3849,-15722,3280,-1,-11,-9
5,906,335928,-3877,-15719,3300,1,-9,-7
5,907,335933,-3871,-15754,3335,1,-6,-11
5,908,335938,-3870,-15750,3298,-2,-8,-11
5,909,335943,-3844,-15736,3280,-2,-6,-14
5,910,335948,-3882,-15698,3327,1,-6,-14
5,911,335953,-3979,-15756,3345,1,-7,-11
5,912,335958,-4048,-15755,3277,-2,-10,-15
5,913,335963,-4125,-15771,3222,-2,-13,-18
5,914,335968,-4202,-15795,3144,-2,-8,-20
5,915,335973,-4119,-15813,3090,-2,-5,-22
5,916,335978,-4080,-15804,3140,-1,-7,-23
5,917,335983,-4047,-15766,3106,-1,-11,-23
5,918,335988,-4052,-15748,3130,-1,-22,-25
5,919,335993,-4126,-15747,3144,1,-34,-26
5,920,335998,-4080,-15766,3014,0,-42,-24
5,921,336003,-3944,-15766,3037,4,-42,-22
5,922,336008,-3768,-15782,3218,4,-39,-26
5,923,336013,-3668,-15702,3299,3,-49,-27
5,924,336018,-3689,-15687,3352,6,-74,-23
5,925,336023,-3648,-15747,3289,6,-79,-23
5,926,336028,-3550,-15773,3308,6,-79,-22
5,927,336033,-3489,-15752,3417,8,-72,-22
5,928,336038,-3453,-15725,3535,6,-77,-22
5,929,336043,-3460,-15688,3540,3,-88,-18
5,930,336048,-3463,-15721,3555,3,-96,-16
5,931,336053,-3473,-15703,3518,1,-92,-16
5,932,336058,-3544,-15690,3574,0,-82,-14
5,933,336063,-3573,-15694,3632,-4,-77,-16
5,934,336068,-3582,-15714,3633,-2,-76,-18
5,935,336073,-3619,-15712,3562,-3,-75,-16
5,936,336078,-3684,-15743,3516,-4,-74,-17
5,937,336083,-3721,-15736,3438,-6,-64,-21
5,938,336088,-3796,-15716,3391,-8,-52,-21
5,939,336093,-3796,-15713,3388,-9,-44,-23
5,940,336098,-3758,-15741,3374,-7,-38,-24
5,941,336103,-3703,-15746,3356,-10,-35,-24
5,942,336108,-3711,-15757,3395,-8,-36,-26
5,943,336113,-3652,-15723,3336,-10,-33,-25
5,944,336118,-3612,-15726,3328,-6,-29,-25
5,945,336123,-3652,-15737,3408,-6,-30,-25
5,946,336128,-3587,-15722,3366,-7,-34,-24
5,947,336133,-3495,-15751,3387,-8,-43,-24
5,948,336138,-3457,-15773,3417,-9,-47,-23
5,949,336143,-3471,-15738,3387,-12,-55,-21
5,950,336148,-3505,-15726,3499,-10,-63,-20
5,951,336153,-3563,-15743,3487,-11,-75,-17
5,952,336158,-3501,-15749,3445,-12,-84,-15
5,953,336163,-3471,-15746,3417,-15,-85,-16
5,954,336168,-3472,-15731,3449,-15,-88,-15
5,955,336173,-3452,-15722,3400,-14,-98,-10
5,956,336178,-3449,-15754,3417,-14,-108,-12
5,957,336183,-3423,-15751,3362,-16,-113,-10
5,958,336188,-3428,-15740,3266,-15,-116,-6
5,959,336193,-3360,-15745,3219,-15,-116,-8
5,960,336198,-3345,-15744,3222,-15,-112,-8
5,961,336203,-3360,-15772,3203,-14,-113,-4
5,962,336208,-3396,-15801,3185,-16,-112,-5
5,963,336213,-3439,-15794,3133,-16,-110,-4
5,964,336218,-3488,-15801,3113,-15,-103,-5
5,965,336223,-3523,-15782,3086,-13,-91,-7
5,966,336228,-3536,-15793,3030,-12,-83,-6
5,967,336233,-3523,-15806,3125,-12,-77,-7
5,968,336238,-3470,-15801,3200,-12,-69,-7
5,969,336243,-3544,-15730,3201,-8,-63,-7
5,970,336248,-3622,-15751,3155,-9,-59,-9
5,971,336253,-3544,-15787,3168,-9,-51,-9
5,972,336258,-3571,-15772,3189,-8,-44,-8
5,973,336263,-3539,-15777,3242,-6,-39,-9
5,974,336268,-3471,-15810,3209,-8,-41,-8
5,975,336273,-3439,-15738,3255,-5,-47,-7
5,976,336278,-3416,-15772,3312,-6,-54,-8
5,977,336283,-3339,-15786,3205,-8,-60,-5
5,978,336288,-3293,-15764,3220,-6,-59,-3
5,979,336293,-3279,-15749,3273,-5,-59,-2
5,980,336298,-3323,-15758,3295,-4,-64,0
5,981,336303,-3373,-15763,3229,-5,-70,1
5,982,336308,-3430,-15768,3221,-4,-72,1
5,983,336313,-3473,-15793,3133,-6,-65,1
5,984,336318,-3550,-15790,3099,-4,-53,1
5,985,336323,-3645,-15795,3123,-3,-40,-1
5,986,336328,-3688,-15788,3096,-3,-34,-2
5,987,336333,-3662,-15820,3083,-1,-25,-4
5,988,336338,-3604,-15795,3108,-2,-10,-5
5,989,336343,-3558,-15783,3176,-1,6,-7
5,990,336348,-3614,-15740,3227,-2,17,-13
5,991,336353,-3640,-15761,3197,2,16,-11
5,992,336358,-3686,-15809,3149,2,25,-12
5,993,336363,-3713,-15825,3089,2,32,-14
5,994,336368,-3723,-15848,3123,1,41,-19
5,995,336373,-3761,-15837,3119,3,45,-18
5,996,336378,-3682,-15764,3161,4,43,-16
5,997,336383,-3560,-15773,3260,4,29,-15
5,998,336388,-3469,-15805,3337,5,24,-14
5,999,336393,-3437,-15750,3349,4,15,-15
