event_id,seq,ts_ms,ax,ay,az,gx,gy,gz
19,0,779421,-1517,-16096,-2799,-6,-2,-21
19,1,779426,-1541,-16076,-2745,-7,2,-22
19,2,779431,-1526,-16069,-2719,-6,3,-20
19,3,779436,-1514,-16097,-2748,-4,2,-19
19,4,779441,-1486,-16108,-2724,-4,5,-20
19,5,779446,-1490,-16099,-2631,-7,8,-23
19,6,779451,-1530,-16111,-2608,-7,4,-22
19,7,779456,-1550,-16149,-2643,-6,-2,-23
19,8,779461,-1484,-16137,-2661,-5,-2,-21
19,9,779466,-1499,-16128,-2650,-6,-2,-19
19,10,779471,-1488,-16116,-2607,-7,-4,-22
19,11,779476,-1495,-16126,-2582,-8,-10,-22
19,12,779481,-1452,-16102,-2623,-7,-16,-22
19,13,779486,-1423,-16104,-2659,-7,-18,-18
19,14,779491,-1406,-16056,-2644,-5,-16,-15
19,15,779496,-1359,-16028,-2654,-7,-14,-18
19,16,779501,-1431,-16030,-2681,-8,-12,-15
19,17,779506,-1468,-16030,-2758,-10,-6,-17
19,18,779511,-1475,-16016,-2751,-8,-1,-16
19,19,779516,-1400,-16005,-2699,-9,5,-16
19,20,779521,-1385,-16059,-2670,-11,10,-16
19,21,779526,-1398,-16101,-2615,-8,14,-14
19,22,779531,-1364,-16138,-2665,-7,13,-10
19,23,779536,-1319,-16114,-2600,-9,17,-10
19,24,779541,-1365,-16105,-2572,-8,7,-12
19,25,779546,-1439,-16074,-2567,-7,-1,-12
19,26,779551,-1442,-16075,-2659,-11,-10,-6
19,27,779556,-1482,-16061,-2652,-11,-7,-6
19,28,779561,-1424,-16058,-2635,-8,-6,-4
19,29,779566,-1435,-16112,-2648,-11,-8,-5
19,30,779571,-1479,-16093,-2665,-10,-7,-3
19,31,779576,-1440,-16142,-2718,-7,-5,-3
19,32,779581,-1429,-16169,-2689,-6,-2,-2
19,33,779586,-1418,-16183,-2692,-7,-4,-4
19,34,779591,-1425,-16176,-2755,-10,-13,-2
19,35,779596,-1442,-16122,-2805,-7,-11,0
19,36,779601,-1466,-16111,-2739,-9,-4,0
19,37,779606,-1460,-16102,-2768,-9,-2,-2
19,38,779611,-1449,-16093,-2777,-6,0,-1
19,39,779616,-1447,-16129,-2731,-7,1,-2
19,40,779621,-1465,-16171,-2732,-6,5,-2
19,41,779626,-1456,-16187,-2700,-4,3,-1
19,42,779631,-1462,-16219,-2613,-3,-5,-1
19,43,779636,-1464,-16241,-2621,-6,-8,-2
19,44,779641,-1433,-16285,-2663,-5,-5,1
19,45,779646,-1457,-16294,-2612,-5,-8,1
19,46,779651,-1447,-16280,-2585,-4,-14,2
19,47,779656,-1494,-16241,-2630,-6,-18,1
19,48,779661,-1492,-16265,-2732,-4,-15,0
19,49,779666,-1519,-16237,-2698,-4,-14,1
19,50,779671,-1496,-16252,-2705,-4,-14,-1
19,51,779676,-1497,-16240,-2739,-1,-16,-2
19,52,779681,-1441,-16231,-2711,1,-21,-1
19,53,779686,-1435,-16257,-2737,1,-25,-2
19,54,779691,-1447,-16270,-2742,0,-27,-3
19,55,779696,-1423,-16253,-2744,0,-30,-3
19,56,779701,-1418,-16189,-2841,4,-29,-3
19,57,779706,-1473,-16137,-2809,3,-31,0
19,58,779711,-1493,-16171,-2810,4,-27,-2
19,59,779716,-1467,-16175,-2853,6,-26,-6
19,60,779721,-1481,-16175,-2868,4,-22,-4
19,61,779726,-1478,-16219,-2829,7,-16,-6
19,62,779731,-1505,-16258,-2835,7,-10,-6
19,63,779736,-1507,-16268,-2827,9,-12,-6
19,64,779741,-1496,-16222,-2881,12,-8,-7
19,65,779746,-1422,-16166,-2799,12,-1,-11
19,66,779751,-1550,-16223,-2599,7,0,-15
19,67,779756,-1575,-16207,-2403,7,-12,-12
19,68,779761,-1416,-16197,-2692,12,-15,-8
19,69,779766,-1391,-16200,-2851,14,2,-9
19,70,779771,-1457,-16166,-2727,11,13,-12
19,71,779776,-1519,-16051,-2646,12,-4,-13
19,72,779781,-1504,-16033,-2699,12,-19,-12
19,73,779786,-1481,-16068,-2734,10,-9,-10
19,74,779791,-1417,-16110,-2686,10,7,-12
19,75,779796,-1397,-16119,-2613,11,11,-12
19,76,779801,-1403,-16066,-2612,14,3,-11
19,77,779806,-1454,-16049,-2613,14,-1,-12
19,78,779811,-1426,-16073,-2667,15,-1,-12
19,79,779816,-1412,-16074,-2676,14,0,-11
19,80,779821,-1402,-16072,-2611,15,-7,-9
19,81,779826,-1435,-16058,-2635,15,-11,-11
19,82,779831,-1494,-16085,-2631,17,-13,-12
19,83,779836,-1441,-16071,-2621,15,-16,-10
19,84,779841,-1427,-16079,-2624,16,-22,-8
19,85,779846,-1378,-16069,-2695,19,-30,-7
19,86,779851,-1407,-16095,-2768,17,-30,-6
19,87,779856,-1438,-16127,-2743,18,-34,-8
19,88,779861,-1482,-16131,-2732,19,-39,-7
19,89,779866,-1456,-16122,-2843,21,-42,-7
19,90,779871,-1469,-16120,-2928,19,-38,-7
19,91,779876,-1486,-16151,-2912,20,-32,-7
19,92,779881,-1449,-16178,-2874,21,-27,-5
19,93,779886,-1463,-16153,-2874,21,-27,-5
19,94,779891,-1427,-16180,-2922,22,-21,-7
19,95,779896,-1429,-16161,-2917,25,-16,-7
19,96,779901,-1504,-16125,-2771,24,-2,-6
19,97,779906,-1472,-16113,-2758,24,-1,-7
19,98,779911,-1445,-16084,-2728,23,-5,-6
19,99,779916,-1484,-16073,-2680,24,-6,-5
19,100,779921,-1530,-16036,-2686,26,-10,-4
19,101,779926,-1522,-16018,-2723,24,-14,-5
19,102,779931,-1522,-16006,-2671,25,-18,-4
19,103,779936,-1527,-16044,-2678,25,-19,-4
19,104,779941,-1473,-16066,-2717,26,-29,-2
19,105,779946,-1430,-16103,-2771,25,-32,-2
19,106,779951,-1379,-16134,-2776,25,-32,-3
19,107,779956,-1364,-16138,-2788,25,-32,-1
19,108,779961,-1410,-16135,-2864,23,-35,-2
19,109,779966,-1423,-16119,-2869,25,-34,-1
19,110,779971,-1409,-16090,-2890,26,-28,-2
19,111,779976,-1457,-16063,-2903,21,-19,-4
19,112,779981,-1527,-16053,-2899,22,-12,-3
19,113,779986,-1532,-15989,-2910,26,-8,-2
19,114,779991,-1543,-15971,-2901,23,-2,-2
19,115,779996,-1529,-16016,-2859,22,6,0
19,116,780001,-1467,-16018,-2883,26,12,-2
19,117,780006,-1447,-16068,-2880,19,17,-2
19,118,780011,-1458,-16087,-2815,20,11,-2
19,119,780016,-1442,-16060,-2789,24,1,-1
19,120,780021,-1464,-16036,-2790,23,-6,0
19,121,780026,-1471,-16066,-2735,22,-13,0
19,122,780031,-1459,-16080,-2722,21,-17,1
19,123,780036,-1424,-16033,-2776,21,-25,2
19,124,780041,-1396,-16007,-2782,20,-27,1
19,125,780046,-1405,-16048,-2716,18,-28,4
19,126,780051,-1447,-16066,-2746,17,-33,2
19,127,780056,-1377,-16062,-2814,15,-34,2
19,128,780061,-1383,-16076,-2853,16,-31,6
19,129,780066,-1392,-16148,-2803,15,-22,4
19,130,780071,-1414,-16154,-2777,11,-13,3
19,131,780076,-1383,-16144,-2810,12,-9,5
19,132,780081,-1407,-16130,-2800,9,0,4
19,133,780086,-1375,-16168,-2720,8,5,5
19,134,780091,-1354,-16147,-2661,4,7,4
19,135,780096,-1337,-16162,-2545,2,1,6
19,136,780101,-1285,-16123,-2595,2,-8,7
19,137,780106,-1295,-16040,-2583,-1,-10,8
19,138,780111,-1369,-16052,-2566,-2,-20,7
19,139,780116,-1486,-16031,-2560,-3,-28,8
19,140,780121,-1423,-16020,-2684,-4,-27,11
19,141,780126,-1407,-16104,-2782,-6,-19,11
19,142,780131,-1457,-16129,-2791,-9,-5,9
19,143,780136,-1514,-16131,-2763,-11,2,9
19,144,780141,-1517,-16181,-2840,-9,10,10
19,250,780671,-1469,-16233,-2681,8,-14,4
19,251,780676,-1444,-16220,-2631,7,-13,1
19,252,780681,-1487,-16211,-2580,8,-17,3
19,253,780686,-1567,-16211,-2596,7,-19,3
19,254,780691,-1563,-16197,-2661,8,-15,1
19,255,780696,-1587,-16171,-2719,4,-13,4
19,256,780701,-1532,-16169,-2647,5,-9,4
19,257,780706,-1522,-16175,-2563,4,-12,0
19,258,780711,-1524,-16172,-2571,3,-16,0
19,259,780716,-1554,-16144,-2589,4,-21,2
19,260,780721,-1525,-16153,-2607,2,-19,2
19,261,780726,-1497,-16058,-2671,0,-19,1
19,262,780731,-1526,-16093,-2670,0,-19,-1
19,263,780736,-1626,-16106,-2654,-1,-19,-2
19,264,780741,-1640,-16086,-2720,-2,-18,-4
19,265,780746,-1634,-16078,-2790,0,-17,-2
19,266,780751,-1613,-16092,-2767,1,-8,-3
19,267,780756,-1580,-16144,-2754,-2,-4,-4
19,268,780761,-1553,-16180,-2791,-2,-4,-5
19,269,780766,-1562,-16180,-2837,-1,-2,-8
19,270,780771,-1601,-16163,-2869,1,-2,-5
19,271,780776,-1569,-16188,-2809,0,2,-6
19,272,780781,-1578,-16212,-2772,-1,3,-5
19,273,780786,-1523,-16207,-2846,-1,6,-6
19,274,780791,-1491,-16208,-2829,1,11,-9
19,275,780796,-1468,-16196,-2759,3,16,-11
19,276,780801,-1496,-16138,-2720,1,13,-10
19,277,780806,-1492,-16136,-2745,3,6,-9
19,278,780811,-1507,-16083,-2767,5,7,-9
19,279,780816,-1477,-16092,-2782,3,16,-7
19,280,780821,-1460,-16116,-2655,4,18,-6
19,281,780826,-1443,-16121,-2685,6,13,-7
19,282,780831,-1470,-16065,-2670,4,11,-9
19,283,780836,-1468,-16068,-2666,5,11,-8
19,284,780841,-1494,-16090,-2637,4,7,-6
19,285,780846,-1406,-16093,-2626,4,-1,-5
19,286,780851,-1405,-16090,-2668,6,-13,-2
19,287,780856,-1408,-16123,-2730,4,-17,-5
19,288,780861,-1394,-16110,-2718,7,-19,-6
19,289,780866,-1447,-16104,-2724,6,-22,-4
19,290,780871,-1470,-16151,-2797,7,-23,-3
19,291,780876,-1470,-16127,-2852,6,-21,-4
19,292,780881,-1447,-16150,-2804,6,-13,-6
19,293,780886,-1424,-16129,-2808,8,-8,-3
19,294,780891,-1493,-16087,-2789,9,-3,-5
19,295,780896,-1535,-16106,-2776,10,-3,-6
19,296,780901,-1488,-16132,-2795,10,-3,-2
19,297,780906,-1491,-16137,-2770,10,-3,1
19,298,780911,-1475,-16149,-2785,14,-5,-2
19,299,780916,-1461,-16202,-2809,12,-5,-1
19,300,780921,-1428,-16235,-2854,11,0,-2
19,301,780926,-1413,-16249,-2846,15,4,-2
19,302,780931,-1431,-16225,-2843,14,6,-5
19,303,780936,-1446,-16212,-2820,12,4,-2
19,304,780941,-1444,-16214,-2790,13,5,-4
19,305,780946,-1449,-16157,-2745,11,7,-4
19,306,780951,-1440,-16151,-2730,15,7,-5
19,307,780956,-1426,-16160,-2667,15,10,-4
19,308,780961,-1392,-16174,-2711,14,10,-5
19,309,780966,-1421,-16193,-2754,13,7,-3
19,310,780971,-1402,-16200,-2726,13,11,-3
19,311,780976,-1365,-16239,-2715,12,16,-1
19,312,780981,-1367,-16177,-2708,12,17,-3
19,313,780986,-1337,-16159,-2695,10,20,-4
19,314,780991,-1344,-16164,-2668,10,18,-2
19,315,780996,-1314,-16133,-2658,8,18,-2
19,316,781001,-1316,-16107,-2632,7,17,-3
19,317,781006,-1320,-16106,-2663,5,14,-5
19,318,781011,-1378,-16056,-2665,7,8,-3
19,319,781016,-1381,-16053,-2636,4,12,-3
19,320,781021,-1369,-16047,-2652,2,11,-4
19,321,781026,-1409,-16070,-2637,3,14,-6
19,322,781031,-1344,-16072,-2641,1,17,-6
19,323,781036,-1344,-16053,-2602,-1,18,-5
19,324,781041,-1401,-16051,-2564,-1,13,-4
19,325,781046,-1390,-16061,-2578,-1,9,-2
19,326,781051,-1379,-16096,-2632,-1,9,-2
19,327,781056,-1436,-16094,-2554,-4,11,-6
19,328,781061,-1424,-16091,-2575,-5,7,-6
19,329,781066,-1377,-16111,-2590,-3,3,-5
19,330,781071,-1361,-16117,-2665,-5,3,-5
19,331,781076,-1337,-16132,-2747,-8,8,-5
19,332,781081,-1374,-16177,-2747,-5,4,-7
19,333,781086,-1434,-16143,-2725,-8,1,-10
19,334,781091,-1477,-16097,-2793,-9,2,-9
19,335,781096,-1495,-16091,-2779,-9,6,-10
19,336,781101,-1422,-16112,-2733,-8,5,-10
19,337,781106,-1438,-16051,-2689,-6,0,-8
19,338,781111,-1448,-16060,-2674,-8,-10,-11
19,339,781116,-1431,-16040,-2708,-6,-25,-12
19,340,781121,-1458,-16039,-2711,-3,-28,-8
19,341,781126,-1490,-16058,-2700,-7,-35,-11
19,342,781131,-1493,-16073,-2700,-4,-41,-9
19,343,781136,-1462,-16068,-2716,-6,-39,-9
19,344,781141,-1490,-16063,-2735,-7,-36,-12
19,345,781146,-1489,-16035,-2784,-9,-36,-12
19,346,781151,-1476,-16005,-2822,-7,-35,-15
19,347,781156,-1539,-16013,-2842,-7,-32,-14
19,348,781161,-1571,-16047,-2812,-6,-28,-14
19,349,781166,-1522,-16040,-2764,-6,-24,-13
19,350,781171,-1520,-16048,-2752,-6,-21,-16
19,351,781176,-1528,-16083,-2755,-3,-20,-14
19,352,781181,-1525,-16077,-2808,-3,-22,-20
19,353,781186,-1496,-16093,-2778,-3,-25,-20
19,354,781191,-1511,-16072,-2748,-2,-36,-17
19,355,781196,-1561,-16107,-2741,-1,-47,-17
19,356,781201,-1528,-16105,-2816,-2,-49,-17
19,357,781206,-1514,-16117,-2822,1,-46,-15
19,358,781211,-1519,-16105,-2759,1,-40,-16
19,359,781216,-1511,-16102,-2766,0,-40,-19
19,360,781221,-1498,-16079,-2773,0,-44,-18
19,361,781226,-1444,-16038,-2793,1,-44,-18
19,362,781231,-1477,-16076,-2776,2,-43,-20
19,363,781236,-1493,-16126,-2783,3,-43,-20
19,364,781241,-1464,-16144,-2781,2,-40,-19
19,365,781246,-1447,-16175,-2777,1,-32,-17
19,366,781251,-1482,-16188,-2774,5,-22,-17
19,367,781256,-1499,-16235,-2743,2,-15,-20
19,368,781261,-1453,-16242,-2694,1,-9,-19
19,369,781266,-1465,-16231,-2696,2,-2,-19
19,370,781271,-1457,-16232,-2715,1,1,-19
19,371,781276,-1476,-16207,-2676,0,5,-18
19,372,781281,-1485,-16171,-2652,3,-1,-15
19,373,781286,-1489,-16170,-2673,2,-2,-19
19,374,781291,-1508,-16168,-2693,1,-1,-19
19,375,781296,-1465,-16149,-2700,3,4,-17
19,376,781301,-1416,-16130,-2676,3,6,-15
19,377,781306,-1377,-16138,-2720,0,-2,-16
19,378,781311,-1403,-16123,-2733,2,-9,-19
19,379,781316,-1436,-16136,-2841,4,-10,-15
19,380,781321,-1461,-16119,-2829,4,-11,-14
19,381,781326,-1495,-16155,-2849,5,-8,-13
19,382,781331,-1486,-16134,-2813,5,-2,-16
19,383,781336,-1575,-16148,-2815,5,1,-14
19,384,781341,-1575,-16145,-2759,6,2,-11
19,385,781346,-1504,-16145,-2789,6,2,-10
19,386,781351,-1443,-16192,-2732,6,-1,-9
19,387,781356,-1421,-16212,-2688,10,-12,-9
19,388,781361,-1413,-16189,-2662,6,-24,-6
19,389,781366,-1495,-16153,-2715,8,-29,-9
19,390,781371,-1538,-16138,-2806,11,-31,-8
19,391,781376,-1519,-16116,-2820,10,-32,-6
19,392,781381,-1399,-16099,-2824,8,-27,-6
19,393,781386,-1374,-16070,-2823,6,-23,-4
19,394,781391,-1355,-16085,-2839,9,-18,-4
19,395,781396,-1412,-16074,-2809,12,-11,-5
19,396,781401,-1478,-16056,-2798,8,-5,-1
19,397,781406,-1460,-16049,-2777,8,5,-1
19,398,781411,-1429,-16036,-2780,11,13,0
19,399,781416,-1446,-16033,-2691,10,16,-1
19,400,781421,-1408,-16075,-2698,11,11,2
19,401,781426,-1420,-16101,-2611,8,6,3
19,402,781431,-1436,-16073,-2588,7,1,3
19,403,781436,-1487,-16062,-2608,8,-5,2
19,404,781441,-1462,-16032,-2702,9,-10,0
19,405,781446,-1491,-16037,-2772,7,-10,5
19,406,781451,-1483,-16024,-2757,9,-9,5
19,407,781456,-1466,-16026,-2783,8,-8,5
19,408,781461,-1466,-16096,-2799,8,-6,4
19,409,781466,-1469,-16143,-2828,6,1,4
19,410,781471,-1448,-16124,-2811,5,6,5
19,411,781476,-1452,-16141,-2790,7,6,8
19,412,781481,-1421,-16156,-2702,8,1,6
19,413,781486,-1421,-16196,-2702,6,-8,7
19,414,781491,-1403,-16176,-2736,7,-12,11
19,415,781496,-1459,-16194,-2753,7,-8,9
19,416,781501,-1469,-16199,-2722,5,-6,7
19,417,781506,-1450,-16207,-2693,4,-10,8
19,418,781511,-1476,-16184,-2785,6,-12,10
19,419,781516,-1446,-16245,-2819,5,-9,11
19,420,781521,-1497,-16241,-2754,0,-5,10
19,421,781526,-1485,-16232,-2781,4,-4,9
19,422,781531,-1549,-16216,-2782,5,-6,9
19,423,781536,-1524,-16196,-2770,5,-4,8
19,424,781541,-1523,-16171,-2812,3,1,7
19,425,781546,-1485,-16135,-2812,3,7,7
19,426,781551,-1454,-16143,-2772,3,8,7
19,427,781556,-1526,-16147,-2687,4,4,8
19,428,781561,-1529,-16132,-2687,4,2,6
19,429,781566,-1516,-16114,-2708,2,3,5
19,430,781571,-1470,-16102,-2687,3,2,7
19,431,781576,-1468,-16111,-2718,3,-4,8
19,432,781581,-1524,-16096,-2753,-2,-7,4
19,433,781586,-1527,-16136,-2777,3,-13,5
19,434,781591,-1514,-16114,-2769,4,-20,8
19,435,781596,-1521,-16137,-2759,2,-27,6
19,436,781601,-1527,-16149,-2817,3,-32,6
19,437,781606,-1464,-16204,-2788,-1,-31,8
19,438,781611,-1520,-16175,-2753,-1,-31,6
19,439,781616,-1577,-16055,-2678,-1,-33,3
19,440,781621,-1538,-16106,-2745,2,-41,3
19,441,781626,-1412,-16087,-2893,-1,-44,5
19,442,781631,-1415,-16078,-2861,0,-43,4
19,443,781636,-1457,-16161,-2792,0,-44,1
19,444,781641,-1502,-16115,-2850,-1,-47,3
19,445,781646,-1557,-16104,-2896,-2,-41,3
19,446,781651,-1538,-16064,-2853,0,-27,0
19,447,781656,-1526,-16030,-2840,-2,-20,2
19,448,781661,-1492,-16072,-2906,-1,-19,1
19,449,781666,-1441,-16128,-2902,-2,-15,-1
19,450,781671,-1482,-16147,-2845,-2,-7,-3
19,451,781676,-1497,-16159,-2823,-4,-1,-4
19,452,781681,-1493,-16141,-2805,-5,1,-3
19,453,781686,-1479,-16146,-2769,-5,8,-4
19,454,781691,-1461,-16180,-2698,-4,9,-2
19,455,781696,-1430,-16212,-2611,-4,5,-5
19,456,781701,-1401,-16175,-2629,-6,-1,-4
19,457,781706,-1391,-16154,-2638,-7,-7,-4
19,458,781711,-1413,-16107,-2565,-8,-12,-5
19,459,781716,-1401,-16113,-2555,-9,-19,-6
19,460,781721,-1396,-16067,-2649,-10,-26,-3
19,461,781726,-1392,-16064,-2710,-12,-25,-5
19,462,781731,-1429,-16073,-2677,-13,-22,-5
19,463,781736,-1382,-16100,-2680,-13,-19,-4
19,464,781741,-1375,-16125,-2737,-13,-13,-4
19,465,781746,-1326,-16162,-2720,-13,-4,-4
19,466,781751,-1357,-16148,-2724,-17,-3,-7
19,467,781756,-1364,-16140,-2772,-17,-3,-5
19,468,781761,-1302,-16146,-2756,-16,-2,-4
19,469,781766,-1304,-16155,-2722,-18,1,-4
19,470,781771,-1330,-16149,-2646,-18,-1,-5
19,471,781776,-1331,-16169,-2665,-16,-10,-5
19,472,781781,-1388,-16135,-2745,-19,-8,-2
19,473,781786,-1425,-16153,-2798,-20,-2,-4
19,474,781791,-1436,-16147,-2751,-19,0,-2
19,475,781796,-1411,-16121,-2732,-19,0,-1
19,476,781801,-1375,-16112,-2775,-20,-1,-4
19,477,781806,-1383,-16079,-2774,-18,7,-3
19,478,781811,-1435,-16062,-2808,-18,14,-4
19,479,781816,-1427,-16000,-2797,-20,16,-4
19,480,781821,-1381,-16004,-2777,-18,19,-4
19,481,781826,-1390,-16071,-2755,-18,29,-2
19,482,781831,-1374,-16090,-2670,-18,32,0
19,483,781836,-1338,-16102,-2617,-20,29,-4
19,484,781841,-1354,-16092,-2656,-17,18,-6
19,485,781846,-1465,-16065,-2706,-16,14,-1
19,486,781851,-1524,-16084,-2795,-16,16,-4
19,487,781856,-1507,-16123,-2761,-18,21,-4
19,488,781861,-1509,-16147,-2717,-16,26,-4
19,489,781866,-1473,-16117,-2693,-15,22,-5
19,490,781871,-1446,-16109,-2645,-12,18,-6
19,491,781876,-1470,-16120,-2685,-12,12,-3
19,492,781881,-1472,-16135,-2656,-13,7,-3
19,493,781886,-1450,-16076,-2682,-11,4,-5
19,494,781891,-1431,-16115,-2675,-10,2,-9
19,495,781896,-1480,-16133,-2599,-11,-4,-9
19,496,781901,-1538,-16112,-2644,-8,-9,-5
19,497,781906,-1554,-16154,-2664,-8,-10,-5
19,498,781911,-1521,-16164,-2681,-7,-11,-10
19,499,781916,-1523,-16135,-2645,-7,-10,-11
19,500,781921,-1476,-16108,-2658,-6,-12,-9
19,501,781926,-1474,-16152,-2693,-6,-15,-10
19,502,781931,-1465,-16140,-2711,-3,-19,-7
19,503,781936,-1470,-16114,-2730,-1,-21,-9
19,504,781941,-1444,-16135,-2771,0,-23,-9
19,505,781946,-1518,-16157,-2800,-2,-24,-10
19,506,781951,-1534,-16165,-2761,-2,-23,-10
19,507,781956,-1484,-16184,-2718,0,-24,-9
19,508,781961,-1490,-16157,-2704,3,-28,-12
19,509,781966,-1531,-16157,-2784,5,-30,-13
19,510,781971,-1497,-16157,-2773,7,-30,-13
19,511,781976,-1492,-16220,-2699,5,-29,-12
19,512,781981,-1526,-16172,-2682,5,-34,-15
19,513,781986,-1539,-16168,-2790,6,-33,-14
19,514,781991,-1529,-16186,-2781,9,-31,-15
19,515,781996,-1526,-16131,-2771,9,-25,-17
19,516,782001,-1546,-16112,-2780,6,-23,-17
19,517,782006,-1588,-16085,-2693,7,-23,-17
19,518,782011,-1551,-16120,-2723,10,-23,-18
19,519,782016,-1508,-16098,-2671,7,-23,-16
19,520,782021,-1508,-16064,-2633,8,-27,-16
19,521,782026,-1520,-16052,-2620,8,-40,-19
19,522,782031,-1457,-16045,-2672,11,-50,-17
19,523,782036,-1467,-16084,-2715,11,-61,-14
19,524,782041,-1457,-16138,-2768,11,-64,-11
19,525,782046,-1499,-16099,-2754,10,-63,-14
19,526,782051,-1496,-16104,-2864,10,-68,-14
19,527,782056,-1520,-16132,-2840,10,-68,-13
19,528,782061,-1492,-16105,-2756,8,-65,-12
19,529,782066,-1517,-16070,-2653,10,-66,-11
19,530,782071,-1501,-16113,-2769,9,-71,-8
19,531,782076,-1456,-16175,-2743,7,-69,-5
19,532,782081,-1467,-16207,-2673,9,-66,-7
19,533,782086,-1399,-16166,-2730,7,-70,-6
19,534,782091,-1460,-16118,-2727,3,-74,-5
19,535,782096,-1208,-16158,-2820,5,-72,3
19,536,782101,-1269,-16196,-2940,4,-48,1
19,537,782106,-1358,-16129,-2879,2,-28,1
19,538,782111,-1428,-16042,-2888,0,-20,-1
19,539,782116,-1467,-15999,-2961,-3,-2,2
19,540,782121,-1531,-16025,-2817,-3,19,4
19,541,782126,-1514,-16029,-2704,-1,34,4
19,542,782131,-1388,-16011,-2653,-3,40,6
19,543,782136,-1319,-16031,-2694,-6,43,8
19,544,782141,-1328,-16081,-2676,-6,43,8
19,545,782146,-1355,-16106,-2626,-6,36,10
19,546,782151,-1330,-16164,-2688,-8,26,10
19,547,782156,-1358,-16143,-2717,-6,17,16
19,548,782161,-1357,-16150,-2741,-8,17,17
19,549,782166,-1376,-16177,-2727,-8,23,16
19,550,782171,-1384,-16158,-2707,-6,22,18
19,551,782176,-1424,-16110,-2753,-10,17,18
19,552,782181,-1416,-16071,-2791,-13,14,20
19,553,782186,-1391,-16066,-2759,-14,18,19
19,554,782191,-1400,-16085,-2738,-11,18,21
19,555,782196,-1389,-16100,-2758,-10,18,23
19,556,782201,-1366,-16090,-2738,-15,17,21
19,557,782206,-1361,-16096,-2818,-11,13,24
19,558,782211,-1420,-16091,-2815,-7,10,26
19,559,782216,-1465,-16112,-2761,-11,12,22
19,560,782221,-1506,-16140,-2763,-13,8,20
19,561,782226,-1564,-16149,-2760,-13,6,22
19,562,782231,-1541,-16207,-2755,-11,11,23
19,563,782236,-1516,-16228,-2684,-10,7,24
19,564,782241,-1465,-16194,-2687,-12,4,22
19,565,782246,-1473,-16216,-2649,-8,-4,19
19,566,782251,-1532,-16219,-2696,-7,-15,21
19,567,782256,-1618,-16231,-2764,-9,-18,20
19,568,782261,-1657,-16206,-2787,-11,-15,20
19,569,782266,-1571,-16183,-2845,-10,-13,19
19,570,782271,-1562,-16157,-2855,-10,-9,14
19,571,782276,-1548,-16153,-2814,-5,-4,10
19,572,782281,-1543,-16168,-2856,-4,-5,11
19,573,782286,-1549,-16103,-2920,-5,-6,14
19,574,782291,-1560,-16109,-3006,-4,-4,11
19,575,782296,-1595,-16148,-2980,-4,-1,8
19,576,782301,-1574,-16109,-2983,-2,3,4
19,577,782306,-1583,-16115,-3006,-1,5,0
19,578,782311,-1626,-16136,-2978,0,7,1
19,579,782316,-1650,-16138,-2935,3,9,-1
19,580,782321,-1581,-16169,-2911,1,7,-2
19,581,782326,-1545,-16122,-2894,7,5,-2
19,582,782331,-1542,-16091,-2887,9,2,-4
19,583,782336,-1513,-16098,-2857,8,0,-7
19,584,782341,-1543,-16127,-2884,13,-1,-8
19,585,782346,-1537,-16103,-2996,14,-2,-8
19,586,782351,-1503,-16086,-2989,13,2,-9
19,587,782356,-1548,-16054,-3034,14,10,-13
19,588,782361,-1605,-16021,-2992,15,16,-14
19,589,782366,-1603,-16056,-2948,14,19,-16
19,590,782371,-1522,-16068,-2838,14,23,-15
19,591,782376,-1498,-16064,-2763,15,26,-18
19,592,782381,-1498,-16037,-2714,16,27,-19
19,593,782386,-1448,-16023,-2716,18,20,-18
19,594,782391,-1477,-16033,-2717,17,13,-17
19,595,782396,-1517,-16065,-2713,20,7,-18
19,596,782401,-1531,-16067,-2708,21,-4,-18
19,597,782406,-1519,-16046,-2751,19,-12,-18
19,598,782411,-1515,-16091,-2718,19,-17,-18
19,599,782416,-1546,-16090,-2754,21,-21,-20
19,600,782421,-1484,-16112,-2769,20,-22,-18
19,601,782426,-1484,-16150,-2758,20,-21,-17
19,602,782431,-1466,-16177,-2733,17,-25,-18
19,603,782436,-1469,-16189,-2751,17,-29,-18
19,604,782441,-1488,-16175,-2723,17,-30,-17
19,605,782446,-1452,-16240,-2750,17,-35,-17
19,606,782451,-1479,-16265,-2706,15,-35,-17
19,607,782456,-1487,-16192,-2697,16,-39,-15
19,608,782461,-1458,-16222,-2763,13,-49,-16
19,609,782466,-1413,-16208,-2774,11,-46,-18
19,610,782471,-1447,-16172,-2757,12,-41,-17
19,611,782476,-1469,-16201,-2760,13,-41,-14
19,612,782481,-1442,-16183,-2770,8,-35,-16
19,613,782486,-1485,-16152,-2798,8,-28,-13
19,614,782491,-1485,-16143,-2791,5,-24,-13
19,615,782496,-1472,-16135,-2841,5,-16,-15
19,616,782501,-1439,-16157,-2810,5,-10,-12
19,617,782506,-1443,-16147,-2807,1,-6,-13
19,618,782511,-1491,-16096,-2775,2,0,-11
19,619,782516,-1472,-16082,-2813,2,3,-11
19,620,782521,-1497,-16085,-2789,1,4,-12
19,621,782526,-1479,-16100,-2724,-5,5,-12
19,622,782531,-1440,-16098,-2684,-5,3,-11
19,623,782536,-1393,-16095,-2691,-3,0,-10
19,624,782541,-1429,-16087,-2710,-5,-1,-7
19,625,782546,-1476,-16041,-2705,-6,-3,-4
19,626,782551,-1489,-16076,-2715,-6,-5,-4
19,627,782556,-1462,-16065,-2747,-7,-8,-6
19,628,782561,-1428,-16060,-2814,-6,-9,-1
19,629,782566,-1434,-16087,-2800,-7,-5,-2
19,630,782571,-1462,-16090,-2805,-11,-4,-4
19,631,782576,-1496,-16106,-2762,-7,-2,-6
19,632,782581,-1479,-16083,-2765,-11,-1,-3
19,633,782586,-1483,-16135,-2742,-11,2,0
19,634,782591,-1468,-16122,-2757,-9,0,3
19,635,782596,-1400,-16154,-2737,-10,-1,3
19,636,782601,-1387,-16157,-2729,-10,-9,3
19,637,782606,-1435,-16129,-2756,-9,-13,2
19,638,782611,-1408,-16104,-2823,-9,-13,4
19,639,782616,-1366,-16107,-2859,-10,-14,4
19,640,782621,-1379,-16057,-2850,-12,-12,7
19,641,782626,-1409,-16072,-2867,-10,-8,5
19,642,782631,-1409,-16035,-2929,-7,-1,3
19,643,782636,-1444,-15975,-2927,-9,3,2
19,644,782641,-1495,-16016,-2906,-10,7,5
19,645,782646,-1493,-16022,-2839,-8,8,5
19,646,782651,-1473,-16025,-2749,-7,7,8
19,647,782656,-1423,-16034,-2788,-7,7,8
19,648,782661,-1392,-16035,-2756,-5,5,6
19,649,782666,-1332,-16028,-2707,-5,2,8
19,650,782671,-1363,-16042,-2700,-8,-6,7
19,651,782676,-1406,-16038,-2713,-6,-16,7
19,652,782681,-1382,-16035,-2749,-3,-25,12
19,653,782686,-1387,-16065,-2802,-3,-26,11
19,654,782691,-1460,-16074,-2834,-5,-26,9
19,655,782696,-1434,-16071,-2873,-3,-27,8
19,656,782701,-1409,-16099,-2876,-1,-26,13
19,657,782706,-1458,-16124,-2854,-4,-18,12
19,658,782711,-1455,-16105,-2850,-1,-16,9
19,659,782716,-1452,-16101,-2883,-2,-15,8
19,660,782721,-1466,-16159,-2910,2,-10,10
19,661,782726,-1484,-16182,-2882,5,-3,9
19,662,782731,-1453,-16205,-2811,3,2,6
19,663,782736,-1474,-16150,-2822,5,1,6
19,664,782741,-1493,-16110,-2780,4,2,5
19,665,782746,-1457,-16081,-2787,3,4,4
19,666,782751,-1420,-16052,-2787,4,5,5
19,667,782756,-1371,-16086,-2804,4,1,2
19,668,782761,-1391,-16050,-2754,7,-3,0
19,669,782766,-1402,-16036,-2798,4,-2,-1
19,670,782771,-1437,-16017,-2881,5,1,-1
19,671,782776,-1433,-16076,-2911,5,5,1
19,672,782781,-1424,-16082,-2859,8,13,0
19,673,782786,-1462,-16102,-2774,5,17,-3
19,674,782791,-1501,-16131,-2791,6,16,-3
19,675,782796,-1516,-16108,-2838,10,15,-4
19,676,782801,-1495,-16121,-2814,11,18,-2
19,677,782806,-1501,-16127,-2794,10,22,-4
19,678,782811,-1428,-16152,-2753,11,14,-4
19,679,782816,-1382,-16161,-2740,12,9,-7
19,680,782821,-1401,-16173,-2766,10,6,-7
19,681,782826,-1426,-16141,-2758,7,-4,-7
19,682,782831,-1454,-16132,-2731,9,-7,-8
19,683,782836,-1414,-16094,-2754,11,-8,-6
19,684,782841,-1420,-16127,-2765,12,-4,-10
19,685,782846,-1450,-16135,-2753,10,-4,-11
19,686,782851,-1450,-16130,-2757,6,-4,-13
19,687,782856,-1467,-16095,-2753,8,0,-13
19,688,782861,-1427,-16135,-2764,9,7,-14
19,689,782866,-1454,-16126,-2753,8,6,-16
19,690,782871,-1402,-16169,-2703,10,4,-13
19,691,782876,-1441,-16193,-2719,9,6,-15
19,692,782881,-1469,-16168,-2707,8,7,-18
19,693,782886,-1415,-16152,-2664,5,9,-19
19,694,782891,-1434,-16137,-2627,8,3,-19
19,695,782896,-1430,-16155,-2660,6,-3,-20
19,696,782901,-1391,-16132,-2645,4,-13,-17
19,697,782906,-1413,-16125,-2652,3,-20,-19
19,698,782911,-1436,-16122,-2683,6,-26,-18
19,699,782916,-1425,-16121,-2726,9,-30,-18
19,700,782921,-1433,-16138,-2807,4,-30,-18
19,701,782926,-1453,-16117,-2815,2,-28,-20
19,702,782931,-1482,-16131,-2826,3,-23,-20
19,703,782936,-1465,-16149,-2854,4,-17,-20
19,704,782941,-1408,-16095,-2836,3,-12,-20
19,705,782946,-1401,-16117,-2808,2,-11,-20
19,706,782951,-1419,-16131,-2802,3,-11,-24
19,707,782956,-1407,-16151,-2796,3,-11,-21
19,708,782961,-1388,-16117,-2755,0,-14,-22
19,709,782966,-1367,-16114,-2678,3,-15,-23
19,710,782971,-1384,-16117,-2711,4,-17,-20
19,711,782976,-1398,-16135,-2744,2,-18,-21
19,712,782981,-1431,-16106,-2750,1,-20,-21
19,713,782986,-1484,-16082,-2726,2,-17,-21
19,714,782991,-1488,-16102,-2706,2,-21,-20
19,715,782996,-1493,-16108,-2667,2,-21,-20
19,716,783001,-1477,-16118,-2747,0,-19,-19
19,717,783006,-1472,-16168,-2796,0,-14,-20
19,718,783011,-1460,-16138,-2839,0,-7,-22
19,719,783016,-1513,-16101,-2866,3,-3,-20
19,720,783021,-1549,-16110,-2846,1,-2,-20
19,721,783026,-1566,-16104,-2809,2,1,-18
19,722,783031,-1546,-16097,-2835,1,3,-19
19,723,783036,-1519,-16141,-2767,2,5,-20
19,724,783041,-1485,-16184,-2712,2,5,-19
19,725,783046,-1495,-16181,-2753,3,1,-19
19,726,783051,-1589,-16178,-2732,2,0,-17
19,727,783056,-1686,-16144,-2771,2,-4,-15
19,728,783061,-1716,-16156,-2769,2,0,-15
19,729,783066,-1744,-16176,-2722,2,8,-16
19,730,783071,-1797,-16222,-2668,1,11,-15
19,731,783076,-1782,-16231,-2661,2,9,-15
19,732,783081,-1850,-16254,-2591,1,3,-15
19,733,783086,-1929,-16205,-2631,3,-8,-11
19,734,783091,-1705,-16059,-2776,6,-22,-3
19,735,783096,-1912,-16146,-2529,3,-32,-8
19,736,783101,-2129,-16247,-2507,5,-57,-6
19,737,783106,-2032,-16245,-2484,4,-87,5
19,738,783111,-1936,-16238,-2474,7,-98,11
19,739,783116,-1992,-16365,-2350,8,-105,9
19,740,783121,-2178,-16346,-2250,6,-133,10
19,741,783126,-2213,-16374,-2529,10,-163,20
19,742,783131,-2173,-16476,-2573,9,-162,23
19,743,783136,-2159,-16424,-2509,9,-157,25
19,744,783141,-2258,-16382,-2426,10,-163,28
19,745,783146,-2443,-16280,-2623,8,-172,30
19,746,783151,-2594,-16124,-2776,7,-149,35
19,747,783156,-2538,-16097,-2836,9,-107,39
19,748,783161,-2485,-16088,-2642,9,-75,42
19,749,783166,-2428,-16079,-2451,5,-65,46
19,750,783171,-2439,-16100,-2481,6,-65,51
19,751,783176,-2504,-16051,-2511,10,-55,57
19,752,783181,-2544,-16022,-2406,10,-46,61
19,753,783186,-2566,-15988,-2341,10,-53,66
19,754,783191,-2597,-15981,-2513,14,-74,81
19,755,783196,-2660,-15832,-2508,15,-72,85
19,756,783201,-2603,-15820,-2497,11,-75,93
19,757,783206,-2497,-15791,-2501,12,-79,102
19,758,783211,-2423,-15787,-2597,16,-77,108
19,759,783216,-2390,-15722,-2706,24,-64,114
19,760,783221,-2392,-15687,-2733,22,-46,121
19,761,783226,-2370,-15655,-2755,23,-36,129
19,762,783231,-2371,-15654,-2794,25,-23,136
19,763,783236,-2396,-15730,-2785,26,5,139
19,764,783241,-2387,-15748,-2748,31,34,149
19,765,783246,-2291,-15658,-2780,28,59,153
19,766,783251,-2253,-15690,-2793,30,86,157
19,767,783256,-2260,-15724,-2749,34,112,161
19,768,783261,-2288,-15701,-2652,34,129,169
19,769,783266,-2419,-15678,-2597,39,135,173
19,770,783271,-2450,-15722,-2659,39,136,180
19,771,783276,-2445,-15818,-2651,38,144,186
19,772,783281,-2452,-15861,-2536,41,150,190
19,773,783286,-2555,-15983,-2446,42,145,195
19,774,783291,-2645,-15970,-2472,48,133,203
19,775,783296,-2746,-16029,-2588,48,126,207
19,776,783301,-2920,-16141,-2685,50,127,209
19,777,783306,-2937,-16244,-2654,51,136,211
19,778,783311,-3001,-16327,-2566,57,147,214
19,779,783316,-3095,-16339,-2556,60,158,213
19,780,783321,-3111,-16375,-2666,62,163,215
19,781,783326,-3085,-16370,-2626,62,177,218
19,782,783331,-3063,-16328,-2413,61,180,215
19,783,783336,-3087,-16339,-2318,59,165,219
19,784,783341,-3192,-16242,-2276,61,146,221
19,785,783346,-3274,-16176,-2286,66,126,222
19,786,783351,-3303,-16149,-2430,67,106,224
19,787,783356,-3209,-16101,-2430,69,85,227
19,788,783361,-3161,-16115,-2420,73,66,228
19,789,783366,-3202,-16171,-2566,81,55,233
19,790,783371,-3250,-16124,-2736,78,60,229
19,791,783376,-3237,-16004,-2768,77,74,233
19,792,783381,-3295,-16024,-2744,83,88,234
19,793,783386,-3354,-16045,-2690,84,103,233
19,794,783391,-3318,-15970,-2657,81,112,234
19,795,783396,-3271,-15968,-2638,88,119,239
19,796,783401,-3260,-15968,-2605,94,123,243
19,797,783406,-3202,-15971,-2592,90,123,242
19,798,783411,-3187,-15975,-2286,93,129,242
19,799,783416,-3175,-15954,-2352,94,119,248
19,800,783421,-3181,-15924,-2405,96,107,251
19,801,783426,-3105,-15945,-2498,96,101,250
19,802,783431,-3138,-15900,-2471,97,106,251
19,803,783436,-3166,-15884,-2360,103,105,260
19,804,783441,-3154,-15848,-2329,100,101,260
19,805,783446,-2986,-15790,-2369,103,94,268
19,806,783451,-2993,-15772,-2352,107,93,271
19,807,783456,-2988,-15814,-2275,106,80,275
19,808,783461,-2955,-15805,-2223,105,63,283
19,809,783466,-2921,-15879,-2255,108,52,289
19,810,783471,-2911,-15958,-2332,108,45,289
19,811,783476,-2906,-16013,-2385,109,47,295
19,812,783481,-2947,-16037,-2419,108,45,300
19,813,783486,-3107,-16031,-2485,109,49,300
19,814,783491,-3182,-16045,-2500,112,57,305
19,815,783496,-3191,-16085,-2490,117,62,312
19,816,783501,-3132,-16103,-2558,115,63,313
19,817,783506,-3095,-16170,-2512,117,64,316
19,818,783511,-3092,-16201,-2499,120,61,321
19,819,783516,-3092,-16226,-2614,124,54,325
19,820,783521,-3105,-16232,-2588,123,48,325
19,821,783526,-3174,-16240,-2504,124,43,326
19,822,783531,-3241,-16273,-2535,124,37,331
19,823,783536,-3215,-16319,-2669,126,39,332
19,824,783541,-3180,-16321,-2637,127,56,335
19,825,783546,-3187,-16297,-2363,126,73,335
19,826,783551,-3179,-16351,-2461,125,75,338
19,827,783556,-3146,-16237,-2284,126,90,345
19,828,783561,-3194,-16225,-2198,126,83,347
19,829,783566,-3164,-16264,-2329,125,67,351
19,830,783571,-3169,-16240,-2287,128,66,356
19,831,783576,-3170,-16293,-2358,128,64,357
19,832,783581,-3061,-16322,-2316,127,60,360
19,833,783586,-3064,-16356,-2319,125,55,364
19,834,783591,-3136,-16344,-2294,127,49,366
19,835,783596,-3080,-16346,-2379,125,54,368
19,836,783601,-3030,-16370,-2446,127,66,369
19,837,783606,-3054,-16363,-2406,122,79,369
19,838,783611,-3062,-16352,-2388,120,88,368
19,839,783616,-2977,-16345,-2381,120,102,370
19,840,783621,-2963,-16221,-2375,123,120,373
19,841,783626,-2970,-16183,-2261,120,134,377
19,842,783631,-2974,-16173,-2150,117,141,376
19,843,783636,-2962,-16138,-2193,114,139,376
19,844,783641,-2891,-16065,-2165,114,142,379
19,845,783646,-2906,-15985,-1972,113,143,379
19,846,783651,-2937,-15977,-1876,107,127,379
19,847,783656,-2939,-15996,-1964,109,110,385
19,848,783661,-2882,-15987,-2121,110,113,384
19,849,783666,-2849,-16008,-2010,106,116,385
19,850,783671,-2867,-15974,-1863,107,101,386
19,851,783676,-2928,-15976,-2006,106,79,386
19,852,783681,-2898,-15927,-2357,104,76,385
19,853,783686,-2969,-15864,-2239,104,87,383
19,854,783691,-3027,-15795,-2092,103,84,383
19,855,783696,-3085,-15743,-2278,103,80,383
19,856,783701,-3141,-15803,-2500,103,90,380
19,857,783706,-3212,-15847,-2417,101,108,377
19,858,783711,-3077,-15804,-2222,99,118,375
19,859,783716,-3089,-15794,-2355,102,125,369
19,860,783721,-3150,-15901,-2451,105,139,367
19,861,783726,-3191,-15907,-2385,103,153,365
19,862,783731,-3170,-15855,-2188,102,153,361
19,863,783736,-3151,-15866,-2229,106,141,358
19,864,783741,-3204,-15931,-2326,108,137,354
19,865,783746,-3214,-15903,-2335,106,142,347
19,866,783751,-3128,-15872,-2272,103,143,346
19,867,783756,-3055,-15863,-2240,104,131,344
19,868,783761,-3070,-15838,-2269,104,119,338
19,869,783766,-3103,-15798,-2280,105,113,333
19,870,783771,-3176,-15744,-2304,105,113,330
19,871,783776,-3227,-15733,-2365,105,113,325
19,872,783781,-3181,-15780,-2374,105,114,321
19,873,783786,-3057,-15785,-2367,103,114,315
19,874,783791,-3030,-15729,-2352,102,120,309
19,875,783796,-3166,-15693,-2304,103,126,302
19,876,783801,-3249,-15696,-2316,102,128,300
19,877,783806,-3193,-15646,-2394,97,137,295
19,878,783811,-3189,-15632,-2285,99,149,287
19,879,783816,-3161,-15684,-2164,94,153,279
19,880,783821,-3190,-15658,-2117,94,147,275
19,881,783826,-3184,-15656,-2165,94,141,270
19,882,783831,-3203,-15712,-2125,90,144,262
19,883,783836,-3252,-15748,-2047,86,149,257
19,884,783841,-3220,-15743,-2011,84,148,250
19,885,783846,-3194,-15768,-2084,81,146,242
19,886,783851,-3179,-15761,-2149,81,145,237
19,887,783856,-3155,-15727,-2188,77,139,230
19,888,783861,-3157,-15736,-2205,78,130,224
19,889,783866,-3167,-15774,-2239,71,125,218
19,890,783871,-3154,-15865,-2267,68,126,210
19,891,783876,-3152,-15847,-2308,65,122,202
19,892,783881,-3145,-15846,-2275,64,114,196
19,893,783886,-3178,-15846,-2195,60,103,187
19,894,783891,-3129,-15859,-2200,58,86,181
19,895,783896,-3125,-15854,-2250,56,81,174
19,896,783901,-3134,-15904,-2213,49,83,165
19,897,783906,-3068,-15863,-2166,48,84,159
19,898,783911,-3077,-15855,-2198,47,74,150
19,899,783916,-3046,-15830,-2276,47,65,143
19,900,783921,-3005,-15791,-2260,40,58,136
19,901,783926,-3050,-15813,-2254,33,37,121
19,902,783931,-2974,-15792,-2330,29,36,113
19,903,783936,-2916,-15767,-2405,27,41,104
19,904,783941,-2943,-15834,-2369,21,47,90
19,905,783946,-2930,-15829,-2364,19,47,85
19,906,783951,-2988,-15780,-2358,16,49,75
19,907,783956,-2991,-15776,-2434,10,55,62
19,908,783961,-3012,-15808,-2416,6,64,58
19,909,783966,-2969,-15845,-2350,2,77,46
19,910,783971,-2955,-15846,-2235,-3,77,38
19,911,783976,-2956,-15840,-2195,-9,74,29
19,912,783981,-2954,-15804,-2227,-12,65,19
19,913,783986,-2926,-15741,-2261,-17,52,10
19,914,783991,-2813,-15775,-2264,-21,41,2
19,915,783996,-2772,-15816,-2318,-25,33,-9
19,916,784001,-2759,-15859,-2403,-31,33,-17
19,917,784006,-2817,-15869,-2453,-32,38,-26
19,918,784011,-2870,-15856,-2433,-37,46,-36
19,919,784016,-2907,-15881,-2415,-41,58,-48
19,920,784021,-2803,-15867,-2353,-46,70,-59
19,921,784026,-2728,-15890,-2288,-54,80,-71
19,922,784031,-2672,-15969,-2330,-56,88,-80
19,923,784036,-2654,-15975,-2381,-63,90,-91
19,924,784041,-2568,-15923,-2312,-68,93,-101
19,925,784046,-2599,-15873,-2413,-70,96,-112
19,926,784051,-2601,-15901,-2731,-74,102,-124
19,927,784056,-2528,-15813,-2849,-81,120,-133
19,928,784061,-2468,-15772,-2717,-86,133,-141
19,929,784066,-2385,-15834,-2821,-91,145,-153
19,930,784071,-2432,-15934,-2873,-92,178,-169
19,931,784076,-2418,-15889,-2807,-99,222,-181
19,932,784081,-2314,-15884,-2660,-102,266,-194
19,933,784086,-2187,-15935,-2424,-105,290,-205
19,934,784091,-2065,-16002,-2105,-105,280,-215
19,935,784096,-2018,-16019,-1813,-111,244,-225
19,936,784101,-1906,-16019,-1800,-114,185,-234
19,937,784106,-1674,-16062,-1746,-114,124,-242
19,938,784111,-1471,-16120,-1686,-118,55,-246
19,939,784116,-1271,-16180,-1753,-123,-10,-255
19,940,784121,-1168,-16261,-1771,-127,-70,-265
19,941,784126,-1006,-16317,-2197,-129,-126,-272
19,942,784131,-915,-16285,-2314,-128,-139,-283
19,943,784136,-875,-16297,-2267,-135,-145,-294
19,944,784141,-889,-16246,-2367,-137,-163,-304
19,945,784146,-825,-16247,-2750,-135,-183,-314
19,946,784151,-750,-16205,-3212,-137,-165,-327
19,947,784156,-680,-16224,-3371,-141,-109,-341
19,948,784161,-714,-16244,-3100,-146,-55,-356
19,949,784166,-722,-16211,-3041,-146,-17,-372
19,950,784171,-622,-16125,-3075,-144,21,-388
19,951,784176,-532,-16094,-2914,-145,61,-404
19,952,784181,-504,-16225,-2566,-143,86,-422
19,953,784186,-417,-16295,-2388,-143,78,-433
19,954,784191,-418,-16277,-2363,-138,51,-448
19,955,784196,-512,-16266,-2305,-138,22,-464
19,956,784201,-542,-16291,-2150,-136,-10,-482
19,957,784206,-569,-16313,-2307,-136,-66,-497
19,958,784211,-668,-16345,-2525,-132,-105,-514
19,959,784216,-677,-16418,-2695,-130,-121,-533
19,960,784221,-722,-16539,-2702,-129,-125,-556
19,961,784226,-686,-16594,-2678,-126,-135,-574
19,962,784231,-645,-16695,-2797,-121,-144,-593
19,963,784236,-645,-16786,-2849,-120,-137,-616
19,964,784241,-730,-16849,-2788,-118,-130,-639
19,965,784246,-821,-16831,-2704,-116,-141,-661
19,966,784251,-808,-16843,-2757,-112,-163,-680
19,967,784256,-689,-16895,-2836,-111,-182,-699
19,968,784261,-632,-17040,-3023,-105,-199,-718
19,969,784266,-537,-17071,-3193,-101,-209,-741
19,970,784271,-546,-17070,-3369,-97,-214,-763
19,971,784276,-677,-17148,-3404,-90,-212,-788
19,972,784281,-839,-17170,-3383,-88,-197,-811
19,973,784286,-883,-17163,-3303,-86,-179,-833
19,974,784291,-940,-17126,-3066,-76,-151,-874
19,975,784296,-885,-17174,-2826,-77,-161,-895
19,976,784301,-862,-17259,-2579,-73,-197,-912
19,977,784306,-878,-17342,-2453,-72,-243,-933
19,978,784311,-1058,-17394,-2452,-69,-292,-951
19,979,784316,-1214,-17305,-2587,-64,-333,-969
19,980,784321,-1225,-17222,-3043,-66,-352,-982
19,981,784326,-1122,-17180,-3541,-63,-334,-996
19,982,784331,-1171,-17160,-3598,-68,-308,-1014
19,983,784336,-1319,-17133,-3268,-75,-291,-1031
19,984,784341,-1525,-17104,-3039,-79,-284,-1048
19,985,784346,-1611,-17083,-2910,-75,-258,-1060
19,986,784351,-1741,-17052,-2663,-76,-221,-1073
19,987,784356,-1834,-17114,-2377,-78,-214,-1088
19,988,784361,-1954,-17198,-2119,-83,-242,-1096
19,989,784366,-2194,-17202,-2086,-87,-283,-1103
19,990,784371,-2500,-17110,-2112,-92,-306,-1109
19,991,784376,-2814,-17114,-1947,-97,-323,-1111
19,992,784381,-2928,-17123,-1692,-107,-356,-1108
19,993,784386,-2990,-17189,-1556,-112,-408,-1104
19,994,784391,-2986,-17268,-1527,-117,-459,-1096
19,995,784396,-3182,-17260,-1380,-123,-503,-1094
19,996,784401,-3402,-17170,-1474,-128,-550,-1085
19,997,784406,-3341,-17041,-1852,-131,-583,-1068
19,998,784411,-3201,-16945,-2095,-140,-597,-1054
19,999,784416,1876,-6190,-7065,-172,-594,-985
19,1000,784421,-8878,4923,4757,-167,15,-1385
19,1001,784426,7252,-15730,-2304,-103,508,-225
19,1002,784431,-1989,-11699,4816,-70,640,-603
19,1003,784436,-1532,-18696,10521,-33,179,-842
19,1004,784441,-1221,-16257,-6304,-36,-2058,-566
19,1005,784446,-4031,-14658,-7041,-125,-1557,-603
19,1006,784451,-5989,-16638,-7370,-123,-520,-651
19,1007,784456,-3865,-16966,-2219,-131,141,-577
19,1008,784461,-2221,-16631,-2097,-157,-52,-560
19,1009,784466,-3045,-16051,-4854,-131,-275,-595
19,1010,784471,-5309,-16060,-4309,-124,80,-568
19,1011,784476,-4890,-15368,-428,-134,465,-527
19,1012,784481,-3472,-15827,1968,-121,363,-482
19,1013,784486,-2775,-16044,-597,-122,-85,-456
19,1014,784491,-2927,-15930,-3467,-131,-279,-425
19,1015,784496,-3843,-15784,-3181,-138,-101,-405
19,1016,784501,-4136,-15836,-1736,-131,59,-376
19,1017,784506,-3512,-16023,-2292,-121,28,-337
19,1018,784511,-2801,-16124,-3510,-127,24,-313
19,1019,784516,-2899,-16174,-3387,-131,151,-296
19,1020,784521,-3306,-15853,-2224,-133,267,-277
19,1021,784526,-3359,-15753,-1816,-129,243,-247
19,1022,784531,-3118,-15870,-2612,-126,192,-217
19,1023,784536,-2883,-15944,-3026,-121,246,-193
19,1024,784541,-2763,-15853,-2490,-117,337,-173
19,1025,784546,-2707,-15865,-1764,-113,353,-154
19,1026,784551,-2547,-15936,-2010,-110,292,-131
19,1027,784556,-2333,-15827,-2569,-108,261,-110
19,1028,784561,-2233,-15749,-2396,-109,290,-89
19,1029,784566,-2192,-15688,-2061,-110,291,-73
19,1030,784571,-2022,-15636,-2252,-100,244,-50
19,1031,784576,-1892,-15607,-2876,-100,216,-33
19,1032,784581,-1910,-15578,-3082,-98,248,-21
19,1033,784586,-1880,-15604,-3091,-94,299,-7
19,1034,784591,-1680,-15665,-3164,-92,320,5
19,1035,784596,-1571,-15801,-3186,-91,318,14
19,1036,784601,-1683,-15862,-2956,-90,314,20
19,1037,784606,-1882,-15782,-2961,-81,321,28
19,1038,784611,-1976,-15779,-3131,-76,344,35
19,1039,784616,-1867,-15791,-3270,-70,371,43
19,1040,784621,-1636,-15833,-3100,-70,383,51
19,1041,784626,-1542,-15933,-2938,-68,370,51
19,1042,784631,-1470,-16126,-2898,-64,342,54
19,1043,784636,-1378,-16291,-2910,-56,326,55
19,1044,784641,-1289,-16312,-2726,-51,321,53
19,1045,784646,-1359,-16300,-2548,-51,297,50
19,1046,784651,-1438,-16312,-2529,-47,247,50
19,1047,784656,-1532,-16230,-2718,-40,173,42
19,1048,784661,-1466,-16229,-2780,-38,152,40
19,1049,784666,-1244,-16247,-3002,-35,126,40
19,1050,784671,-1065,-16244,-3154,-34,117,30
19,1051,784676,-1005,-16254,-3207,-33,118,22
19,1052,784681,-1026,-16252,-3233,-29,118,14
19,1053,784686,-952,-16203,-3233,-29,113,6
19,1054,784691,-841,-16119,-3178,-32,116,1
19,1055,784696,-892,-16143,-3171,-27,119,-7
19,1056,784701,-882,-16105,-3234,-22,127,-13
19,1057,784706,-875,-16002,-3223,-19,141,-16
19,1058,784711,-845,-16001,-3133,-20,148,-24
19,1059,784716,-754,-16077,-3061,-21,142,-32
19,1060,784721,-652,-16045,-2994,-20,135,-37
19,1061,784726,-574,-16129,-2919,-21,136,-44
19,1062,784731,-507,-16207,-2912,-21,139,-46
19,1063,784736,-400,-16237,-2796,-21,145,-56
19,1064,784741,-425,-16187,-2710,-21,142,-61
19,1065,784746,-433,-16197,-2719,-24,121,-68
19,1066,784751,-445,-16207,-2757,-26,96,-72
19,1067,784756,-417,-16251,-2891,-27,76,-73
19,1068,784761,-274,-16320,-2948,-28,57,-75
19,1069,784766,-170,-16364,-2950,-30,43,-76
19,1070,784771,-97,-16415,-2896,-31,29,-80
19,1071,784776,-2,-16420,-2947,-28,3,-82
19,1072,784781,74,-16410,-3057,-28,-5,-83
19,1073,784786,170,-16384,-3082,-29,2,-84
19,1074,784791,223,-16311,-3061,-31,11,-87
19,1075,784796,216,-16222,-3017,-32,4,-85
19,1076,784801,157,-16112,-2945,-31,-5,-84
19,1077,784806,209,-16048,-3066,-29,-9,-82
19,1078,784811,345,-16110,-3107,-30,-2,-78
19,1079,784816,387,-16071,-2999,-30,7,-75
19,1080,784821,511,-16033,-2890,-27,-3,-75
19,1081,784826,585,-16051,-2839,-31,-34,-75
19,1082,784831,605,-16097,-2870,-32,-60,-70
19,1083,784836,579,-16167,-2804,-31,-77,-67
19,1084,784841,620,-16157,-2918,-31,-94,-68
19,1085,784846,656,-16144,-3152,-30,-99,-63
19,1086,784851,729,-16183,-3283,-29,-93,-57
19,1087,784856,802,-16173,-3346,-31,-85,-58
19,1088,784861,725,-16191,-3404,-33,-73,-59
19,1089,784866,652,-16223,-3377,-34,-45,-59
19,1090,784871,640,-16164,-3262,-33,-13,-59
19,1091,784876,697,-16129,-3249,-33,19,-56
19,1092,784881,723,-16064,-3103,-33,47,-57
19,1093,784886,687,-16048,-2985,-31,51,-57
19,1094,784891,633,-16019,-3041,-27,43,-52
19,1095,784896,624,-16034,-3080,-31,38,-51
19,1096,784901,685,-16028,-2968,-32,30,-46
19,1097,784906,717,-16028,-2958,-25,18,-44
19,1098,784911,658,-16059,-3041,-24,2,-47
19,1099,784916,705,-16081,-3073,-25,-14,-45
19,1100,784921,578,-16110,-3080,-24,-18,-44
19,1101,784926,498,-16162,-3088,-23,-17,-45
19,1102,784931,476,-16184,-3108,-22,-8,-46
19,1103,784936,495,-16216,-3021,-22,0,-48
19,1104,784941,502,-16252,-2965,-24,0,-48
19,1105,784946,414,-16248,-2916,-21,-7,-50
19,1106,784951,256,-16192,-2898,-22,-14,-53
19,1107,784956,136,-16201,-2929,-21,-14,-52
19,1108,784961,169,-16168,-3015,-16,-7,-55
19,1109,784966,219,-16166,-3004,-17,-3,-53
19,1110,784971,331,-16142,-2920,-18,-7,-54
19,1111,784976,321,-16129,-2809,-18,-29,-56
19,1112,784981,295,-16150,-2873,-19,-57,-57
19,1113,784986,234,-16093,-3005,-15,-71,-55
19,1114,784991,231,-16035,-3020,-14,-67,-55
19,1115,784996,271,-16021,-3141,-12,-55,-57
19,1116,785001,290,-16075,-3104,-12,-46,-57
19,1117,785006,263,-16023,-3013,-10,-44,-59
19,1118,785011,243,-15996,-3025,-8,-44,-60
19,1119,785016,165,-15986,-3001,-9,-39,-58
19,1120,785021,260,-16002,-3082,-6,-38,-54
19,1121,785026,283,-15995,-3002,-5,-44,-55
19,1122,785031,233,-16042,-3056,-6,-55,-58
19,1123,785036,202,-15988,-3051,-4,-68,-57
19,1124,785041,142,-15968,-3023,-4,-71,-53
19,1125,785046,112,-15969,-3035,-3,-62,-52
19,1126,785051,122,-15975,-3015,0,-51,-51
19,1127,785056,143,-15996,-2939,2,-44,-51
19,1128,785061,200,-15999,-2889,4,-49,-45
19,1129,785066,235,-16036,-2863,4,-67,-41
19,1130,785071,256,-16060,-2945,5,-75,-41
19,1131,785076,263,-16065,-3009,5,-72,-37
19,1132,785081,255,-16047,-2950,4,-73,-37
19,1133,785086,205,-16041,-2885,3,-90,-35
19,1134,785091,211,-16091,-3010,4,-105,-28
19,1135,785096,241,-16122,-3111,6,-100,-26
19,1136,785101,321,-16046,-3192,9,-87,-24
19,1137,785106,330,-16093,-3122,6,-80,-22
19,1138,785111,339,-16183,-3145,5,-84,-18
19,1139,785116,355,-16135,-3217,7,-88,-15
19,1140,785121,330,-16168,-3203,5,-78,-16
19,1141,785126,346,-16175,-3225,3,-61,-14
19,1142,785131,314,-16106,-3233,6,-50,-8
19,1143,785136,334,-16117,-3157,6,-47,-4
19,1144,785141,347,-16128,-3137,6,-48,-4
19,1145,785146,369,-16162,-3215,8,-46,0
19,1146,785151,362,-16148,-3276,7,-25,3
19,1147,785156,361,-16144,-3170,4,-5,5
19,1148,785161,429,-16119,-3060,3,0,4
19,1149,785166,453,-16110,-3059,4,-7,11
19,1150,785171,455,-16146,-3027,5,-18,14
19,1151,785176,417,-16146,-3051,8,-22,17
19,1152,785181,368,-16142,-3095,2,-24,19
19,1153,785186,414,-16170,-3147,0,-22,20
19,1154,785191,477,-16130,-3217,3,-16,22
19,1155,785196,495,-16145,-3260,1,-13,24
19,1156,785201,482,-16154,-3260,-1,-9,23
19,1157,785206,511,-16102,-3237,-1,-4,25
19,1158,785211,523,-16098,-3228,-1,1,28
19,1159,785216,498,-16119,-3231,-3,9,27
19,1160,785221,514,-16094,-3220,0,12,30
19,1161,785226,539,-16069,-3251,0,7,30
19,1162,785231,572,-16045,-3337,-3,4,33
19,1163,785236,569,-16105,-3317,-1,-3,34
19,1164,785241,550,-16131,-3270,-1,-9,32
19,1165,785246,515,-16142,-3253,-1,-12,31
19,1166,785251,393,-16083,-3296,-1,-14,31
19,1167,785256,354,-16044,-3367,0,-18,32
19,1168,785261,404,-16032,-3358,2,-21,33
19,1169,785266,477,-16010,-3359,1,-22,35
19,1170,785271,499,-16027,-3394,3,-28,32
19,1171,785276,525,-16059,-3470,3,-30,30
19,1172,785281,557,-16065,-3526,4,-22,27
19,1173,785286,533,-16059,-3534,7,-5,24
19,1174,785291,534,-16067,-3505,5,14,23
19,1175,785296,482,-16035,-3375,4,19,22
19,1176,785301,442,-16057,-3299,8,8,20
19,1177,785306,499,-16134,-3286,7,2,17
19,1178,785311,505,-16106,-3330,10,-3,14
19,1179,785316,505,-16118,-3242,7,-8,13
19,1180,785321,534,-16110,-3280,7,-20,11
19,1181,785326,540,-16094,-3353,9,-31,8
19,1182,785331,504,-16084,-3326,8,-39,3
19,1183,785336,481,-16059,-3340,7,-42,4
19,1184,785341,499,-16011,-3385,9,-47,3
19,1185,785346,485,-15996,-3448,8,-42,0
19,1186,785351,553,-16002,-3560,11,-35,-1
19,1187,785356,578,-16037,-3575,10,-29,-3
19,1188,785361,627,-15981,-3504,10,-22,-2
19,1189,785366,645,-15982,-3477,13,-21,-7
19,1190,785371,596,-15958,-3475,10,-16,-12
19,1191,785376,538,-15942,-3405,11,-4,-13
19,1192,785381,556,-15965,-3327,13,3,-15
19,1193,785386,555,-16029,-3205,12,-1,-21
19,1194,785391,570,-16020,-3257,12,-9,-20
19,1195,785396,564,-16042,-3248,11,-16,-22
19,1196,785401,543,-16070,-3187,10,-25,-24
19,1197,785406,610,-16138,-3262,10,-38,-25
19,1198,785411,667,-16161,-3321,8,-50,-27
19,1199,785416,641,-16159,-3301,5,-54,-29
19,1200,785421,543,-16137,-3318,5,-55,-34
19,1201,785426,521,-16113,-3374,4,-48,-33
19,1202,785431,491,-16093,-3317,5,-42,-34
19,1203,785436,465,-16050,-3269,5,-35,-34
19,1204,785441,507,-16082,-3206,-1,-37,-32
19,1205,785446,605,-16138,-3169,-1,-39,-30
19,1206,785451,671,-16172,-3182,0,-38,-30
19,1207,785456,688,-16150,-3227,-5,-35,-34
19,1208,785461,632,-16097,-3209,-4,-37,-35
19,1209,785466,601,-16111,-3188,-5,-41,-36
19,1210,785471,520,-16104,-3277,-7,-41,-34
19,1211,785476,565,-16107,-3285,-13,-31,-33
19,1212,785481,587,-16145,-3149,-14,-21,-31
19,1213,785486,610,-16142,-3086,-11,-23,-30
19,1214,785491,625,-16091,-3102,-16,-28,-32
19,1215,785496,572,-16138,-3070,-16,-30,-31
19,1216,785501,530,-16166,-3101,-18,-38,-31
19,1217,785506,513,-16136,-3154,-18,-47,-30
19,1218,785511,491,-16108,-3246,-19,-50,-28
19,1219,785516,501,-16139,-3320,-22,-46,-28
19,1220,785521,466,-16111,-3287,-21,-36,-28
19,1221,785526,490,-16109,-3271,-21,-26,-27
19,1222,785531,492,-16102,-3249,-22,-24,-24
19,1223,785536,507,-16148,-3243,-23,-24,-20
19,1224,785541,558,-16189,-3227,-22,-24,-19
19,1225,785546,569,-16159,-3150,-23,-27,-19
19,1226,785551,553,-16152,-3171,-23,-35,-17
19,1227,785556,528,-16141,-3233,-22,-36,-14
19,1228,785561,524,-16137,-3215,-20,-37,-10
19,1229,785566,475,-16097,-3184,-23,-39,-8
19,1230,785571,415,-16036,-3241,-21,-40,-5
19,1231,785576,456,-16102,-3337,-20,-38,-1
19,1232,785581,499,-16071,-3298,-16,-34,1
19,1233,785586,556,-16079,-3259,-15,-33,1
19,1234,785591,584,-16085,-3371,-18,-36,4
19,1235,785596,586,-16137,-3422,-15,-29,7
19,1236,785601,535,-16124,-3437,-13,-16,7
19,1237,785606,405,-16140,-3418,-12,-3,9
19,1238,785611,384,-16126,-3398,-11,8,10
19,1239,785616,375,-16110,-3422,-12,17,9
19,1240,785621,474,-16194,-3323,-11,22,13
19,1241,785626,452,-16127,-3213,-9,21,12
19,1242,785631,384,-16087,-3235,-5,15,10
19,1243,785636,334,-16056,-3334,-4,10,11
19,1244,785641,343,-16022,-3261,-2,10,16
19,1245,785646,329,-16002,-3202,-1,12,15
19,1246,785651,318,-16029,-3242,1,10,15
19,1247,785656,292,-16075,-3310,1,5,16
19,1248,785661,380,-16066,-3287,6,4,17
19,1249,785666,406,-16073,-3348,7,9,17
19,1250,785671,435,-16103,-3323,7,6,14
19,1251,785676,436,-16085,-3326,7,9,12
19,1252,785681,407,-16122,-3279,8,18,11
19,1253,785686,324,-16142,-3257,13,22,13
19,1254,785691,288,-16138,-3249,14,28,12
19,1255,785696,288,-16077,-3192,16,33,10
19,1256,785701,364,-16061,-3184,15,34,8
19,1257,785706,378,-16105,-3166,16,29,11
19,1258,785711,381,-16125,-3065,16,20,5
19,1259,785716,380,-16167,-3124,16,8,4
19,1260,785721,384,-16172,-3267,18,7,7
19,1261,785726,387,-16153,-3358,17,15,3
19,1262,785731,375,-16124,-3292,16,21,3
19,1263,785736,437,-16133,-3241,16,19,2
19,1264,785741,400,-16070,-3218,17,10,2
19,1265,785746,415,-16093,-3215,19,10,0
19,1266,785751,446,-16110,-3136,16,10,-6
19,1267,785756,447,-16104,-3199,17,3,-5
19,1268,785761,413,-16068,-3195,19,4,-8
19,1269,785766,368,-16088,-3125,16,10,-7
19,1270,785771,326,-16098,-3106,14,15,-9
19,1271,785776,337,-16049,-3107,16,17,-5
19,1272,785781,404,-16088,-3086,15,21,-9
19,1273,785786,454,-16091,-3004,14,15,-7
19,1274,785791,477,-16084,-3011,13,-1,-7
19,1275,785796,545,-16100,-3058,13,-20,-8
19,1276,785801,590,-16116,-3116,12,-35,-7
19,1277,785806,589,-16140,-3215,10,-40,-8
19,1278,785811,539,-16121,-3268,11,-33,-8
19,1279,785816,497,-16083,-3283,10,-23,-9
19,1280,785821,480,-16100,-3279,11,-15,-8
19,1281,785826,522,-16078,-3207,6,-2,-9
19,1282,785831,506,-16104,-3166,6,7,-8
19,1283,785836,500,-16120,-3169,8,12,-11
19,1284,785841,498,-16131,-3145,5,11,-9
19,1285,785846,548,-16110,-3047,3,5,-7
19,1286,785851,562,-16110,-3105,4,-3,-7
19,1287,785856,564,-16172,-3162,2,-10,-6
19,1288,785861,575,-16148,-3125,1,-14,-8
19,1289,785866,557,-16165,-3143,-1,-19,-9
19,1290,785871,563,-16175,-3212,0,-19,-8
19,1291,785876,512,-16133,-3275,1,-20,-7
19,1292,785881,558,-16087,-3209,-2,-19,-8
19,1293,785886,584,-16115,-3199,-4,-17,-8
19,1294,785891,562,-16111,-3244,-5,-17,-6
19,1295,785896,522,-16083,-3223,-5,-13,-2
19,1296,785901,522,-16034,-3160,-2,-14,1
19,1297,785906,569,-16032,-3159,-5,-19,0
19,1298,785911,543,-16040,-3210,-3,-22,0
19,1299,785916,556,-16088,-3198,-4,-25,0
19,1300,785921,517,-16093,-3273,-4,-25,0
19,1301,785926,538,-16103,-3294,-1,-17,1
19,1302,785931,594,-16113,-3311,-4,-11,0
19,1303,785936,595,-16105,-3249,-2,-8,1
19,1304,785941,630,-16105,-3214,-1,-7,0
19,1305,785946,609,-16080,-3234,-5,-8,1
19,1306,785951,570,-16077,-3229,-2,-13,2
19,1307,785956,665,-16094,-3253,0,-11,3
19,1308,785961,731,-16085,-3333,-3,-11,6
19,1309,785966,717,-16085,-3386,-1,-4,7
19,1310,785971,653,-16099,-3380,0,11,6
19,1311,785976,583,-16101,-3274,-1,23,4
19,1312,785981,592,-16125,-3275,-1,23,4
19,1313,785986,631,-16149,-3335,0,26,7
19,1314,785991,644,-16161,-3305,-1,35,3
19,1315,785996,578,-16103,-3154,-1,40,2
19,1316,786001,524,-16107,-3126,0,37,4
19,1317,786006,484,-16129,-3234,1,32,5
19,1318,786011,556,-16144,-3265,1,34,6
19,1319,786016,635,-16135,-3228,0,40,5
19,1320,786021,555,-16073,-3075,0,44,5
19,1321,786026,494,-16099,-3132,2,36,5
19,1322,786031,592,-16106,-3299,3,38,9
19,1323,786036,681,-16161,-3260,1,55,7
19,1324,786041,661,-16169,-3128,-1,65,1
19,1325,786046,610,-16117,-3076,-2,59,4
19,1326,786051,562,-16131,-3102,-2,51,1
19,1327,786056,527,-16120,-3177,1,52,4
19,1328,786061,521,-16132,-3182,-1,57,1
19,1329,786066,504,-16122,-3145,-4,60,-4
19,1330,786071,492,-16088,-3150,1,56,-5
19,1331,786076,491,-16108,-3184,0,50,-6
19,1332,786081,594,-16123,-3151,-4,46,-5
19,1333,786086,529,-16089,-3071,-5,39,-9
19,1334,786091,462,-16118,-3181,-2,27,-12
19,1335,786096,515,-16089,-3241,-3,19,-10
19,1336,786101,526,-16051,-3240,-4,19,-12
19,1337,786106,510,-16101,-3229,-3,18,-10
19,1338,786111,568,-16104,-3264,1,7,-14
19,1339,786116,590,-16087,-3329,-2,3,-15
19,1340,786121,551,-16048,-3297,0,10,-20
19,1341,786126,514,-16081,-3315,0,6,-20
19,1342,786131,534,-16114,-3294,-1,0,-22
19,1343,786136,509,-16076,-3274,-1,-4,-24
19,1344,786141,466,-16059,-3252,0,-3,-26
19,1345,786146,418,-16046,-3227,1,-6,-29
19,1346,786151,404,-16079,-3212,2,-9,-30
19,1347,786156,467,-16080,-3236,3,-15,-32
19,1348,786161,518,-16136,-3203,2,-20,-30
19,1349,786166,545,-16175,-3255,1,-28,-31
19,1350,786171,602,-16167,-3349,5,-32,-34
19,1351,786176,556,-16137,-3425,5,-32,-37
19,1352,786181,541,-16101,-3444,4,-29,-35
19,1353,786186,569,-16111,-3418,5,-25,-38
19,1354,786191,596,-16115,-3425,3,-27,-39
19,1355,786196,597,-16105,-3377,6,-31,-37
19,1356,786201,569,-16071,-3425,5,-28,-38
19,1357,786206,587,-16099,-3373,4,-22,-41
19,1358,786211,613,-16082,-3349,5,-20,-40
19,1359,786216,593,-16072,-3329,6,-15,-39
19,1360,786221,591,-16090,-3300,6,-11,-37
19,1361,786226,626,-16108,-3277,8,-7,-37
19,1362,786231,658,-16113,-3273,9,-3,-38
19,1363,786236,661,-16126,-3253,7,4,-39
19,1364,786241,717,-16144,-3224,6,5,-38
19,1365,786246,693,-16079,-3178,5,0,-35
19,1366,786251,648,-16070,-3170,6,-5,-36
19,1367,786256,559,-16058,-3245,8,-12,-33
19,1368,786261,532,-16035,-3286,6,-13,-31
19,1369,786266,570,-16073,-3244,3,-15,-32
19,1370,786271,612,-16078,-3181,1,-24,-29
19,1371,786276,579,-16082,-3226,0,-31,-27
19,1372,786281,545,-16036,-3301,0,-36,-27
19,1373,786286,543,-16026,-3357,1,-31,-26
19,1374,786291,550,-16042,-3414,0,-21,-24
19,1375,786296,535,-16023,-3355,-2,-12,-23
19,1376,786301,593,-16067,-3295,-3,-5,-22
19,1377,786306,585,-16154,-3302,-3,-3,-19
19,1378,786311,576,-16164,-3300,0,3,-17
19,1379,786316,607,-16109,-3290,1,8,-17
19,1380,786321,587,-16115,-3223,-5,6,-16
19,1381,786326,617,-16137,-3238,-5,-2,-16
19,1382,786331,684,-16137,-3337,-2,-5,-11
19,1383,786336,722,-16145,-3329,-1,-6,-9
19,1384,786341,665,-16155,-3313,-3,-12,-6
19,1385,786346,602,-16098,-3356,-6,-20,-6
19,1386,786351,599,-16084,-3436,-4,-17,-7
19,1387,786356,583,-16088,-3428,-6,-3,-6
19,1388,786361,669,-16140,-3373,-6,7,-2
19,1389,786366,680,-16102,-3309,-7,8,-1
19,1390,786371,652,-16045,-3269,-9,12,-1
19,1391,786376,614,-16028,-3261,-5,8,2
19,1392,786381,581,-15968,-3255,-6,9,2
19,1393,786386,600,-15996,-3193,-8,3,6
19,1394,786391,596,-16037,-3195,-11,-3,7
19,1395,786396,663,-16078,-3266,-9,-7,5
19,1396,786401,682,-16065,-3278,-7,-5,7
19,1397,786406,609,-16076,-3260,-8,-4,7
19,1398,786411,609,-16063,-3281,-11,-4,7
19,1399,786416,577,-16015,-3290,-11,-2,11
19,1400,786421,524,-16038,-3264,-9,2,10
19,1401,786426,552,-16081,-3155,-12,0,8
19,1402,786431,548,-16103,-3131,-10,-6,9
19,1403,786436,524,-16108,-3216,-10,-8,11
19,1404,786441,537,-16109,-3274,-10,-12,11
19,1405,786446,527,-16107,-3237,-12,-18,10
19,1406,786451,517,-16097,-3222,-12,-29,10
19,1407,786456,513,-16101,-3286,-10,-39,11
19,1408,786461,485,-16083,-3359,-11,-35,10
19,1409,786466,462,-16057,-3420,-12,-28,10
19,1410,786471,467,-15989,-3370,-11,-17,9
19,1411,786476,463,-16024,-3384,-9,-13,7
19,1412,786481,416,-16050,-3382,-11,-7,5
19,1413,786486,368,-16016,-3221,-8,-3,3
19,1414,786491,355,-16052,-3259,-11,-4,-2
19,1415,786496,402,-16017,-3227,-10,-10,1
19,1416,786501,434,-16012,-3205,-9,-14,3
19,1417,786506,353,-16026,-3215,-11,-25,-2
19,1418,786511,270,-16039,-3270,-10,-31,-4
19,1419,786516,272,-16065,-3400,-12,-23,-3
19,1420,786521,323,-16070,-3424,-9,-9,-3
19,1421,786526,373,-16086,-3342,-10,-2,-6
19,1422,786531,414,-16169,-3316,-10,-4,-7
19,1423,786536,476,-16202,-3342,-9,-6,-8
19,1424,786541,473,-16233,-3282,-9,-5,-10
19,1425,786546,398,-16181,-3231,-12,-8,-12
19,1426,786551,395,-16135,-3235,-11,-15,-10
19,1427,786556,400,-16186,-3196,-11,-23,-9
19,1428,786561,428,-16197,-3181,-14,-28,-11
19,1429,786566,518,-16219,-3125,-13,-36,-12
19,1430,786571,502,-16207,-3105,-11,-46,-11
19,1431,786576,487,-16203,-3174,-11,-61,-11
19,1432,786581,522,-16248,-3277,-11,-59,-10
19,1433,786586,582,-16250,-3340,-11,-50,-10
19,1434,786591,548,-16227,-3340,-12,-40,-9
19,1435,786596,492,-16219,-3382,-11,-32,-11
19,1436,786601,504,-16184,-3378,-12,-17,-9
19,1437,786606,508,-16138,-3275,-15,2,-10
19,1438,786611,477,-16099,-3173,-17,13,-13
19,1439,786616,458,-16057,-3123,-17,18,-10
19,1440,786621,504,-16038,-3101,-18,13,-6
19,1441,786626,549,-16073,-3057,-16,9,-4
19,1442,786631,578,-16040,-3083,-17,2,-4
19,1443,786636,626,-16041,-3060,-17,-12,-3
19,1444,786641,635,-16018,-3143,-16,-28,1
19,1445,786646,621,-16036,-3185,-17,-37,3
19,1446,786651,644,-15991,-3228,-15,-39,2
19,1447,786656,671,-15957,-3290,-18,-40,8
19,1448,786661,699,-15975,-3345,-17,-35,7
19,1449,786666,682,-15957,-3330,-16,-24,7
19,1450,786671,748,-15982,-3250,-15,-17,14
19,1451,786676,780,-15991,-3228,-14,-16,11
19,1452,786681,700,-16014,-3178,-15,-17,9
19,1453,786686,650,-16025,-3143,-15,-20,14
19,1454,786691,741,-16004,-3351,-13,-15,16
19,1455,786696,755,-16056,-3452,-11,-6,16
19,1456,786701,712,-16032,-3397,-11,1,15
19,1457,786706,685,-16010,-3377,-11,-7,16
19,1458,786711,591,-15992,-3417,-9,-14,17
19,1459,786716,636,-15991,-3483,-8,0,16
19,1460,786721,694,-16000,-3458,-5,16,20
19,1461,786726,750,-16005,-3386,-4,26,20
19,1462,786731,716,-16040,-3356,-7,23,15
19,1463,786736,667,-16004,-3401,-2,12,18
19,1464,786741,651,-16039,-3377,0,14,18
19,1465,786746,661,-16042,-3309,1,20,17
19,1466,786751,600,-16065,-3258,2,19,14
19,1467,786756,621,-16068,-3203,2,12,14
19,1468,786761,601,-16109,-3225,5,4,11
19,1469,786766,592,-16106,-3237,5,-11,15
19,1470,786771,611,-16163,-3141,5,-28,16
19,1471,786776,595,-16225,-3198,7,-39,13
19,1472,786781,617,-16246,-3311,5,-43,9
19,1473,786786,634,-16244,-3383,6,-39,10
19,1474,786791,670,-16215,-3399,8,-35,9
19,1475,786796,658,-16301,-3385,8,-28,5
19,1476,786801,614,-16317,-3421,8,-20,-1
19,1477,786806,593,-16297,-3538,8,-16,-2
19,1478,786811,575,-16238,-3534,7,-2,-3
19,1479,786816,560,-16186,-3462,7,17,-5
19,1480,786821,498,-16111,-3385,9,20,-9
19,1481,786826,514,-16096,-3314,10,20,-9
19,1482,786831,563,-16083,-3285,8,21,-8
19,1483,786836,576,-16099,-3233,9,22,-10
19,1484,786841,600,-16144,-3237,8,23,-17
19,1485,786846,571,-16126,-3208,8,25,-18
19,1486,786851,594,-16089,-3203,8,19,-17
19,1487,786856,564,-16132,-3194,8,12,-18
19,1488,786861,589,-16130,-3284,4,5,-20
19,1489,786866,582,-16111,-3264,8,-4,-21
19,1490,786871,585,-16127,-3280,8,-9,-23
19,1491,786876,587,-16142,-3324,5,-10,-25
19,1492,786881,597,-16096,-3357,9,-13,-24
19,1493,786886,631,-16119,-3339,7,-13,-23
19,1494,786891,580,-16112,-3363,6,-13,-23
19,1495,786896,582,-16086,-3431,8,-7,-27
19,1496,786901,550,-16105,-3381,6,-6,-26
19,1497,786906,529,-16115,-3347,6,-6,-24
19,1498,786911,579,-16123,-3317,8,-2,-26
19,1499,786916,597,-16136,-3310,8,4,-26
19,1500,786921,589,-16157,-3260,7,9,-26
19,1501,786926,581,-16144,-3297,9,8,-29
19,1502,786931,551,-16133,-3264,6,2,-31
19,1503,786936,518,-16078,-3184,7,-10,-28
19,1504,786941,550,-16048,-3219,6,-18,-26
19,1505,786946,554,-16041,-3244,5,-24,-25
19,1506,786951,559,-16125,-3307,6,-29,-24
19,1507,786956,600,-16116,-3349,5,-31,-23
19,1508,786961,578,-16036,-3381,7,-33,-24
19,1509,786966,566,-16005,-3397,7,-31,-22
19,1510,786971,538,-16067,-3462,9,-25,-24
19,1511,786976,539,-16078,-3473,6,-14,-23
19,1512,786981,552,-16020,-3374,5,-4,-23
19,1513,786986,578,-15994,-3312,5,-3,-23
19,1514,786991,601,-15984,-3214,6,-12,-22
19,1515,786996,636,-15984,-3188,3,-27,-18
19,1516,787001,655,-15946,-3259,3,-34,-17
19,1517,787006,677,-15998,-3355,3,-42,-19
19,1518,787011,691,-15998,-3347,0,-47,-16
19,1519,787016,625,-15995,-3337,0,-52,-16
19,1520,787021,609,-16001,-3445,1,-51,-15
19,1521,787026,592,-15982,-3471,1,-43,-16
19,1522,787031,578,-16010,-3367,-1,-31,-11
19,1523,787036,607,-16019,-3312,-2,-26,-8
19,1524,787041,641,-16056,-3378,-2,-23,-8
19,1525,787046,680,-16068,-3365,1,-19,-10
19,1526,787051,658,-16128,-3279,-3,-16,-7
19,1527,787056,622,-16100,-3373,-2,-17,-8
19,1528,787061,597,-16076,-3465,-6,-14,-5
19,1529,787066,612,-16132,-3480,-4,-5,-3
19,1530,787071,580,-16101,-3415,-2,4,-5
19,1531,787076,606,-16108,-3371,-5,3,-3
19,1532,787081,628,-16134,-3371,-8,4,-3
19,1533,787086,608,-16132,-3296,-8,9,-1
19,1534,787091,643,-16132,-3257,-6,7,1
19,1535,787096,639,-16073,-3279,-9,-5,2
19,1536,787101,622,-16074,-3344,-10,-11,1
19,1537,787106,574,-16105,-3434,-8,-14,3
19,1538,787111,563,-16092,-3487,-7,-13,8
19,1539,787116,620,-16088,-3524,-10,2,8
19,1540,787121,574,-16089,-3438,-8,9,7
19,1541,787126,517,-16053,-3367,-10,13,6
19,1542,787131,505,-16065,-3352,-14,10,5
19,1543,787136,547,-16077,-3317,-9,4,8
19,1544,787141,572,-16044,-3270,-10,-1,9
19,1545,787146,590,-16072,-3237,-11,-5,12
19,1546,787151,580,-16037,-3312,-9,-15,11
19,1547,787156,610,-16003,-3383,-11,-22,13
19,1548,787161,558,-15998,-3417,-9,-23,15
19,1549,787166,591,-15992,-3455,-9,-18,13
19,1550,787171,632,-16006,-3428,-11,-10,11
19,1551,787176,612,-15981,-3445,-9,-5,12
19,1552,787181,572,-15957,-3437,-8,4,14
19,1553,787186,606,-15960,-3384,-9,11,14
19,1554,787191,617,-15987,-3380,-8,16,14
19,1555,787196,633,-16018,-3301,-9,17,13
19,1556,787201,610,-15997,-3260,-9,14,13
19,1557,787206,591,-16003,-3290,-5,10,12
19,1558,787211,566,-15993,-3323,-5,7,14
19,1559,787216,594,-16025,-3346,-6,1,12
19,1560,787221,602,-16015,-3383,-5,-1,13
19,1561,787226,481,-16045,-3352,-3,-8,12
19,1562,787231,485,-16025,-3370,-4,-14,12
19,1563,787236,509,-15999,-3373,-4,-17,10
19,1564,787241,565,-16028,-3396,-3,-16,6
19,1565,787246,567,-16052,-3367,-2,-13,10
19,1566,787251,550,-16013,-3331,-1,-17,7
19,1567,787256,531,-16026,-3325,2,-26,6
19,1568,787261,575,-16095,-3369,2,-31,9
19,1569,787266,612,-16094,-3352,0,-31,6
19,1570,787271,602,-16076,-3350,0,-30,3
19,1571,787276,536,-16104,-3379,-2,-32,2
19,1572,787281,492,-16104,-3388,3,-34,3
19,1573,787286,520,-16119,-3390,3,-33,0
19,1574,787291,520,-16182,-3314,6,-31,1
19,1575,787296,582,-16154,-3295,7,-33,1
19,1576,787301,627,-16157,-3301,6,-34,-1
19,1577,787306,582,-16177,-3288,4,-34,-3
19,1578,787311,564,-16106,-3272,5,-33,-3
19,1579,787316,531,-16074,-3304,3,-35,-4
19,1580,787321,520,-16109,-3329,4,-34,-5
19,1581,787326,557,-16118,-3344,5,-29,-5
19,1582,787331,556,-16181,-3398,5,-19,-6
19,1583,787336,598,-16201,-3404,7,-12,-6
19,1584,787341,636,-16178,-3405,3,-5,-10
19,1585,787346,661,-16163,-3381,4,-5,-9
19,1586,787351,675,-16202,-3291,3,-4,-11
19,1587,787356,675,-16173,-3275,0,-6,-13
19,1588,787361,647,-16135,-3301,2,-9,-11
19,1589,787366,586,-16099,-3263,1,-10,-12
19,1590,787371,574,-16061,-3202,-3,-15,-12
19,1591,787376,524,-16040,-3177,-2,-18,-10
19,1592,787381,581,-16033,-3247,-1,-19,-11
19,1593,787386,611,-16065,-3223,-4,-12,-14
19,1594,787391,653,-16094,-3171,-4,-10,-14
19,1595,787396,679,-16091,-3273,-5,-15,-14
19,1596,787401,646,-16079,-3385,-4,-21,-14
19,1597,787406,671,-16106,-3338,-4,-21,-16
19,1598,787411,685,-16104,-3326,-4,-21,-14
19,1599,787416,690,-16066,-3367,-6,-26,-13
