event_id,seq,ts_ms,ax,ay,az,gx,gy,gz
63,0,827920,-2181,-15839,-3883,2,21,-6
63,1,827925,-2118,-15893,-3833,3,24,-3
63,2,827930,-2172,-15850,-3708,3,19,-3
63,3,827935,-2296,-15787,-3632,4,6,-5
63,4,827940,-2377,-15885,-3680,6,-2,-5
63,5,827945,-2397,-15894,-3693,7,3,-5
63,6,827950,-2350,-15861,-3679,4,2,-3
63,7,827955,-2252,-15818,-3653,5,-5,-5
63,8,827960,-2177,-15837,-3762,6,-11,-6
63,9,827965,-2188,-15783,-3770,5,-11,-6
63,10,827970,-2203,-15770,-3816,5,-4,-5
63,11,827975,-2224,-15792,-3840,5,2,-6
63,12,827980,-2196,-15816,-3802,2,3,-5
63,13,827985,-2198,-15750,-3671,-1,4,-1
63,14,827990,-2183,-15732,-3583,-1,-7,-5
63,15,827995,-2146,-15763,-3618,1,-24,-2
63,16,828000,-2059,-15803,-3871,5,-37,-1
63,17,828005,-2196,-15812,-3918,5,-34,-3
63,18,828010,-2340,-15827,-3784,5,-27,-3
63,19,828015,-2343,-15874,-3791,5,-22,-5
63,20,828020,-2215,-15878,-3887,7,-21,-2
63,21,828025,-2090,-15824,-3918,8,-11,-2
63,22,828030,-2130,-15803,-3864,7,-1,-6
63,23,828035,-2332,-15802,-3817,6,2,-9
63,24,828040,-2496,-15777,-3709,7,-1,-12
63,25,828045,-2408,-15750,-3672,6,-19,-9
63,26,828050,-2297,-15818,-3743,2,-19,-10
63,27,828055,-2274,-15777,-3645,1,-12,-12
63,28,828060,-2305,-15746,-3661,5,-9,-11
63,29,828065,-2248,-15747,-3790,6,-4,-10
63,30,828070,-2135,-15718,-3854,5,2,-10
63,31,828075,-2103,-15732,-3700,2,9,-14
63,32,828080,-2210,-15723,-3558,2,3,-11
63,33,828085,-2288,-15796,-3653,3,-4,-8
63,34,828090,-2135,-15852,-3729,4,0,-8
63,35,828095,-1955,-15820,-3466,-1,17,-10
63,36,828100,-2009,-15838,-3279,0,12,-11
63,37,828105,-2050,-15922,-3492,5,-15,-9
63,38,828110,-1991,-15935,-3803,7,-31,-8
63,39,828115,-1956,-15898,-3864,3,-32,-6
63,40,828120,-2034,-15906,-3839,0,-32,-6
63,41,828125,-2185,-15919,-3862,0,-39,-7
63,42,828130,-2243,-15882,-3898,-2,-36,-7
63,43,828135,-2238,-15844,-3823,-1,-23,-4
63,44,828140,-2187,-15832,-3714,-2,-6,-4
63,45,828145,-2135,-15863,-3525,-2,0,-4
63,46,828150,-2109,-15899,-3456,0,-5,-2
63,47,828155,-2133,-15840,-3629,2,-14,-1
63,48,828160,-2135,-15781,-3767,1,-12,-4
63,49,828165,-2221,-15691,-3683,2,-5,-4
63,50,828170,-2228,-15674,-3734,2,-5,-2
63,51,828175,-2186,-15806,-3836,4,-7,-1
63,52,828180,-2151,-15813,-3884,-1,3,-2
63,53,828185,-2207,-15780,-3768,-3,3,-4
63,54,828190,-2260,-15790,-3703,-1,-15,-1
63,55,828195,-2184,-15820,-3756,-1,-26,1
63,56,828200,-2131,-15780,-3811,-1,-25,-1
63,57,828205,-2059,-15833,-3845,-2,-13,-1
63,58,828210,-2019,-15897,-3761,-1,-7,-2
63,59,828215,-1959,-15837,-3743,-5,-11,0
63,60,828220,-1927,-15834,-3805,-1,-19,1
63,61,828225,-2051,-15852,-3810,-2,-19,-2
63,62,828230,-2267,-15831,-3808,-3,-13,-6
63,63,828235,-2276,-15877,-3823,-3,-12,-3
63,64,828240,-2250,-15862,-3892,-3,-15,-3
63,65,828245,-2187,-15811,-3809,-2,-13,-2
63,66,828250,-2208,-15852,-3810,5,-12,-3
63,67,828255,-2320,-15827,-3861,5,-15,-4
63,68,828260,-2296,-15839,-3839,3,-23,1
63,69,828265,-2257,-15861,-3750,1,-24,3
63,70,828270,-2209,-15909,-3761,3,-22,6
63,71,828275,-2080,-15884,-3885,7,-9,7
63,72,828280,-2027,-15876,-4086,5,7,9
63,73,828285,-2145,-15785,-4004,0,25,5
63,74,828290,-2246,-15735,-3831,-1,25,1
63,75,828295,-2160,-15757,-3877,-1,13,5
63,76,828300,-1975,-15727,-4048,1,17,4
63,77,828305,-1891,-15710,-4025,2,33,-1
63,78,828310,-2085,-15753,-3819,2,42,-6
63,79,828315,-2243,-15751,-3621,3,26,-7
63,80,828320,-2276,-15750,-3665,3,7,-1
63,81,828325,-2268,-15726,-3685,6,10,-2
63,82,828330,-2283,-15789,-3546,5,22,-8
63,83,828335,-2370,-15859,-3515,5,16,-5
63,84,828340,-2339,-15859,-3710,7,4,-4
63,85,828345,-2382,-15884,-3894,7,-6,-4
63,86,828350,-2457,-15880,-3855,4,-17,-4
63,87,828355,-2525,-15837,-3672,2,-29,-4
63,88,828360,-2389,-15826,-3639,2,-41,-1
63,89,828365,-2280,-15901,-3737,3,-39,0
63,90,828370,-2154,-15939,-3719,3,-26,-2
63,91,828375,-2120,-15913,-3521,6,-22,0
63,92,828380,-2111,-15874,-3684,5,-33,2
63,93,828385,-2093,-15841,-3903,4,-34,2
63,94,828390,-2184,-15825,-3895,1,-12,1
63,95,828395,-2155,-15797,-3562,-4,8,-2
63,96,828400,-2091,-15809,-3337,-1,3,2
63,97,828405,-2001,-15797,-3644,1,-10,6
63,98,828410,-1997,-15751,-3925,6,-3,4
63,99,828415,-2091,-15764,-3855,4,16,1
63,100,828420,-2150,-15773,-3678,5,22,-2
63,101,828425,-2193,-15790,-3739,4,16,1
63,102,828430,-2188,-15817,-3882,2,23,1
63,103,828435,-2313,-15839,-3843,1,52,-1
63,104,828440,-2449,-15828,-3527,-1,73,-3
63,105,828445,-2413,-15828,-3427,-2,70,-1
63,106,828450,-2227,-15840,-3598,-2,60,-1
63,107,828455,-2090,-15888,-3597,-3,63,-2
63,108,828460,-2070,-15859,-3412,-4,64,-8
63,109,828465,-2051,-15801,-3341,-7,44,-8
63,110,828470,-2015,-15834,-3326,-7,15,-6
63,111,828475,-1984,-15804,-3465,-5,-3,-2
63,112,828480,-1966,-15777,-3688,-1,-10,4
63,113,828485,-2085,-15802,-3856,-2,-12,-1
63,114,828490,-2247,-15822,-3903,-4,-16,1
63,115,828495,-2185,-15755,-3869,-5,-22,6
63,116,828500,-2067,-15737,-3987,-5,-32,8
63,117,828505,-2121,-15811,-4188,-3,-28,7
63,118,828510,-2348,-15752,-4171,-2,-16,2
63,119,828515,-2521,-15812,-4115,-1,-16,4
63,120,828520,-2525,-15868,-4025,0,-12,2
63,121,828525,-2523,-15917,-4030,-1,6,5
63,122,828530,-2419,-15916,-4039,1,22,6
63,123,828535,-2295,-15896,-3920,2,21,6
63,124,828540,-2230,-15891,-3904,2,13,6
63,125,828545,-2118,-15904,-4051,2,9,5
63,126,828550,-2117,-15961,-4100,5,26,4
63,127,828555,-2310,-15935,-3845,3,50,-2
63,128,828560,-2359,-15937,-3649,0,57,-4
63,129,828565,-2192,-15914,-3641,3,60,-1
63,130,828570,-2105,-15827,-3621,5,72,-4
63,131,828575,-2126,-15761,-3385,4,79,-9
63,132,828580,-2218,-15636,-3187,5,53,-11
63,133,828585,-2141,-15603,-3243,7,0,-4
63,134,828590,-2052,-15623,-3448,9,-39,-1
63,135,828595,-1974,-15687,-3798,8,-56,1
63,136,828600,-2004,-15729,-3998,5,-57,2
63,137,828605,-2170,-15827,-4177,2,-55,-1
63,138,828610,-2293,-15858,-4196,0,-50,3
63,139,828615,-2327,-15851,-4202,-2,-31,7
63,140,828620,-2299,-15879,-4132,-1,-4,5
63,141,828625,-2380,-15868,-3838,2,22,2
63,142,828630,-2361,-15814,-3997,6,6,6
63,143,828635,-2346,-15779,-3995,7,5,-1
63,144,828640,-2381,-15833,-3940,6,10,-3
63,145,828645,-2319,-15859,-3891,5,14,-7
63,146,828650,-2265,-15792,-3710,8,9,-3
63,147,828655,-2261,-15806,-3606,10,1,-4
63,148,828660,-2270,-15845,-3721,11,-7,-8
63,149,828665,-2210,-15815,-3868,10,-2,-6
63,150,828670,-2105,-15753,-3784,8,6,-7
63,151,828675,-1980,-15754,-3623,8,-4,-8
63,152,828680,-1900,-15829,-3746,8,-28,-7
63,153,828685,-1982,-15765,-3785,9,-35,-6
63,154,828690,-2146,-15757,-3772,9,-29,-6
63,155,828695,-2162,-15797,-3690,8,-24,-4
63,156,828700,-2155,-15802,-3555,9,-20,-2
63,157,828705,-2070,-15858,-3732,8,-24,1
63,158,828710,-1986,-15878,-3800,6,-21,3
63,159,828715,-2063,-15887,-3740,4,-23,3
63,160,828720,-2113,-15920,-3726,4,-31,5
63,161,828725,-2083,-15891,-3813,3,-27,5
63,162,828730,-2162,-15849,-3807,5,-10,4
63,163,828735,-2227,-15865,-3669,5,8,4
63,164,828740,-2231,-15871,-3530,2,13,4
63,165,828745,-2204,-15795,-3497,5,-2,3
63,166,828750,-2232,-15751,-3606,5,-16,-3
63,167,828755,-2218,-15727,-3552,4,-19,-1
63,168,828760,-2164,-15734,-3495,3,-16,-3
63,169,828765,-2222,-15792,-3526,2,-13,-3
63,170,828770,-2275,-15769,-3480,4,-11,-2
63,171,828775,-2224,-15788,-3490,2,-14,0
63,172,828780,-2046,-15851,-3571,5,-19,1
63,173,828785,-1922,-15856,-3700,6,-31,2
63,174,828790,-2029,-15829,-3769,7,-40,3
63,175,828795,-2215,-15829,-3999,5,-51,7
63,176,828800,-2325,-15803,-4274,6,-50,2
63,177,828805,-2389,-15787,-4251,-3,-25,-2
63,178,828810,-2459,-15809,-4092,-6,-4,-2
63,179,828815,-2366,-15844,-3828,-4,0,-1
63,180,828820,-2279,-15849,-3637,-5,-3,-1
63,181,828825,-2306,-15861,-3547,-1,-12,-1
63,182,828830,-2357,-15885,-3595,-2,-20,-3
63,183,828835,-2393,-15749,-3514,-2,-21,-1
63,184,828840,-2327,-15795,-3520,0,-28,1
63,185,828845,-2170,-15859,-3696,2,-24,4
63,186,828850,-2168,-15791,-3586,-2,-8,1
63,187,828855,-2293,-15773,-3481,-1,-9,0
63,188,828860,-2287,-15798,-3575,2,-19,-1
63,189,828865,-2200,-15777,-3645,-1,-19,-1
63,190,828870,-2129,-15739,-3600,-1,-12,-3
63,191,828875,-2159,-15816,-3657,1,-10,-5
63,192,828880,-2243,-15808,-3688,2,-15,-5
63,193,828885,-2188,-15773,-3673,4,-29,1
63,194,828890,-2093,-15811,-3752,1,-40,0
63,195,828895,-2083,-15900,-3888,1,-43,0
63,196,828900,-2204,-15851,-3912,0,-40,-2
63,197,828905,-2354,-15801,-3750,-6,-39,-2
63,198,828910,-2329,-15874,-3600,-5,-43,-3
63,199,828915,-2253,-15888,-3618,-4,-41,-3
63,200,828920,-2170,-15884,-3666,-3,-37,-1
63,201,828925,-2216,-15878,-3650,-5,-37,-4
63,202,828930,-2361,-15897,-3791,-5,-56,-5
63,203,828935,-2381,-15837,-3870,-6,-68,-1
63,204,828940,-2319,-15846,-3966,-4,-64,-3
63,205,828945,-2328,-15872,-3995,-5,-54,-4
63,206,828950,-2346,-15839,-3919,-1,-46,-4
63,207,828955,-2370,-15784,-3866,0,-35,-5
63,208,828960,-2359,-15719,-3853,1,-24,-4
63,209,828965,-2315,-15658,-3882,5,-12,-3
63,210,828970,-2273,-15645,-3911,3,2,-3
63,211,828975,-2229,-15751,-3936,2,2,-6
63,212,828980,-2118,-15844,-3846,1,2,-6
63,213,828985,-2152,-15802,-3776,-2,3,-6
63,214,828990,-2144,-15794,-3920,0,0,-6
63,215,828995,-2108,-15768,-3732,-3,5,-9
63,216,829000,-2214,-15883,-3677,-3,-2,-11
63,217,829005,-2353,-15935,-3626,-2,-3,-14
63,218,829010,-2375,-15892,-3639,0,-3,-9
63,219,829015,-2288,-15855,-3618,-3,0,-9
63,220,829020,-2288,-15790,-3612,0,-7,-10
63,221,829025,-2393,-15777,-3655,-1,-23,-11
63,222,829030,-2411,-15836,-3746,3,-35,-11
63,223,829035,-2446,-15858,-3792,2,-33,-9
63,224,829040,-2427,-15819,-3728,-1,-26,-8
63,225,829045,-2415,-15799,-3680,-1,-24,-10
63,226,829050,-2474,-15762,-3713,1,-32,-13
63,227,829055,-2494,-15758,-3811,3,-46,-11
63,228,829060,-2450,-15778,-3889,2,-52,-9
63,229,829065,-2375,-15716,-3798,-2,-51,-10
63,230,829070,-2289,-15788,-3773,1,-58,-8
63,231,829075,-2138,-15880,-3901,-1,-55,-8
63,232,829080,-2113,-15916,-3991,-1,-40,-7
63,233,829085,-2072,-15908,-3843,-2,-23,-11
63,234,829090,-2070,-15903,-3769,-3,-14,-11
63,235,829095,-2138,-15889,-3827,-1,-7,-8
63,236,829100,-2109,-15817,-3853,-1,14,-8
63,237,829105,-2042,-15838,-3662,-2,26,-5
63,238,829110,-1922,-15768,-3515,0,23,-6
63,239,829115,-1869,-15764,-3661,2,14,-9
63,240,829120,-1925,-15825,-3914,3,12,-14
63,241,829125,-2083,-15770,-3874,0,21,-16
63,242,829130,-2129,-15754,-3760,-1,15,-17
63,243,829135,-2078,-15750,-3767,-2,-3,-13
63,244,829140,-2072,-15710,-3843,1,-11,-12
63,245,829145,-2194,-15787,-3885,1,-6,-13
63,246,829150,-2325,-15787,-3727,-2,7,-16
63,247,829155,-2319,-15786,-3493,-4,3,-12
63,248,829160,-2235,-15874,-3409,-5,-9,-8
63,249,829165,-2170,-15928,-3431,-2,-8,-8
63,250,829170,-2158,-15952,-3382,-8,-11,-6
63,251,829175,-2104,-15841,-3484,-4,-23,-5
63,252,829180,-2126,-15850,-3943,2,-37,0
63,253,829185,-2110,-15798,-4205,-2,-29,-1
63,254,829190,-2115,-15803,-4114,-3,-8,-2
63,255,829195,-1981,-15794,-4032,-2,-7,-2
63,256,829200,-1960,-15796,-3858,-2,-14,-1
63,257,829205,-1998,-15798,-3821,-1,-30,3
63,258,829210,-1933,-15821,-3929,2,-35,3
63,259,829215,-2025,-15843,-4014,4,-15,0
63,260,829220,-2149,-15810,-3859,3,3,-5
63,261,829225,-2184,-15819,-3857,3,4,-5
63,262,829230,-2113,-15865,-3887,3,3,1
63,263,829235,-2122,-15778,-3876,3,7,1
63,264,829240,-2201,-15790,-3824,0,10,-2
63,265,829245,-2322,-15864,-3780,0,1,0
63,266,829250,-2366,-15785,-3784,2,-3,-1
63,267,829255,-2317,-15816,-3852,5,5,1
63,268,829260,-2242,-15856,-3802,3,19,-1
63,269,829265,-2206,-15830,-3583,0,23,0
63,270,829270,-2060,-15781,-3510,0,9,2
63,271,829275,-2005,-15777,-3677,2,-7,4
63,272,829280,-2043,-15784,-3801,1,-13,2
63,273,829285,-2251,-15783,-3668,-2,-10,-1
63,274,829290,-2335,-15828,-3748,-1,-15,-3
63,275,829295,-2272,-15869,-3791,2,-19,0
63,276,829300,-2226,-15841,-3935,2,-16,5
63,277,829305,-2217,-15777,-4100,1,-8,0
63,278,829310,-2285,-15766,-3943,1,-1,-2
63,279,829315,-2348,-15831,-3722,1,-8,0
63,280,829320,-2239,-15836,-3698,2,-22,3
63,281,829325,-2125,-15811,-3919,3,-14,5
63,282,829330,-2154,-15827,-3889,1,10,3
63,283,829335,-2263,-15893,-3683,3,20,3
63,284,829340,-2362,-15895,-3652,5,9,2
63,285,829345,-2307,-15839,-3849,5,0,3
63,286,829350,-2255,-15797,-4081,8,13,2
63,287,829355,-2319,-15768,-4029,5,41,-6
63,288,829360,-2442,-15686,-3452,1,14,-7
63,289,829365,-2407,-15722,-3605,5,-23,1
63,290,829370,-2288,-15840,-3808,8,-29,-3
63,291,829375,-2273,-15792,-3737,5,-13,-4
63,292,829380,-2356,-15814,-3599,2,-14,-7
63,293,829385,-2349,-15864,-3753,4,-35,-2
63,294,829390,-2280,-15876,-3882,4,-42,1
63,295,829395,-2384,-15832,-3799,-1,-32,-4
63,296,829400,-2503,-15826,-3781,3,-26,-5
63,297,829405,-2404,-15860,-3905,7,-28,0
63,298,829410,-2235,-15891,-4105,6,-25,4
63,299,829415,-2229,-15857,-4159,5,-5,-2
63,300,829420,-2407,-15819,-3964,7,12,-7
63,301,829425,-2520,-15807,-3710,5,11,-5
63,302,829430,-2357,-15821,-3706,5,-1,-5
63,303,829435,-2187,-15806,-3759,3,-2,-4
63,304,829440,-2105,-15787,-3610,2,9,-11
63,305,829445,-2022,-15791,-3393,2,12,-12
63,306,829450,-2048,-15806,-3291,3,-1,-10
63,307,829455,-2155,-15805,-3265,6,-23,-13
63,308,829460,-2185,-15821,-3462,6,-32,-7
63,309,829465,-2150,-15843,-3634,6,-31,-6
63,310,829470,-2219,-15869,-3695,3,-25,-6
63,311,829475,-2357,-15834,-3743,2,-22,-8
63,312,829480,-2389,-15812,-3802,4,-31,-7
63,313,829485,-2337,-15810,-3842,3,-46,-2
63,314,829490,-2261,-15793,-3891,-1,-54,-4
63,315,829495,-2139,-15845,-3804,-2,-53,-2
63,316,829500,-2131,-15812,-3687,-5,-48,-4
63,317,829505,-2073,-15880,-3720,-3,-42,-1
63,318,829510,-2051,-15895,-3788,-1,-24,-1
63,319,829515,-2069,-15871,-3718,-3,-2,-3
63,320,829520,-2065,-15906,-3678,-4,16,-3
63,321,829525,-2215,-15915,-3590,-2,21,-6
63,322,829530,-2276,-15914,-3567,0,8,-1
63,323,829535,-2157,-15948,-3709,3,-2,2
63,324,829540,-2061,-15859,-3955,2,12,-1
63,325,829545,-2241,-15842,-3925,2,35,-5
63,326,829550,-2533,-15822,-3863,0,39,-7
63,327,829555,-2605,-15719,-3949,-2,28,-3
63,328,829560,-2448,-15747,-4125,-1,18,2
63,329,829565,-2279,-15822,-4018,-3,19,2
63,330,829570,-2309,-15787,-3568,-5,16,0
63,331,829575,-2429,-15805,-3459,-2,-3,-3
63,332,829580,-2519,-15839,-3822,2,-5,-3
63,333,829585,-2567,-15895,-3730,0,28,-5
63,334,829590,-2548,-15851,-3275,-4,49,-4
63,335,829595,-2478,-15945,-2956,1,26,-3
63,336,829600,-2312,-15995,-3192,8,-11,-3
63,337,829605,-2330,-15991,-3540,7,-31,2
63,338,829610,-2436,-15873,-3630,8,-44,3
63,339,829615,-2490,-15796,-3567,5,-71,9
63,340,829620,-2494,-15925,-3674,6,-111,12
63,341,829625,-2470,-16087,-3943,10,-119,13
63,342,829630,-2540,-16052,-4042,15,-81,14
63,343,829635,-2591,-15921,-4005,15,-38,12
63,344,829640,-2641,-15887,-3641,16,-20,11
63,345,829645,-2779,-16011,-3303,20,-22,11
63,346,829650,-2761,-16071,-3207,25,-25,19
63,347,829655,-2740,-16162,-3202,26,-10,22
63,348,829660,-2598,-16117,-3129,30,-1,26
63,349,829665,-2549,-15937,-2988,33,-18,30
63,350,829670,-2779,-15785,-3129,40,-48,30
63,351,829675,-3227,-15761,-3616,44,-74,37
63,352,829680,-3310,-15705,-4257,48,-72,45
63,353,829685,-3090,-15505,-4513,46,-38,49
63,354,829690,-3077,-15378,-4256,48,-5,46
63,355,829695,-3522,-15463,-4186,57,14,44
63,356,829700,-3693,-15611,-4432,60,34,51
63,357,829705,-3442,-15504,-4248,59,106,52
63,358,829710,-3172,-15520,-3726,61,179,51
63,359,829715,-3136,-15659,-3038,63,202,49
63,360,829720,-3193,-15722,-2673,65,172,56
63,361,829725,-2942,-15528,-2938,76,100,76
63,362,829730,-2759,-15533,-2617,71,91,83
63,363,829735,-2684,-15685,-2223,68,39,90
63,364,829740,-2551,-15823,-2570,76,-43,102
63,365,829745,-2597,-15890,-2990,77,-92,115
63,366,829750,-2838,-15819,-3077,70,-97,114
63,367,829755,-3028,-15718,-2968,65,-100,120
63,368,829760,-3101,-15603,-3200,63,-119,131
63,369,829765,-3104,-15589,-3730,62,-136,143
63,370,829770,-3216,-15748,-3967,59,-125,147
63,371,829775,-3388,-15782,-3819,52,-87,147
63,372,829780,-3551,-15736,-3565,49,-45,148
63,373,829785,-3514,-15609,-3416,52,6,152
63,374,829790,-3451,-15657,-3209,50,54,152
63,375,829795,-3386,-15678,-2840,48,56,152
63,376,829800,-3230,-15699,-2398,51,17,159
63,377,829805,-3231,-15751,-2706,59,-46,170
63,378,829810,-3357,-15751,-3608,55,-95,176
63,379,829815,-3477,-15601,-4108,50,-99,178
63,380,829820,-3618,-15389,-4168,45,-93,180
63,381,829825,-3777,-15425,-4176,45,-84,184
63,382,829830,-3747,-15632,-4204,46,-44,186
63,383,829835,-3589,-15618,-3980,44,44,184
63,384,829840,-3561,-15431,-3402,44,132,176
63,385,829845,-3606,-15400,-3001,48,160,177
63,386,829850,-3664,-15530,-2832,47,140,183
63,387,829855,-3547,-15687,-2886,47,108,189
63,388,829860,-3211,-15856,-3052,49,89,196
63,389,829865,-3096,-15840,-2936,49,76,192
63,390,829870,-3279,-15690,-2912,43,22,186
63,391,829875,-3530,-15681,-3112,46,-60,202
63,392,829880,-3580,-15873,-3482,46,-104,210
63,393,829885,-3682,-16037,-3677,43,-74,210
63,394,829890,-3604,-16047,-3607,43,-9,209
63,395,829895,-3607,-15901,-3248,40,34,207
63,396,829900,-3750,-15835,-2781,44,9,208
63,397,829905,-3950,-15862,-2829,49,-64,213
63,398,829910,-3973,-15908,-3473,56,-121,222
63,399,829915,-3985,-15827,-3760,54,-116,221
63,400,829920,-4004,-15654,-3558,51,-97,220
63,401,829925,-3975,-15534,-3596,54,-112,224
63,402,829930,-3890,-15555,-3799,58,-121,225
63,403,829935,-3911,-15564,-3875,60,-92,224
63,404,829940,-4061,-15699,-3580,59,-40,219
63,405,829945,-4224,-15625,-3292,60,-4,218
63,406,829950,-4095,-15488,-3374,63,14,221
63,407,829955,-3954,-15515,-3257,60,45,222
63,408,829960,-3941,-15555,-2928,63,62,218
63,409,829965,-3974,-15631,-2750,68,37,220
63,410,829970,-3939,-15677,-2909,68,-9,228
63,411,829975,-3895,-15751,-3123,72,-35,233
63,412,829980,-3844,-15822,-3310,71,-25,236
63,413,829985,-3761,-15842,-3231,69,6,240
63,414,829990,-3663,-15754,-3094,72,24,242
63,415,829995,-3825,-15649,-3058,76,29,245
63,416,830000,-3831,-15631,-3471,79,14,257
63,417,830005,-3699,-15647,-3417,80,12,262
63,418,830010,-3740,-15682,-2850,80,3,263
63,419,830015,-3776,-15750,-2759,87,-34,268
63,420,830020,-3874,-15704,-3144,93,-59,275
63,421,830025,-3903,-15642,-3516,93,-59,276
63,422,830030,-3906,-15643,-3530,97,-39,280
63,423,830035,-4088,-15758,-3548,100,-23,281
63,424,830040,-4274,-15850,-3826,104,-4,281
63,425,830045,-4210,-15802,-3998,106,35,284
63,426,830050,-4036,-15616,-3634,104,93,281
63,427,830055,-4109,-15610,-3117,103,117,280
63,428,830060,-4136,-15684,-3045,112,93,289
63,429,830065,-4091,-15654,-3177,118,73,300
63,430,830070,-4093,-15562,-3080,118,90,297
63,431,830075,-4128,-15595,-2891,118,113,295
63,432,830080,-4063,-15667,-2697,118,102,300
63,433,830085,-4122,-15653,-2622,119,67,305
63,434,830090,-4097,-15473,-2772,118,11,312
63,435,830095,-4188,-15593,-2502,120,-6,315
63,436,830100,-4252,-15731,-2532,125,-51,323
63,437,830105,-4018,-15859,-2965,127,-91,333
63,438,830110,-3812,-15902,-3010,123,-96,334
63,439,830115,-3806,-15956,-2819,122,-81,334
63,440,830120,-4091,-16045,-3133,128,-83,336
63,441,830125,-4184,-16028,-3836,128,-83,346
63,442,830130,-4253,-15793,-3886,118,-51,344
63,443,830135,-4350,-15686,-3659,113,-8,346
63,444,830140,-4313,-15846,-3496,118,34,347
63,445,830145,-4377,-15943,-3416,119,76,347
63,446,830150,-4291,-15931,-3298,119,113,345
63,447,830155,-4224,-15799,-2809,117,131,348
63,448,830160,-4262,-15672,-2391,116,108,349
63,449,830165,-4214,-15632,-2366,119,49,355
63,450,830170,-4055,-15683,-2584,117,-2,364
63,451,830175,-4053,-15735,-2632,117,-24,367
63,452,830180,-4146,-15745,-2624,116,-35,371
63,453,830185,-4196,-15710,-2763,115,-26,373
63,454,830190,-4364,-15705,-3013,113,6,369
63,455,830195,-4487,-15724,-3236,108,38,370
63,456,830200,-4329,-15761,-3064,105,63,378
63,457,830205,-4180,-15825,-2875,103,62,379
63,458,830210,-4203,-16005,-3098,106,50,382
63,459,830215,-4304,-15976,-3408,106,58,377
63,460,830220,-4592,-15697,-3345,100,79,373
63,461,830225,-4781,-15468,-3092,97,75,371
63,462,830230,-4852,-15408,-3147,99,59,375
63,463,830235,-4702,-15539,-3347,103,59,378
63,464,830240,-4552,-15635,-3155,104,87,376
63,465,830245,-4524,-15574,-2718,101,97,367
63,466,830250,-4682,-15529,-2655,103,55,364
63,467,830255,-4728,-15558,-2973,108,2,371
63,468,830260,-4634,-15542,-3100,105,-21,369
63,469,830265,-4610,-15439,-2960,104,-14,365
63,470,830270,-4622,-15444,-2840,106,-13,365
63,471,830275,-4395,-15526,-2788,106,-18,366
63,472,830280,-4317,-15723,-2788,104,-20,362
63,473,830285,-4217,-15861,-2715,103,-17,362
63,474,830290,-4216,-15939,-2738,103,-20,360
63,475,830295,-4258,-15983,-3164,106,-27,359
63,476,830300,-4266,-15966,-3605,105,-15,354
63,477,830305,-4428,-15873,-3608,99,19,346
63,478,830310,-4618,-15781,-3222,93,42,341
63,479,830315,-4574,-15734,-3048,94,39,341
63,480,830320,-4181,-15765,-3242,99,43,341
63,481,830325,-3903,-15738,-3199,102,58,335
63,482,830330,-4019,-15737,-2929,101,56,326
63,483,830335,-4131,-15775,-2905,103,8,327
63,484,830340,-3995,-15759,-3310,104,-34,334
63,485,830345,-3862,-15588,-3472,105,-25,325
63,486,830350,-4025,-15475,-2985,99,3,311
63,487,830355,-4389,-15426,-2463,102,-13,306
63,488,830360,-4349,-15485,-2666,106,-69,313
63,489,830365,-4009,-15597,-3195,102,-91,314
63,490,830370,-3702,-15640,-3255,96,-55,307
63,491,830375,-3664,-15618,-2921,91,-25,294
63,492,830380,-3927,-15557,-2799,95,-39,289
63,493,830385,-4094,-15529,-3228,97,-64,289
63,494,830390,-4143,-15553,-3897,93,-44,285
63,495,830395,-3878,-15397,-4100,86,36,271
63,496,830400,-3759,-15396,-3506,78,101,257
63,497,830405,-3912,-15471,-2919,77,86,247
63,498,830410,-3873,-15675,-3331,84,22,253
63,499,830415,-3589,-15704,-3891,83,18,246
63,500,830420,-3496,-15642,-3609,72,68,226
63,501,830425,-3477,-15525,-3032,67,73,213
63,502,830430,-3618,-15550,-2751,69,9,209
63,503,830435,-3802,-15539,-3092,74,-68,209
63,504,830440,-3619,-15592,-3667,76,-98,209
63,505,830445,-3385,-15583,-3615,65,-62,200
63,506,830450,-3344,-15660,-3352,57,-31,184
63,507,830455,-3285,-15688,-3311,57,-28,179
63,508,830460,-3188,-15550,-3370,51,35,162
63,509,830465,-3151,-15501,-3206,45,69,152
63,510,830470,-3078,-15494,-3047,36,62,142
63,511,830475,-3058,-15467,-3072,33,13,136
63,512,830480,-3010,-15504,-3486,31,-33,135
63,513,830485,-2946,-15498,-3893,26,-37,127
63,514,830490,-2970,-15428,-3983,22,-17,115
63,515,830495,-3013,-15417,-3839,14,0,104
63,516,830500,-2894,-15446,-3759,13,7,97
63,517,830505,-2763,-15504,-3671,9,23,86
63,518,830510,-2734,-15496,-3423,5,56,71
63,519,830515,-2755,-15373,-3210,5,79,57
63,520,830520,-2813,-15378,-3113,-1,77,44
63,521,830525,-2830,-15427,-3184,-6,54,35
63,522,830530,-2678,-15462,-3337,-9,23,28
63,523,830535,-2580,-15442,-3539,-11,13,16
63,524,830540,-2590,-15441,-3879,-14,20,5
63,525,830545,-2645,-15411,-3981,-20,39,-12
63,526,830550,-2588,-15400,-3935,-28,49,-24
63,527,830555,-2429,-15445,-3795,-32,50,-35
63,528,830560,-2325,-15505,-3718,-33,52,-46
63,529,830565,-2247,-15499,-3765,-33,60,-60
63,530,830570,-2275,-15463,-3753,-38,70,-76
63,531,830575,-2392,-15345,-3618,-40,51,-94
63,532,830580,-2367,-15295,-3614,-43,-3,-101
63,533,830585,-2036,-15427,-3835,-43,-48,-107
63,534,830590,-1712,-15632,-4041,-48,-50,-125
63,535,830595,-1745,-15635,-4145,-48,-30,-146
63,536,830600,-1987,-15567,-4183,-56,-14,-168
63,537,830605,-2098,-15513,-4202,-61,0,-185
63,538,830610,-2101,-15506,-4315,-61,26,-198
63,539,830615,-1936,-15491,-4235,-69,82,-218
63,540,830620,-1926,-15413,-3630,-78,126,-243
63,541,830625,-1958,-15393,-3207,-76,93,-260
63,542,830630,-1909,-15432,-3528,-72,20,-267
63,543,830635,-1729,-15402,-4058,-71,-11,-280
63,544,830640,-1652,-15309,-4166,-80,4,-300
63,545,830645,-1743,-15365,-4040,-86,4,-319
63,546,830650,-1706,-15501,-4098,-89,-36,-331
63,547,830655,-1518,-15548,-4549,-92,-70,-343
63,548,830660,-1363,-15630,-4944,-97,-60,-364
63,549,830665,-1351,-15723,-4704,-104,-28,-391
63,550,830670,-1601,-15808,-3929,-111,-23,-414
63,551,830675,-1759,-15901,-3499,-113,-68,-430
63,552,830680,-1427,-16017,-3722,-110,-91,-439
63,553,830685,-936,-16043,-3945,-112,-54,-453
63,554,830690,-726,-16219,-3742,-122,-13,-479
63,555,830695,-919,-16384,-3571,-127,-28,-504
63,556,830700,-982,-16412,-3995,-132,-81,-515
63,557,830705,-753,-16358,-4543,-142,-77,-526
63,558,830710,-687,-16311,-4435,-156,-3,-554
63,559,830715,-932,-16418,-3715,-165,41,-577
63,560,830720,-925,-16435,-3615,-163,-2,-588
63,561,830725,-706,-16440,-4210,-162,-38,-601
63,562,830730,-794,-16410,-4496,-170,-11,-622
63,563,830735,-969,-16335,-4307,-179,17,-647
63,564,830740,-1122,-16400,-4314,-183,-3,-664
63,565,830745,-1148,-16548,-4613,-188,-41,-677
63,566,830750,-1037,-16521,-4790,-195,-46,-696
63,567,830755,-954,-16523,-4630,-196,-16,-717
63,568,830760,-834,-16574,-4415,-197,-10,-736
63,569,830765,-849,-16547,-4103,-204,-37,-759
63,570,830770,-866,-16699,-3919,-210,-76,-779
63,571,830775,-790,-16834,-4105,-213,-84,-795
63,572,830780,-819,-16891,-4078,-221,-51,-812
63,573,830785,-567,-16981,-3921,-232,-20,-833
63,574,830790,-183,-17155,-3963,-237,-7,-855
63,575,830795,-282,-17350,-4112,-242,5,-878
63,576,830800,-593,-17195,-4089,-250,18,-900
63,577,830805,-622,-17030,-4195,-258,11,-910
63,578,830810,-516,-17031,-4187,-271,-9,-929
63,579,830815,-466,-17282,-4215,-277,-29,-946
63,580,830820,-383,-17548,-4288,-282,-44,-962
63,581,830825,-247,-17357,-3598,-296,-35,-999
63,582,830830,-401,-17384,-3665,-296,-61,-1018
63,583,830835,-673,-17480,-3995,-296,-84,-1035
63,584,830840,-885,-17529,-4377,-302,-89,-1045
63,585,830845,-903,-17564,-4514,-307,-64,-1059
63,586,830850,-1151,-17541,-4442,-310,-35,-1080
63,587,830855,-1302,-17442,-4738,-312,-39,-1097
63,588,830860,-1370,-17283,-4831,-318,-53,-1113
63,589,830865,-1532,-17090,-4479,-331,-63,-1140
63,590,830870,-1886,-17193,-4065,-331,-87,-1151
63,591,830875,-1733,-17366,-4303,-332,-112,-1162
63,592,830880,-1437,-17534,-4266,-338,-105,-1176
63,593,830885,-1275,-17652,-3859,-343,-96,-1192
63,594,830890,-1280,-17628,-3542,-349,-113,-1208
63,595,830895,-1673,-17474,-3631,-352,-154,-1226
63,596,830900,-1913,-17308,-4150,-354,-184,-1238
63,597,830905,-1750,-17290,-4631,-362,-168,-1245
63,598,830910,-1762,-17497,-4350,-370,-91,-1261
63,599,830915,-273,-5904,-10235,-399,-32,-1233
63,600,830920,-17477,-5915,14122,-297,314,-1367
63,601,830925,375,-12000,-4255,-225,-464,-546
63,602,830930,11829,-17536,-20276,-120,-30,-379
63,603,830935,-1463,-21686,6227,-363,2581,-1461
63,604,830940,-3510,-18478,7542,-284,409,-1159
63,605,830945,-149,-16540,-3669,-153,-1448,-729
63,606,830950,-5262,-14465,-11084,-214,-916,-963
63,607,830955,-3958,-17502,-10514,-291,-98,-929
63,608,830960,-3629,-16298,-432,-364,759,-1067
63,609,830965,-1486,-15353,-695,-286,314,-1014
63,610,830970,29,-17738,-4925,-211,-195,-896
63,611,830975,-1561,-17204,-6991,-240,-35,-1005
63,612,830980,-2956,-16506,-4486,-274,303,-1039
63,613,830985,-3087,-16238,-2312,-296,382,-1032
63,614,830990,-2712,-16293,-2851,-289,178,-1025
63,615,830995,-1894,-17318,-4793,-269,17,-991
63,616,831000,-1964,-17209,-5078,-271,232,-1035
63,617,831005,-2183,-17050,-4039,-262,504,-1054
63,618,831010,-1989,-16896,-2722,-252,539,-1048
63,619,831015,-1621,-16838,-2774,-244,315,-1025
63,620,831020,-1211,-16981,-3579,-242,95,-999
63,621,831025,-1216,-16940,-3814,-251,83,-994
63,622,831030,-1402,-16943,-3513,-247,153,-990
63,623,831035,-1527,-16666,-2937,-240,154,-981
63,624,831040,-1396,-16554,-3351,-221,35,-958
63,625,831045,-1206,-16631,-4478,-214,-51,-941
63,626,831050,-1243,-16597,-4949,-218,4,-934
63,627,831055,-1359,-16553,-4539,-222,113,-928
63,628,831060,-1315,-16461,-4027,-226,163,-919
63,629,831065,-908,-16418,-4149,-215,170,-907
63,630,831070,-740,-16346,-4100,-209,213,-898
63,631,831075,-847,-16291,-3646,-202,252,-889
63,632,831080,-985,-16118,-3133,-198,231,-871
63,633,831085,-880,-16005,-3213,-193,159,-849
63,634,831090,-692,-15940,-3585,-191,81,-827
63,635,831095,-524,-15911,-3599,-192,40,-810
63,636,831100,-430,-15986,-3483,-187,7,-791
63,637,831105,-146,-15934,-3984,-173,-32,-768
63,638,831110,-291,-15958,-4521,-163,-38,-752
63,639,831115,-683,-15890,-4960,-163,-15,-741
63,640,831120,-929,-15931,-4793,-167,50,-728
63,641,831125,-958,-16009,-4142,-167,108,-713
63,642,831130,-504,-16066,-3851,-163,116,-695
63,643,831135,-136,-16122,-3770,-156,124,-690
63,644,831140,-168,-16196,-3497,-151,121,-686
63,645,831145,-264,-16056,-3278,-148,75,-671
63,646,831150,-233,-15890,-3623,-145,13,-649
63,647,831155,-14,-15785,-4343,-140,0,-634
63,648,831160,23,-15721,-4556,-141,46,-628
63,649,831165,-180,-15786,-4258,-143,84,-622
63,650,831170,-317,-15720,-3983,-143,73,-612
63,651,831175,-299,-15597,-4039,-139,38,-600
63,652,831180,-306,-15597,-4080,-134,16,-593
63,653,831185,-526,-15624,-3636,-134,-5,-587
63,654,831190,-417,-15743,-4283,-121,-137,-549
63,655,831195,-242,-15785,-4894,-120,-106,-548
63,656,831200,-365,-15803,-4791,-119,-18,-554
63,657,831205,-512,-15754,-4485,-116,52,-551
63,658,831210,-526,-15645,-4240,-116,82,-544
63,659,831215,8,-15436,-4290,-111,73,-531
63,660,831220,347,-15562,-4246,-109,82,-530
63,661,831225,440,-15819,-3912,-110,89,-528
63,662,831230,382,-15780,-3428,-108,71,-521
63,663,831235,245,-15611,-3386,-106,19,-516
63,664,831240,198,-15623,-3793,-99,-42,-504
63,665,831245,291,-15596,-3927,-97,-80,-492
63,666,831250,263,-15517,-3995,-99,-104,-482
63,667,831255,-6,-15565,-4302,-92,-119,-475
63,668,831260,-120,-15443,-4557,-93,-107,-469
63,669,831265,-124,-15242,-4278,-98,-73,-460
63,670,831270,-60,-15263,-3813,-89,-53,-455
63,671,831275,-17,-15433,-3840,-82,-71,-442
63,672,831280,152,-15455,-4121,-80,-100,-433
63,673,831285,214,-15388,-4233,-84,-102,-418
63,674,831290,423,-15395,-3962,-86,-90,-414
63,675,831295,508,-15401,-3634,-86,-95,-407
63,676,831300,728,-15349,-3987,-80,-147,-394
63,677,831305,609,-15480,-4104,-80,-178,-384
63,678,831310,532,-15658,-4024,-81,-209,-374
63,679,831315,376,-15528,-4006,-83,-226,-364
63,680,831320,297,-15261,-4098,-83,-217,-357
63,681,831325,167,-15123,-4056,-81,-194,-346
63,682,831330,274,-15067,-3824,-81,-202,-331
63,683,831335,466,-15053,-3763,-80,-263,-313
63,684,831340,836,-15119,-4099,-72,-330,-297
63,685,831345,835,-15218,-4280,-74,-351,-290
63,686,831350,537,-15218,-4363,-72,-350,-283
63,687,831355,463,-15050,-4672,-70,-337,-262
63,688,831360,698,-14956,-5152,-67,-293,-249
63,689,831365,985,-15059,-5198,-68,-213,-240
63,690,831370,1274,-15164,-4671,-67,-130,-232
63,691,831375,1406,-15253,-4294,-66,-113,-221
63,692,831380,1522,-15197,-4507,-61,-157,-204
63,693,831385,1686,-15158,-4888,-59,-198,-183
63,694,831390,1668,-15300,-5079,-62,-211,-177
63,695,831395,1546,-15380,-5041,-62,-195,-169
63,696,831400,1405,-15281,-4729,-59,-165,-161
63,697,831405,1348,-15121,-4798,-56,-138,-150
63,698,831410,1496,-15127,-5067,-52,-108,-135
63,699,831415,1639,-15100,-4918,-53,-78,-125
63,700,831420,1677,-15148,-4652,-52,-82,-117
63,701,831425,1741,-15183,-4624,-46,-111,-103
63,702,831430,1782,-15160,-5115,-40,-122,-96
63,703,831435,1707,-15078,-5095,-40,-80,-89
63,704,831440,1719,-15006,-4486,-42,-49,-82
63,705,831445,1998,-15005,-4159,-36,-91,-65
63,706,831450,2188,-15098,-4507,-28,-161,-45
63,707,831455,2274,-15174,-5165,-25,-204,-35
63,708,831460,2357,-15190,-5540,-25,-196,-25
63,709,831465,2541,-15129,-5679,-28,-183,-23
63,710,831470,2387,-14995,-5501,-31,-185,-21
63,711,831475,2003,-14942,-5362,-28,-213,-19
63,712,831480,2001,-15006,-5692,-17,-245,-2
63,713,831485,2533,-14907,-6715,-6,-225,13
63,714,831490,2856,-15336,-6103,-17,-118,-2
63,715,831495,2381,-15289,-4611,-22,-65,-14
63,716,831500,2749,-15109,-5500,-9,-107,2
63,717,831505,2594,-15105,-5105,-9,-48,1
63,718,831510,2532,-15150,-5213,-8,-34,5
63,719,831515,2633,-15163,-5059,-6,-17,14
63,720,831520,2870,-15157,-5602,-8,3,21
63,721,831525,2875,-15073,-5832,-12,68,15
63,722,831530,2879,-15146,-5818,-15,121,15
63,723,831535,2945,-15099,-5240,-22,156,15
63,724,831540,3150,-15084,-5080,-24,122,22
63,725,831545,3285,-15046,-5143,-23,92,26
63,726,831550,3247,-14919,-5224,-22,79,27
63,727,831555,3064,-14880,-5172,-21,73,35
63,728,831560,3232,-15031,-4966,-21,68,43
63,729,831565,3498,-15057,-4791,-22,82,43
63,730,831570,3539,-15073,-4457,-22,76,42
63,731,831575,3520,-15142,-4365,-23,12,47
63,732,831580,3615,-15078,-4747,-23,-82,58
63,733,831585,3691,-14996,-5437,-24,-138,62
63,734,831590,3541,-15000,-5774,-28,-108,55
63,735,831595,3456,-14947,-5651,-31,-45,52
63,736,831600,3393,-14935,-5497,-37,-9,53
63,737,831605,3358,-14941,-5369,-39,-15,54
63,738,831610,3523,-14779,-5427,-34,-27,57
63,739,831615,3458,-14817,-5483,-31,-19,57
63,740,831620,3346,-14948,-5396,-33,-13,56
63,741,831625,3388,-14986,-5289,-33,-30,62
63,742,831630,3197,-15078,-5286,-31,-59,58
63,743,831635,3075,-15187,-5533,-28,-70,59
63,744,831640,3256,-15289,-5716,-28,-46,64
63,745,831645,3427,-15397,-5636,-32,11,55
63,746,831650,3579,-15453,-5386,-31,55,57
63,747,831655,3845,-15341,-5402,-32,47,56
63,748,831660,3838,-15268,-5574,-32,34,54
63,749,831665,3694,-15364,-5592,-33,38,49
63,750,831670,3511,-15282,-5390,-34,56,50
63,751,831675,3580,-15235,-5448,-33,57,52
63,752,831680,3906,-15219,-5453,-32,70,53
63,753,831685,3946,-15447,-5396,-30,71,46
63,754,831690,3791,-15420,-4894,-33,60,36
63,755,831695,3636,-15086,-4955,-33,25,36
63,756,831700,3390,-15042,-5186,-29,17,37
63,757,831705,3441,-15066,-5292,-26,19,40
63,758,831710,3503,-15054,-4915,-30,25,40
63,759,831715,3409,-15210,-4801,-31,-2,37
63,760,831720,3358,-15239,-4951,-28,-53,38
63,761,831725,3374,-15186,-5262,-30,-92,43
63,762,831730,3496,-15217,-5400,-31,-98,46
63,763,831735,3809,-15232,-5567,-25,-93,43
63,764,831740,4028,-15239,-5716,-26,-80,38
63,765,831745,3980,-15397,-5921,-26,-56,32
63,766,831750,3714,-15415,-5968,-25,-16,23
63,767,831755,3412,-15215,-5913,-30,24,19
63,768,831760,3210,-15038,-5594,-27,59,11
63,769,831765,3218,-15060,-5347,-25,73,11
63,770,831770,3454,-15223,-5244,-20,73,10
63,771,831775,3753,-15266,-5160,-17,57,5
63,772,831780,3805,-15264,-5067,-16,27,-2
63,773,831785,3612,-15274,-5181,-13,-23,0
63,774,831790,3452,-15189,-5487,-13,-46,-1
63,775,831795,3392,-15040,-5660,-12,-17,-5
63,776,831800,3394,-15129,-5745,-12,31,-5
63,777,831805,3583,-15227,-5502,-13,65,-1
63,778,831810,3836,-15289,-4960,-17,58,-6
63,779,831815,3744,-15354,-4613,-14,12,-9
63,780,831820,3492,-15449,-4764,-7,-66,-13
63,781,831825,3470,-15367,-5305,-3,-115,-7
63,782,831830,3527,-15307,-5631,-6,-115,-5
63,783,831835,3448,-15466,-5340,-7,-105,-11
63,784,831840,3608,-15361,-5408,-3,-123,-13
63,785,831845,3708,-15315,-5731,2,-111,-15
63,786,831850,3515,-15355,-5940,5,-68,-19
63,787,831855,3387,-15295,-5665,0,-24,-25
63,788,831860,3506,-15169,-5174,-2,-15,-27
63,789,831865,3589,-15196,-4991,4,-32,-26
63,790,831870,3636,-15299,-5396,10,-51,-21
63,791,831875,3606,-15297,-5555,13,-32,-20
63,792,831880,3524,-15156,-5650,9,-8,-25
63,793,831885,3434,-14981,-5562,10,15,-24
63,794,831890,3396,-14841,-5572,10,32,-25
63,795,831895,3298,-14822,-5526,11,45,-26
63,796,831900,3373,-14897,-5536,12,43,-23
63,797,831905,3483,-14937,-5404,14,46,-22
63,798,831910,3417,-15050,-5387,14,35,-22
63,799,831915,3349,-15038,-5217,14,26,-20
63,800,831920,3418,-14987,-4954,14,27,-18
63,801,831925,3403,-15039,-4904,16,41,-24
63,802,831930,3191,-14993,-4890,13,22,-22
63,803,831935,3376,-15064,-5055,14,-28,-20
63,804,831940,3523,-15242,-5272,10,-68,-15
63,805,831945,3617,-15317,-5165,10,-76,-14
63,806,831950,3563,-15317,-5098,11,-60,-17
63,807,831955,3419,-15305,-5455,14,-36,-16
63,808,831960,3331,-15179,-5479,9,0,-11
63,809,831965,3257,-15092,-5181,1,11,-12
63,810,831970,3205,-15070,-4889,2,-12,-12
63,811,831975,3112,-15092,-5155,7,-52,-10
63,812,831980,3005,-15064,-5573,11,-71,-8
63,813,831985,2826,-15028,-5751,10,-64,-8
63,814,831990,2809,-15009,-5620,7,-56,-9
63,815,831995,3007,-15037,-5370,8,-42,-13
63,816,832000,3111,-15173,-5254,9,-32,-16
63,817,832005,3015,-15253,-5321,12,-23,-18
63,818,832010,3090,-15202,-5547,11,-15,-15
63,819,832015,3189,-15219,-5626,5,4,-17
63,820,832020,3059,-15369,-5362,5,29,-22
63,821,832025,3101,-15366,-5192,3,44,-25
63,822,832030,3267,-15194,-5280,5,59,-22
63,823,832035,3195,-15145,-5116,1,66,-23
63,824,832040,2945,-15050,-4811,-1,33,-27
63,825,832045,2955,-14967,-4810,-2,-24,-22
63,826,832050,3165,-14898,-5366,5,-57,-17
63,827,832055,3102,-15013,-5612,5,-36,-19
63,828,832060,3053,-14971,-5320,0,-12,-18
63,829,832065,3126,-14942,-5242,2,-30,-13
63,830,832070,3050,-15093,-5551,4,-59,-11
63,831,832075,2968,-15152,-5434,0,-61,-15
63,832,832080,2984,-15022,-5065,-3,-58,-15
63,833,832085,2947,-14939,-5048,5,-61,-9
63,834,832090,3064,-15033,-5390,6,-66,-5
63,835,832095,3222,-15154,-5610,7,-64,-4
63,836,832100,3366,-15363,-5723,5,-74,-2
63,837,832105,3382,-15429,-5683,2,-78,-3
63,838,832110,3178,-15419,-5554,-2,-74,-3
63,839,832115,3160,-15376,-5527,-4,-57,-4
63,840,832120,3226,-15322,-5590,-2,-13,-2
63,841,832125,3233,-15347,-5516,-1,30,-8
63,842,832130,3164,-15329,-5386,-6,49,-12
63,843,832135,3320,-15127,-5283,-10,39,-11
63,844,832140,3253,-15125,-5262,-5,23,-5
63,845,832145,3059,-15204,-5180,-3,9,-7
63,846,832150,2962,-15203,-5122,-4,-1,-2
63,847,832155,3091,-15184,-5191,-4,-9,1
63,848,832160,3016,-15220,-5151,-3,-11,0
63,849,832165,3239,-15174,-5138,-6,-15,4
63,850,832170,3412,-15129,-5190,-3,-24,8
63,851,832175,3543,-15226,-5339,-1,-40,9
63,852,832180,3521,-15132,-5307,-4,-57,4
63,853,832185,3480,-15006,-5528,-7,-75,4
63,854,832190,3497,-15012,-5827,-4,-72,12
63,855,832195,3594,-15028,-5751,-6,-37,11
63,856,832200,3615,-15147,-5342,-10,-8,11
63,857,832205,3758,-15349,-5362,-5,-6,14
63,858,832210,3836,-15492,-5622,-4,-4,11
63,859,832215,3643,-15537,-5679,-6,10,7
63,860,832220,3289,-15400,-5409,-9,23,7
63,861,832225,3230,-15192,-5298,-10,25,11
63,862,832230,3325,-15124,-5462,-6,23,16
63,863,832235,3289,-15273,-5482,-2,25,11
63,864,832240,3268,-15356,-5344,0,19,12
63,865,832245,3350,-15255,-5438,1,-3,5
63,866,832250,3259,-15127,-5456,3,-15,0
63,867,832255,3016,-15056,-5383,3,-13,0
63,868,832260,3009,-14901,-5282,4,-5,-4
63,869,832265,3135,-14856,-5496,7,6,1
63,870,832270,3413,-14952,-5577,4,23,0
63,871,832275,3559,-14904,-5206,-3,25,-11
63,872,832280,3431,-15020,-5014,-1,-5,-13
63,873,832285,3312,-15112,-5202,1,-45,-15
63,874,832290,3171,-15131,-5311,5,-50,-17
63,875,832295,3257,-15186,-5251,3,-46,-18
63,876,832300,3328,-15113,-5371,1,-34,-21
63,877,832305,3167,-15273,-5422,5,-22,-24
63,878,832310,3158,-15340,-5375,0,-23,-25
63,879,832315,3278,-15269,-5200,0,-40,-26
63,880,832320,3193,-15352,-5177,2,-69,-29
63,881,832325,3233,-15457,-5587,2,-90,-27
63,882,832330,3322,-15410,-5712,3,-75,-30
63,883,832335,3156,-15406,-5584,0,-45,-38
63,884,832340,3007,-15368,-5413,3,-32,-40
63,885,832345,3134,-15365,-5449,5,-41,-36
63,886,832350,3246,-15468,-5556,7,-49,-37
63,887,832355,3377,-15464,-5436,5,-50,-40
63,888,832360,3391,-15379,-5389,9,-51,-42
63,889,832365,3294,-15406,-5608,12,-51,-40
63,890,832370,3378,-15336,-5807,7,-31,-40
63,891,832375,3489,-15297,-5557,2,5,-44
63,892,832380,3455,-15320,-5102,0,24,-48
63,893,832385,3322,-15260,-4890,-2,5,-50
63,894,832390,3187,-15207,-4846,0,-25,-47
63,895,832395,3198,-15142,-4955,0,-46,-45
63,896,832400,3397,-15129,-5162,-2,-55,-41
63,897,832405,3425,-15227,-5251,-3,-63,-43
63,898,832410,3268,-15180,-5401,-2,-73,-45
63,899,832415,3202,-15048,-5582,-4,-80,-45
63,900,832420,3049,-15010,-5671,-5,-74,-44
63,901,832425,3072,-15053,-5607,-6,-61,-40
63,902,832430,3204,-15074,-5423,-6,-56,-34
63,903,832435,3419,-15096,-5281,-7,-64,-35
63,904,832440,3348,-15170,-5450,-5,-74,-38
63,905,832445,3159,-15195,-5697,-3,-80,-41
63,906,832450,2919,-15123,-5728,-4,-80,-40
63,907,832455,2980,-15096,-5690,-8,-55,-38
63,908,832460,3151,-15168,-5693,-8,-1,-38
63,909,832465,3240,-15266,-5520,-8,66,-36
63,910,832470,3282,-15254,-5243,-9,105,-38
63,911,832475,3259,-15168,-5051,-9,94,-35
63,912,832480,3284,-15095,-5187,-7,48,-33
63,913,832485,3327,-15051,-5313,-10,8,-27
63,914,832490,3364,-15036,-5323,-9,-12,-22
63,915,832495,3326,-14970,-5203,-8,-21,-21
63,916,832500,3351,-14930,-5266,-6,-28,-19
63,917,832505,3277,-14986,-5283,-8,-30,-13
63,918,832510,3220,-14988,-5292,-12,-35,-15
63,919,832515,3167,-14974,-5237,-12,-42,-11
63,920,832520,3157,-14980,-5403,-12,-47,-9
63,921,832525,3191,-14928,-5413,-12,-41,-6
63,922,832530,3028,-15008,-5323,-11,-41,-4
63,923,832535,2844,-15043,-5302,-8,-61,0
63,924,832540,2934,-15008,-5520,-5,-89,3
63,925,832545,3005,-15092,-5606,-5,-94,7
63,926,832550,2864,-15178,-5524,-9,-80,3
63,927,832555,2788,-15107,-5544,-7,-62,6
63,928,832560,2842,-15082,-5637,-8,-34,5
63,929,832565,3049,-15123,-5678,-7,-4,0
63,930,832570,3298,-15111,-5572,-5,12,-2
63,931,832575,3404,-15213,-5462,-2,-4,1
63,932,832580,3390,-15194,-5676,0,-32,0
63,933,832585,3189,-15131,-5716,-2,-43,-1
63,934,832590,3045,-15028,-5625,-1,-33,0
63,935,832595,3009,-15085,-5533,1,-1,1
63,936,832600,3054,-15040,-5368,2,30,0
63,937,832605,3136,-14940,-5251,2,43,-1
63,938,832610,3300,-14993,-5433,6,27,4
63,939,832615,3433,-15129,-5509,6,-6,8
63,940,832620,3290,-15140,-5220,1,-48,2
63,941,832625,3125,-15075,-5207,5,-96,9
63,942,832630,3132,-15124,-5613,8,-102,12
63,943,832635,3273,-15142,-5973,10,-65,16
63,944,832640,3479,-15276,-5849,7,-3,18
63,945,832645,3577,-15298,-5670,4,29,13
63,946,832650,3560,-15224,-5422,0,30,6
63,947,832655,3428,-15152,-5394,-1,18,5
63,948,832660,3336,-15025,-5242,3,-1,12
63,949,832665,3360,-15027,-5296,3,-19,10
63,950,832670,3261,-14924,-5433,8,-42,8
63,951,832675,3194,-14998,-5548,9,-55,9
63,952,832680,3349,-15000,-5573,8,-57,8
63,953,832685,3450,-15108,-5542,8,-53,7
63,954,832690,3376,-15197,-5536,9,-43,7
63,955,832695,3300,-15209,-5602,7,-28,7
63,956,832700,3167,-15158,-5607,10,-8,5
63,957,832705,3175,-15117,-5547,7,12,2
63,958,832710,3282,-15158,-5426,3,19,6
63,959,832715,3401,-15167,-5259,1,-2,8
63,960,832720,3481,-15185,-5365,0,-37,6
63,961,832725,3468,-15197,-5502,0,-59,5
63,962,832730,3547,-15178,-5567,0,-58,7
63,963,832735,3491,-15226,-5496,-2,-33,3
63,964,832740,3485,-15204,-5608,-2,-6,3
63,965,832745,3510,-15169,-5613,-1,24,4
63,966,832750,3532,-15261,-5503,-7,44,0
63,967,832755,3553,-15322,-5288,-9,45,2
63,968,832760,3639,-15293,-5214,-7,27,1
63,969,832765,3482,-15225,-5185,-8,14,0
63,970,832770,3333,-15136,-5171,-10,2,1
63,971,832775,3278,-15097,-5169,-10,-3,0
63,972,832780,3259,-15104,-5421,-9,-10,4
63,973,832785,3252,-15136,-5595,-8,-6,1
63,974,832790,3264,-15020,-5603,-11,-1,2
63,975,832795,3373,-14923,-5599,-13,-5,4
63,976,832800,3438,-14998,-5559,-14,-10,5
63,977,832805,3439,-15011,-5396,-12,-14,1
63,978,832810,3537,-14976,-5467,-9,-20,-4
63,979,832815,3286,-15027,-5431,-10,-21,-8
63,980,832820,3140,-15058,-5348,-12,-39,-5
63,981,832825,3307,-15085,-5442,-8,-49,-1
63,982,832830,3501,-15254,-5684,-2,-43,4
63,983,832835,3592,-15242,-5710,-7,-23,1
63,984,832840,3398,-15172,-5508,-12,-10,-3
63,985,832845,3149,-15163,-5509,-10,-18,-3
63,986,832850,3153,-15058,-5586,-9,-19,-2
63,987,832855,3256,-14974,-5463,-10,1,-3
63,988,832860,3223,-15012,-5385,-11,18,-5
63,989,832865,3160,-15022,-5291,-8,14,-8
63,990,832870,3322,-14939,-5314,-6,-7,-7
63,991,832875,3448,-14938,-5593,-5,-23,-4
63,992,832880,3323,-15063,-5670,-2,-22,-6
63,993,832885,3109,-14990,-5651,-3,-19,-13
63,994,832890,2995,-14875,-5522,-6,-9,-14
63,995,832895,2929,-14907,-5533,-3,11,-14
63,996,832900,3005,-15002,-5480,-3,32,-12
63,997,832905,3155,-15059,-5201,-2,38,-11
63,998,832910,3226,-15203,-4885,-5,9,-12
63,999,832915,3488,-15374,-4868,-2,-41,-11
