event_id,seq,ts_us,ax,ay,az,gx,gy,gz
1,0,36739,1363,-15872,-3786,8,-16,-3
1,1,36744,1226,-15838,-3649,14,-3,-3
1,2,36749,1221,-15782,-3652,11,-3,-4
1,3,36754,1336,-15796,-3696,7,1,-4
1,4,36759,1374,-15754,-3684,9,10,-3
1,5,36764,1404,-15844,-3672,8,13,-3
1,6,36769,1414,-15916,-3708,5,19,0
1,7,36774,1315,-15967,-3641,4,30,0
1,8,36779,1279,-15962,-3596,6,31,1
1,9,36784,1272,-15895,-3593,7,30,2
1,10,36789,1228,-15859,-3579,3,32,0
1,11,36794,1264,-15847,-3684,-1,29,2
1,12,36799,1268,-15882,-3800,1,27,4
1,13,36804,1339,-15834,-3758,6,23,0
1,14,36809,1413,-15815,-3688,7,18,-2
1,15,36814,1368,-15763,-3655,6,16,3
1,16,36819,1239,-15810,-3654,3,13,4
1,17,36824,1225,-15838,-3643,2,2,2
1,18,36829,1238,-15854,-3698,6,-17,-1
1,19,36834,1299,-15853,-3597,7,-32,-3
1,20,36839,1236,-15866,-3601,7,-45,-3
1,21,36844,1251,-15848,-3629,10,-57,-4
1,22,36849,1222,-15870,-3620,10,-65,-6
1,23,36854,1303,-15914,-3687,10,-68,-5
1,24,36859,1352,-15932,-3662,8,-63,-3
1,25,36864,1421,-16005,-3667,6,-56,-2
1,26,36869,1375,-16065,-3687,5,-42,1
1,27,36874,1324,-16040,-3703,5,-25,3
1,28,36879,1313,-15990,-3646,4,-11,1
1,29,36884,1367,-15972,-3701,1,7,5
1,30,36889,1338,-16040,-3734,-1,17,10
1,31,36894,1276,-16106,-3686,-2,24,11
1,32,36899,1211,-16104,-3623,0,25,9
1,33,36904,1173,-16067,-3607,0,25,8
1,34,36909,1202,-16032,-3731,-1,20,10
1,35,36914,1287,-16008,-3695,0,14,9
1,36,36919,1377,-15996,-3601,1,10,8
1,37,36924,1397,-15950,-3590,0,9,10
1,38,36929,1273,-15968,-3686,0,7,11
1,39,36934,1134,-15935,-3720,0,1,11
1,40,36939,1203,-15924,-3675,2,-8,9
1,41,36944,1287,-15949,-3660,2,-19,8
1,42,36949,1368,-15941,-3656,2,-28,7
1,43,36954,1402,-15878,-3615,4,-34,7
1,44,36959,1356,-15805,-3593,3,-36,8
1,45,36964,1234,-15789,-3582,4,-39,9
1,46,36969,1190,-15904,-3655,3,-41,12
1,47,36974,1104,-15983,-3587,2,-43,15
1,48,36979,1015,-16021,-3445,2,-41,11
1,49,36984,1291,-16069,-3683,-3,-46,5
1,50,36989,1411,-15979,-3854,1,-34,8
1,51,36994,1509,-15824,-3795,0,-9,11
1,52,36999,1528,-15816,-3837,-6,14,15
1,53,37004,1352,-15878,-3751,-7,38,21
1,54,37009,1150,-15850,-3719,-6,49,21
1,55,37014,1081,-15825,-3763,-4,47,20
1,56,37019,1065,-15842,-3685,-2,33,19
1,57,37024,1110,-15960,-3598,0,15,20
1,58,37029,1059,-16002,-3400,0,1,14
1,59,37034,1174,-16012,-3577,-1,-21,8
1,60,37039,1293,-15933,-3587,5,-30,5
1,61,37044,1402,-15839,-3445,6,-33,7
1,62,37049,1431,-15830,-3629,-3,-33,12
1,63,37054,1397,-15928,-3733,-6,-28,14
1,64,37059,1409,-15923,-3642,1,-26,13
1,65,37064,1464,-15885,-3629,0,-24,13
1,66,37069,1398,-15959,-3677,-4,-19,15
1,67,37074,1244,-16005,-3602,-4,-15,17
1,68,37079,1209,-15937,-3532,-2,-16,16
1,69,37084,1310,-15883,-3512,-1,-21,16
1,70,37089,1219,-15875,-3513,-5,-26,17
1,71,37094,1127,-15971,-3651,-7,-33,17
1,72,37099,1050,-16000,-3724,-3,-41,15
1,73,37104,1144,-15938,-3628,3,-47,9
1,74,37109,1285,-15867,-3618,4,-44,9
1,75,37114,1363,-15848,-3641,-1,-35,13
1,76,37119,1370,-15830,-3571,-3,-17,15
1,77,37124,1303,-15886,-3586,-3,-2,17
1,78,37129,1160,-15900,-3560,-7,8,18
1,79,37134,1086,-15931,-3540,-9,12,18
1,80,37139,1110,-15963,-3606,-7,6,18
1,81,37144,1089,-15926,-3573,-4,-3,17
1,82,37149,1179,-15915,-3480,-3,-14,11
1,83,37154,1192,-15969,-3577,-5,-25,12
1,84,37159,1106,-15960,-3695,-7,-31,13
1,85,37164,1081,-15961,-3697,-4,-38,12
1,86,37169,1192,-15946,-3671,2,-44,7
1,87,37174,1306,-15906,-3649,0,-42,8
1,88,37179,1316,-15959,-3723,-3,-37,12
1,89,37184,1305,-15966,-3810,-3,-30,12
1,90,37189,1202,-15982,-3727,1,-22,12
1,91,37194,1127,-16036,-3638,0,-17,12
1,92,37199,1037,-16065,-3614,-2,-14,14
1,93,37204,1083,-16105,-3599,-1,-10,14
1,94,37209,1131,-16066,-3621,-1,-5,14
1,95,37214,1169,-16073,-3621,0,3,15
1,96,37219,1093,-16113,-3674,-3,15,14
1,97,37224,1048,-16145,-3721,-4,26,14
1,98,37229,1080,-16087,-3658,0,37,14
1,99,37234,1071,-16092,-3538,1,46,14
1,100,37239,1054,-16102,-3577,-2,51,17
1,101,37244,977,-16075,-3571,-5,53,18
1,102,37249,880,-16113,-3568,-5,47,16
1,103,37254,843,-16077,-3545,-1,35,13
1,104,37259,998,-16014,-3561,3,20,11
1,105,37264,1197,-15964,-3638,3,6,11
1,106,37269,1278,-15953,-3725,2,0,12
1,107,37274,1374,-15983,-3733,5,-7,11
1,108,37279,1661,-15924,-3863,6,-16,10
1,109,37284,1756,-15883,-3978,7,-12,17
1,110,37289,1633,-15840,-3851,9,2,20
1,111,37294,1456,-15860,-3589,13,15,21
1,112,37299,1342,-15799,-3469,13,21,24
1,113,37304,1272,-15851,-3608,5,26,31
1,114,37309,1141,-15900,-3757,3,25,34
1,115,37314,1171,-15895,-3603,16,8,25
1,116,37319,1232,-15828,-3536,15,4,25
1,117,37324,1229,-15812,-3530,13,3,27
1,118,37329,1213,-15822,-3571,13,5,30
1,119,37334,1172,-15822,-3615,11,13,32
1,120,37339,1097,-15808,-3561,12,20,34
1,121,37344,1179,-15800,-3591,9,20,30
1,122,37349,1299,-15807,-3675,9,23,29
1,123,37354,1295,-15804,-3619,10,34,33
1,124,37359,1255,-15775,-3636,6,36,35
1,125,37364,1105,-15757,-3621,8,34,34
1,126,37369,1057,-15773,-3436,10,32,33
1,127,37374,1206,-15786,-3483,7,24,29
1,128,37379,1196,-15846,-3610,4,11,31
1,129,37384,1049,-15838,-3576,7,-2,30
1,130,37389,1038,-15820,-3529,10,-20,25
1,131,37394,1028,-15774,-3513,13,-36,22
1,132,37399,1004,-15791,-3586,13,-47,22
1,133,37404,1102,-15834,-3608,11,-54,21
1,134,37409,1189,-15834,-3609,12,-56,19
1,135,37414,1217,-15875,-3593,10,-54,20
1,136,37419,1193,-15970,-3662,5,-42,21
1,137,37424,1124,-16024,-3717,7,-28,21
1,138,37429,1200,-15972,-3679,9,-17,21
1,139,37434,1274,-15939,-3641,5,-2,22
1,140,37439,1203,-15979,-3656,0,11,24
1,141,37444,1106,-16035,-3626,-1,20,26
1,142,37449,986,-16038,-3606,1,20,24
1,143,37454,962,-16069,-3589,2,16,20
1,144,37459,1136,-16103,-3701,-1,11,19
1,145,37464,1197,-16139,-3741,0,8,21
1,146,37469,1195,-16144,-3689,2,8,19
1,147,37474,1171,-16092,-3665,3,7,17
1,148,37479,1131,-16046,-3682,2,11,18
1,149,37484,1012,-16104,-3748,1,11,20
1,150,37489,1052,-16080,-3708,2,6,18
1,151,37494,1087,-16067,-3560,4,4,15
1,152,37499,1094,-16088,-3514,4,2,15
1,153,37504,1118,-16089,-3632,0,0,15
1,154,37509,1113,-16124,-3746,0,-8,16
1,155,37514,1171,-16122,-3812,1,-15,14
1,156,37519,1149,-16116,-3729,3,-19,11
1,157,37524,1169,-16077,-3641,7,-24,8
1,158,37529,1234,-16035,-3613,7,-25,8
1,159,37534,1237,-15989,-3621,6,-19,9
1,160,37539,1132,-16027,-3518,3,-9,10
1,161,37544,1118,-16022,-3559,-2,1,12
1,162,37549,1150,-16006,-3656,-3,15,12
1,163,37554,1276,-15948,-3805,-2,26,13
1,164,37559,1373,-15878,-3830,-3,38,13
1,165,37564,1310,-15905,-3772,-3,49,15
1,166,37569,1089,-15869,-3613,-2,55,16
1,167,37574,997,-15815,-3500,-1,56,12
1,168,37579,1027,-15780,-3597,-1,49,13
1,169,37584,940,-15783,-3515,-2,44,18
1,170,37589,949,-15820,-3480,-8,32,13
1,171,37594,1148,-15866,-3681,-10,12,7
1,172,37599,1195,-15818,-3631,-1,8,6
1,173,37604,1244,-15835,-3558,-2,2,4
1,174,37609,1334,-15962,-3794,-12,-12,2
1,175,37614,1255,-15972,-3653,-6,-16,0
1,176,37619,1185,-15945,-3439,-3,-22,-1
1,177,37624,1175,-15941,-3483,-5,-29,-1
1,178,37629,1164,-15903,-3543,-5,-32,-1
1,179,37634,1171,-15870,-3543,-7,-39,-3
1,180,37639,1247,-15888,-3616,-12,-46,-4
1,181,37644,1185,-15919,-3661,-11,-50,-5
1,182,37649,1154,-15903,-3655,-11,-49,-7
1,183,37654,1121,-15876,-3612,-9,-46,-8
1,184,37659,1093,-15862,-3505,-9,-40,-11
1,185,37664,1098,-15896,-3596,-14,-30,-9
1,186,37669,1109,-15992,-3702,-20,-17,-4
1,187,37674,1061,-16003,-3746,-20,-7,-7
1,188,37679,1104,-16007,-3751,-18,6,-9
1,189,37684,1109,-15974,-3756,-20,20,-12
1,190,37689,1102,-15967,-3819,-20,33,-11
1,191,37694,1146,-15971,-3769,-21,43,-10
1,192,37699,1231,-15930,-3694,-21,48,-11
1,193,37704,1200,-16020,-3706,-23,51,-9
1,194,37709,1173,-16003,-3758,-26,48,-8
1,195,37714,1146,-15979,-3827,-23,35,-13
1,196,37719,1116,-15950,-3780,-19,19,-18
1,197,37724,1068,-15960,-3648,-15,5,-17
1,198,37729,1074,-15941,-3561,-17,-6,-22
1,199,37734,1130,-15921,-3565,-16,-13,-23
1,200,37739,1192,-15917,-3586,-18,-15,-22
1,201,37744,1218,-15949,-3787,-24,-15,-21
1,202,37749,1220,-16023,-3859,-24,-9,-23
1,203,37754,1157,-15985,-3674,-17,-1,-26
1,204,37759,1186,-15968,-3653,-16,8,-24
1,205,37764,1241,-15959,-3753,-23,20,-22
1,206,37769,1184,-16000,-3760,-27,32,-19
1,207,37774,1084,-16020,-3688,-24,40,-19
1,208,37779,1058,-16032,-3573,-22,45,-23
1,209,37784,1064,-16015,-3564,-22,50,-24
1,210,37789,1130,-16005,-3653,-25,52,-24
1,211,37794,1159,-15989,-3717,-28,55,-25
1,212,37799,1162,-16016,-3635,-26,52,-24
1,213,37804,1157,-15992,-3474,-23,49,-25
1,214,37809,1176,-15978,-3483,-25,43,-26
1,215,37814,1283,-15971,-3666,-27,31,-26
1,216,37819,1214,-15978,-3658,-26,18,-27
1,217,37824,1100,-15946,-3536,-21,3,-30
1,218,37829,1056,-15872,-3461,-18,-17,-33
1,219,37834,1143,-15861,-3521,-21,-27,-34
1,220,37839,1212,-15832,-3688,-26,-38,-31
1,221,37844,1258,-15815,-3743,-24,-48,-33
1,222,37849,1228,-15799,-3665,-21,-54,-36
1,223,37854,1177,-15843,-3616,-17,-51,-34
1,224,37859,1215,-15863,-3621,-18,-44,-34
1,225,37864,1267,-15854,-3646,-19,-35,-33
1,226,37869,1294,-15858,-3643,-22,-21,-29
1,227,37874,1306,-15895,-3681,-27,-5,-27
1,228,37879,1294,-15900,-3722,-27,11,-24
1,229,37884,1286,-15896,-3730,-25,26,-22
1,230,37889,1261,-15864,-3665,-23,38,-24
1,231,37894,1277,-15885,-3597,-25,43,-21
1,232,37899,1172,-15988,-3610,-28,47,-17
1,233,37904,1022,-15972,-3498,-26,41,-18
1,234,37909,1006,-15921,-3587,-22,26,-20
1,235,37914,1095,-15922,-3701,-24,11,-23
1,236,37919,1170,-15958,-3812,-23,-6,-23
1,237,37924,1226,-15951,-3731,-17,-21,-25
1,238,37929,1198,-15887,-3578,-11,-28,-27
1,239,37934,1185,-15828,-3500,-13,-30,-28
1,240,37939,1146,-15875,-3618,-20,-27,-25
1,241,37944,1124,-15893,-3767,-21,-24,-22
1,242,37949,1136,-15911,-3790,-16,-24,-21
1,243,37954,1218,-15836,-3656,-12,-21,-22
1,244,37959,1203,-15818,-3567,-12,-15,-22
1,245,37964,1113,-15873,-3646,-17,-8,-19
1,246,37969,1062,-15940,-3685,-18,-6,-19
1,247,37974,1047,-15935,-3687,-15,-9,-19
1,248,37979,1148,-15901,-3709,-12,-11,-21
1,249,37984,1186,-15951,-3703,-13,-9,-20
1,250,37989,1197,-15984,-3803,-14,-6,-17
1,251,37994,1141,-15991,-3785,-11,-1,-19
1,252,37999,1170,-15947,-3712,-8,5,-19
1,253,38004,1229,-15896,-3751,-10,15,-15
1,254,38009,1272,-15939,-3784,-13,25,-12
1,255,38014,1234,-15989,-3801,-14,35,-12
1,256,38019,1237,-15932,-3772,-9,37,-13
1,257,38024,1271,-15912,-3759,-8,32,-11
1,258,38029,1205,-15878,-3669,-7,29,-8
1,259,38034,1089,-15902,-3548,-5,21,-9
1,260,38039,1103,-15911,-3531,-4,7,-12
1,261,38044,1146,-15859,-3498,-2,-6,-10
1,262,38049,1142,-15834,-3626,-3,-20,-12
1,263,38054,1185,-15871,-3738,-3,-31,-11
1,264,38059,1238,-15815,-3734,2,-36,-12
1,265,38064,1288,-15769,-3655,7,-34,-12
1,266,38069,1320,-15787,-3669,3,-27,-10
1,267,38074,1281,-15805,-3682,0,-12,-5
1,268,38079,1174,-15838,-3690,-3,1,-2
1,269,38084,1150,-15933,-3749,-6,14,-1
1,270,38089,1224,-15928,-3803,-1,26,1
1,271,38094,1314,-15902,-3704,-1,45,2
1,272,38099,1126,-15914,-3633,-2,51,5
1,273,38104,1032,-15896,-3629,-1,50,5
1,274,38109,1091,-15872,-3692,0,40,5
1,275,38114,1151,-15893,-3718,1,23,4
1,276,38119,1162,-15861,-3648,2,4,2
1,277,38124,1173,-15880,-3715,5,-13,-1
1,278,38129,1236,-15822,-3700,9,-23,-1
1,279,38134,1302,-15788,-3670,13,-33,0
1,280,38139,1317,-15785,-3646,11,-38,0
1,281,38144,1270,-15858,-3664,7,-36,3
1,282,38149,1247,-15917,-3667,7,-32,7
1,283,38154,1285,-15908,-3751,8,-31,6
1,284,38159,1246,-15863,-3670,9,-25,4
1,285,38164,1152,-15853,-3622,10,-19,7
1,286,38169,1126,-15963,-3597,7,-15,9
1,287,38174,1177,-15952,-3646,7,-8,7
1,288,38179,1328,-15948,-3730,8,-3,9
1,289,38184,1300,-15936,-3760,7,4,12
1,290,38189,1175,-15912,-3665,7,10,14
1,291,38194,1165,-15941,-3656,7,15,12
1,292,38199,1284,-15915,-3757,8,16,13
1,293,38204,1290,-15881,-3763,6,16,16
1,294,38209,1229,-15922,-3666,5,16,15
1,295,38214,1149,-15889,-3632,7,8,13
1,296,38219,1093,-15895,-3605,8,3,13
1,297,38224,1079,-15931,-3670,6,-8,15
1,298,38229,1144,-15889,-3843,8,-21,12
1,299,38234,1211,-15881,-3768,12,-31,11
1,300,38239,1253,-15886,-3630,16,-38,8
1,301,38244,1221,-15893,-3607,14,-40,9
1,302,38249,1135,-15867,-3629,12,-39,11
1,303,38254,1190,-15888,-3785,10,-35,12
1,304,38259,1290,-15839,-3898,11,-25,14
1,305,38264,1328,-15855,-3792,12,-12,14
1,306,38269,1387,-15871,-3691,11,2,14
1,307,38274,1372,-15887,-3717,8,21,17
1,308,38279,1252,-15889,-3816,9,38,21
1,309,38284,1293,-15897,-3914,5,51,22
1,310,38289,1267,-15897,-3942,5,59,23
1,311,38294,1161,-15886,-3716,9,69,23
1,312,38299,1062,-15885,-3548,9,72,23
1,313,38304,1065,-15862,-3612,7,68,24
1,314,38309,1100,-15899,-3806,4,61,26
1,315,38314,985,-15977,-3727,7,48,31
1,316,38319,938,-15969,-3542,9,30,20
1,317,38324,1232,-15877,-3577,13,1,12
1,318,38329,1146,-15842,-3516,11,-10,12
1,319,38334,973,-15929,-3681,4,-26,16
1,320,38339,1091,-16051,-3941,5,-52,14
1,321,38344,1180,-15967,-3617,20,-62,6
1,322,38349,1321,-15867,-3408,19,-68,3
1,323,38354,1318,-15972,-3594,7,-65,7
1,324,38359,1077,-16045,-3703,4,-53,13
1,325,38364,1103,-16061,-3771,6,-43,10
1,326,38369,1312,-16020,-3733,8,-31,10
1,327,38374,1399,-15960,-3653,8,-8,14
1,328,38379,1432,-15974,-3730,0,10,18
1,329,38384,1342,-16031,-3823,-1,28,20
1,330,38389,1183,-16028,-3768,-1,40,21
1,331,38394,1112,-16018,-3752,-2,39,19
1,332,38399,1048,-16061,-3730,1,36,18
1,333,38404,1044,-15985,-3605,3,30,16
1,334,38409,1126,-15970,-3544,1,19,14
1,335,38414,1162,-15951,-3657,1,13,15
1,336,38419,1136,-15931,-3698,-2,3,15
1,337,38424,1061,-15963,-3779,-3,-5,13
1,338,38429,1051,-15895,-3731,3,-12,11
1,339,38434,1142,-15868,-3613,4,-20,9
1,340,38439,1262,-15863,-3653,2,-26,8
1,341,38444,1297,-15911,-3738,-3,-26,11
1,342,38449,1204,-15959,-3787,-3,-27,12
1,343,38454,1179,-15900,-3785,0,-26,8
1,344,38459,1222,-15862,-3692,6,-26,5
1,345,38464,1263,-15869,-3664,2,-24,9
1,346,38469,1312,-15927,-3632,0,-18,11
1,347,38474,1234,-15962,-3601,-2,-11,11
1,348,38479,1129,-15996,-3631,-6,-3,11
1,349,38484,1121,-16002,-3710,-8,3,10
1,350,38489,1199,-15947,-3818,-5,11,10
1,351,38494,1325,-15861,-3748,-4,27,10
1,352,38499,1352,-15832,-3614,-6,44,12
1,353,38504,1251,-15867,-3627,-13,57,15
1,354,38509,1088,-15933,-3684,-17,60,18
1,355,38514,995,-15892,-3824,-14,54,16
1,356,38519,1044,-15913,-3773,-8,38,11
1,357,38524,1034,-15908,-3681,-8,19,5
1,358,38529,1030,-15928,-3659,-7,5,4
1,359,38534,1165,-15946,-3687,-5,-9,2
1,360,38539,1242,-15919,-3707,-6,-20,0
1,361,38544,1251,-15966,-3797,-8,-25,3
1,362,38549,1228,-15999,-3799,-8,-25,0
1,363,38554,1212,-16004,-3719,-4,-23,0
1,364,38559,1301,-15968,-3689,-4,-19,-1
1,365,38564,1332,-15964,-3717,-7,-8,2
1,366,38569,1285,-15994,-3760,-10,1,3
1,367,38574,1229,-15989,-3721,-11,12,1
1,368,38579,1166,-15978,-3653,-9,23,4
1,369,38584,1141,-15986,-3690,-10,33,3
1,370,38589,1172,-16001,-3776,-13,44,4
1,371,38594,1205,-15983,-3711,-13,56,4
1,372,38599,1186,-15978,-3644,-16,63,5
1,373,38604,1103,-15991,-3645,-18,64,6
1,374,38609,988,-15971,-3668,-18,62,3
1,375,38614,935,-15964,-3703,-16,50,1
1,376,38619,994,-15972,-3691,-14,31,-2
1,377,38624,1140,-15941,-3629,-12,12,-5
1,378,38629,1231,-15979,-3634,-12,-6,-10
1,379,38634,1279,-15978,-3730,-13,-18,-10
1,380,38639,1231,-15994,-3744,-12,-28,-11
1,381,38644,1193,-16036,-3625,-8,-32,-12
1,382,38649,1258,-15988,-3519,-8,-30,-13
1,383,38654,1379,-15966,-3518,-12,-25,-10
1,384,38659,1510,-16002,-3644,-19,-15,-6
1,385,38664,1473,-16073,-3748,-22,-7,-3
1,386,38669,1374,-16098,-3677,-21,1,-4
1,387,38674,1222,-16056,-3474,-16,4,-7
1,388,38679,1148,-16003,-3424,-15,3,-9
1,389,38684,1158,-15968,-3524,-22,0,-6
1,390,38689,1130,-15982,-3593,-25,-6,-7
1,391,38694,1112,-15992,-3721,-24,-13,-7
1,392,38699,1176,-15966,-3642,-20,-19,-11
1,393,38704,1162,-15953,-3667,-20,-22,-12
1,394,38709,1225,-15935,-3743,-22,-22,-12
1,395,38714,1247,-15883,-3819,-22,-20,-10
1,396,38719,1205,-15859,-3827,-22,-14,-11
1,397,38724,1138,-15818,-3750,-21,-10,-12
1,398,38729,1156,-15852,-3726,-21,-6,-12
1,399,38734,1184,-15878,-3703,-21,-2,-13
1,400,38739,1248,-15923,-3720,-25,-1,-13
1,401,38744,1343,-15973,-3821,-25,-4,-13
1,402,38749,1258,-15906,-3816,-22,-3,-11
1,403,38754,1169,-15859,-3691,-18,-9,-13
1,404,38759,1135,-15879,-3626,-20,-18,-16
1,405,38764,1058,-15874,-3574,-19,-24,-17
1,406,38769,1029,-15945,-3681,-21,-37,-15
1,407,38774,1082,-15930,-3753,-21,-46,-18
1,408,38779,1148,-15910,-3715,-16,-51,-20
1,409,38784,1200,-15901,-3750,-17,-52,-22
1,410,38789,1257,-15935,-3820,-20,-44,-21
1,411,38794,1249,-15909,-3931,-19,-33,-19
1,412,38799,1333,-15860,-3968,-17,-19,-19
1,413,38804,1341,-15828,-3889,-17,0,-16
1,414,38809,1295,-15833,-3764,-19,22,-13
1,415,38814,1197,-15855,-3797,-21,40,-12
1,416,38819,1132,-15862,-3876,-22,53,-10
1,417,38824,1103,-15819,-3850,-19,60,-10
1,418,38829,1135,-15803,-3883,-18,63,-9
1,419,38834,1195,-15828,-3853,-16,64,-11
1,420,38839,1089,-15856,-3750,-15,61,-12
1,421,38844,1011,-15804,-3669,-13,59,-13
1,422,38849,977,-15738,-3685,-12,56,-14
1,423,38854,1048,-15757,-3805,-14,47,-13
1,424,38859,1102,-15773,-3778,-14,43,-14
1,425,38864,1214,-15765,-3858,-13,34,-15
1,426,38869,1274,-15798,-3818,-8,28,-18
1,427,38874,1044,-15743,-3802,-8,21,-15
1,428,38879,1044,-15743,-3802,-8,21,-15
1,429,38884,1040,-15696,-3735,-2,1,-19
1,430,38889,1190,-15723,-3715,1,-7,-17
1,431,38894,1232,-15742,-3782,1,-13,-19
1,432,38899,1064,-15747,-3743,1,-14,-17
1,433,38904,937,-15757,-3753,3,-17,-18
1,434,38909,946,-15815,-3778,4,-15,-19
1,435,38914,1039,-15799,-3749,6,-7,-19
1,436,38919,1169,-15763,-3698,7,6,-16
1,437,38924,1252,-15750,-3695,3,25,-11
1,438,38929,1220,-15756,-3612,1,49,-8
1,439,38934,1055,-15710,-3699,-1,68,-1
1,440,38939,804,-15768,-3774,-3,78,4
1,441,38944,803,-15830,-3699,0,83,5
1,442,38949,889,-15760,-3510,9,83,13
1,443,38954,981,-15685,-3036,9,87,16
1,444,38959,1495,-15742,-3204,-9,83,18
1,445,38964,1387,-15954,-3341,-18,103,34
1,446,38969,1177,-16272,-3254,-25,123,47
1,447,38974,1652,-16489,-3176,-27,116,57
1,448,38979,2433,-16434,-2829,-19,114,67
1,449,38984,2727,-16281,-2619,-28,123,88
1,450,38989,2172,-16295,-2934,-62,136,114
1,451,38994,702,-16526,-3360,-84,115,143
1,452,38999,-7,-16582,-3671,-73,33,139
1,453,39004,-150,-16378,-3428,-37,-79,133
1,454,39009,-177,-16042,-2954,-29,-174,131
1,455,39014,-16,-16086,-3544,-58,-271,137
1,456,39019,-34,-16065,-4262,-62,-342,148
1,457,39024,-305,-15858,-4237,-42,-378,158
1,458,39029,-272,-15862,-4540,-46,-400,167
1,459,39034,-68,-15882,-4734,-50,-379,187
1,460,39039,504,-15597,-4370,-40,-324,210
1,461,39044,1446,-15231,-4197,-45,-257,240
1,462,39049,1648,-14877,-4564,-84,-154,286
1,463,39054,334,-14995,-5040,-115,-34,335
1,464,39059,-823,-15178,-5507,-116,15,367
1,465,39064,-1227,-15304,-5129,-85,4,383
1,466,39069,-502,-14948,-3754,-49,-29,370
1,467,39074,-88,-14770,-3064,-69,-68,390
1,468,39079,-900,-14999,-3697,-121,-86,435
1,469,39084,-2060,-15409,-4561,-132,-135,474
1,470,39089,-2483,-15432,-4539,-98,-225,474
1,471,39094,-1606,-15210,-3897,-71,-327,450
1,472,39099,-473,-15059,-3783,-77,-398,459
1,473,39104,-625,-15095,-4008,-99,-395,502
1,474,39109,-1210,-15249,-4613,-123,-366,538
1,475,39114,-1118,-15303,-5134,-122,-350,557
1,476,39119,-599,-15158,-4863,-107,-308,577
1,477,39124,-267,-15112,-4349,-112,-238,612
1,478,39129,-281,-15274,-4447,-141,-162,656
1,479,39134,-774,-15332,-4475,-157,-78,694
1,480,39139,-1285,-15330,-4305,-161,-34,725
1,481,39144,-1589,-15361,-4328,-168,-31,750
1,482,39149,-1904,-15588,-4279,-173,-52,776
1,483,39154,-2307,-15774,-4183,-169,-96,798
1,484,39159,-2380,-15853,-3940,-163,-151,806
1,485,39164,-2111,-15873,-3987,-170,-209,810
1,486,39169,-2013,-15937,-4244,-183,-235,832
1,487,39174,-2064,-15995,-4495,-187,-237,858
1,488,39179,-1679,-15982,-4734,-190,-238,877
1,489,39184,-1215,-15872,-4793,-192,-207,899
1,490,39189,-1330,-15890,-4800,-207,-143,934
1,491,39194,-1699,-16013,-4957,-224,-74,967
1,492,39199,-1757,-15913,-4973,-224,-16,992
1,493,39204,-1648,-15739,-4710,-225,40,1019
1,494,39209,-1944,-15727,-4778,-247,84,1052
1,495,39214,-2321,-15838,-5022,-263,106,1081
1,496,39219,-2552,-15931,-5082,-255,107,1099
1,497,39224,-2850,-15839,-4716,-245,102,1113
1,498,39229,-2978,-15907,-4594,-262,86,1121
1,499,39234,-2691,-16038,-4841,-271,73,1132
1,500,39239,-2608,-15913,-4749,-266,89,1149
1,501,39244,-2501,-15844,-5002,-287,107,1174
1,502,39249,-2511,-16000,-5362,-303,124,1193
1,503,39254,-2783,-15991,-5187,-296,148,1206
1,504,39259,-3010,-15931,-4886,-293,168,1223
1,505,39264,-3297,-15829,-4661,-302,185,1245
1,506,39269,-3227,-15773,-4779,-323,184,1254
1,507,39274,-3005,-15746,-5251,-337,162,1263
1,508,39279,-3265,-15795,-5225,-335,148,1275
1,509,39284,-3638,-15874,-5205,-332,124,1289
1,510,39289,-3880,-15873,-5034,-326,92,1289
1,511,39294,-3676,-15707,-4811,-323,54,1287
1,512,39299,-3440,-15657,-4953,-338,19,1291
1,513,39304,-3722,-15877,-5360,-357,2,1306
1,514,39309,-4101,-16131,-5694,-359,-7,1316
1,515,39314,-4211,-16201,-5727,-348,-4,1314
1,516,39319,-3557,-15942,-5445,-333,13,1306
1,517,39324,-2807,-15611,-5080,-337,57,1318
1,518,39329,-2849,-15510,-5272,-373,137,1350
1,519,39334,-3529,-15737,-5892,-408,222,1376
1,520,39339,-4219,-15917,-6197,-404,260,1384
1,521,39344,-4552,-15835,-5658,-374,273,1377
1,522,39349,-4358,-15577,-4939,-366,268,1363
1,523,39354,-4079,-15524,-5096,-393,253,1365
1,524,39359,-4320,-15659,-5441,-417,251,1377
1,525,39364,-4722,-15776,-5509,-417,234,1377
1,526,39369,-4666,-15664,-5393,-404,199,1359
1,527,39374,-4466,-15414,-5107,-397,165,1346
1,528,39379,-4487,-15359,-5103,-411,134,1347
1,529,39384,-4692,-15475,-5447,-429,106,1352
1,530,39389,-4761,-15458,-5606,-423,65,1343
1,531,39394,-4598,-15225,-5449,-405,21,1327
1,532,39399,-4672,-15096,-5533,-405,-3,1318
1,533,39404,-5119,-15202,-5862,-419,-8,1327
1,534,39409,-5383,-15258,-5798,-416,-1,1325
1,535,39414,-4763,-15014,-5537,-402,-2,1309
1,536,39419,-3861,-14752,-5617,-406,27,1296
1,537,39424,-4067,-14797,-5909,-432,110,1309
1,538,39429,-5123,-15186,-6247,-456,173,1324
1,539,39434,-5915,-15478,-6336,-442,190,1320
1,540,39439,-6115,-15417,-5643,-410,196,1287
1,541,39444,-5639,-15164,-5170,-407,192,1257
1,542,39449,-5131,-15138,-5655,-434,199,1249
1,543,39454,-5419,-15217,-5974,-451,234,1252
1,544,39459,-5826,-15219,-6020,-443,247,1238
1,545,39464,-5734,-15115,-5994,-425,238,1213
1,546,39469,-5613,-14810,-5657,-415,243,1197
1,547,39474,-5676,-14685,-5572,-425,245,1191
1,548,39479,-5725,-14718,-5900,-434,241,1177
1,549,39484,-5774,-14736,-6108,-431,237,1154
1,550,39489,-5818,-14748,-6095,-422,234,1138
1,551,39494,-5730,-14810,-6057,-418,224,1120
1,552,39499,-5511,-14693,-6049,-406,216,1096
1,553,39504,-5733,-14573,-5774,-401,230,1082
1,554,39509,-6123,-14480,-5698,-401,243,1074
1,555,39514,-6470,-14603,-5921,-412,239,1056
1,556,39519,-6426,-14639,-6304,-412,220,1021
1,557,39524,-5984,-14525,-6271,-392,197,989
1,558,39529,-5821,-14239,-5873,-369,189,964
1,559,39534,-5990,-14122,-5883,-372,184,946
1,560,39539,-6203,-14147,-6204,-379,168,929
1,561,39544,-6349,-14163,-6328,-367,141,899
1,562,39549,-6370,-14013,-6097,-343,118,867
1,563,39554,-6187,-13921,-6017,-332,105,842
1,564,39559,-5826,-13845,-6084,-326,113,818
1,565,39564,-5374,-13663,-6190,-320,154,795
1,566,39569,-5326,-13555,-6257,-318,225,781
1,567,39574,-5475,-13555,-6437,-325,306,769
1,568,39579,-5497,-13548,-6604,-321,379,751
1,569,39584,-5455,-13435,-6487,-307,442,729
1,570,39589,-5500,-13344,-6224,-298,489,709
1,571,39594,-5862,-13362,-6142,-298,515,688
1,572,39599,-6196,-13356,-6219,-293,511,666
1,573,39604,-6377,-13269,-6273,-277,477,631
1,574,39609,-6391,-13141,-6197,-259,424,591
1,575,39614,-6359,-12975,-6022,-241,362,554
1,576,39619,-6380,-12862,-5863,-229,292,515
1,577,39624,-6505,-12849,-5861,-217,212,483
1,578,39629,-6442,-12829,-5966,-204,136,444
1,579,39634,-6275,-12742,-5945,-186,72,407
1,580,39639,-6179,-12563,-5907,-164,29,373
1,581,39644,-6079,-12507,-6086,-158,18,344
1,582,39649,-5627,-12549,-6470,-158,42,314
1,583,39654,-5070,-12537,-6661,-149,100,292
1,584,39659,-4621,-12461,-6569,-135,186,271
1,585,39664,-4431,-12386,-6637,-134,287,252
1,586,39669,-5417,-12644,-6781,-135,462,225
1,587,39674,-5811,-12738,-6781,-118,487,199
1,588,39679,-5982,-12582,-6318,-88,487,167
1,589,39684,-5925,-12460,-5971,-76,449,129
1,590,39689,-5856,-12420,-6048,-74,389,89
1,591,39694,-6125,-12430,-6194,-57,316,55
1,592,39699,-6504,-12407,-6172,-30,225,19
1,593,39704,-6661,-12343,-5975,-3,127,-27
1,594,39709,-6128,-12329,-6257,6,29,-81
1,595,39714,-5289,-12428,-6716,9,-41,-125
1,596,39719,-4604,-12531,-6837,27,-67,-157
1,597,39724,-4346,-12490,-6582,51,-52,-177
1,598,39729,-4506,-12341,-6304,69,-9,-198
1,599,39734,-4731,-12156,-6460,66,47,-217
1,600,39739,-4986,-12115,-6978,60,93,-233
1,601,39744,-5260,-12163,-7092,75,135,-259
1,602,39749,-5328,-12251,-6768,100,173,-292
1,603,39754,-5030,-12308,-6393,114,206,-324
1,604,39759,-4742,-12361,-6379,115,240,-350
1,605,39764,-5009,-12447,-6403,113,270,-368
1,606,39769,-5391,-12602,-6549,116,275,-391
1,607,39774,-5572,-12664,-6671,138,255,-426
1,608,39779,-5504,-12560,-6455,169,217,-468
1,609,39784,-5238,-12512,-6180,180,161,-507
1,610,39789,-5100,-12719,-6260,180,105,-539
1,611,39794,-5399,-12911,-6261,191,60,-570
1,612,39799,-5430,-12910,-6204,211,17,-609
1,613,39804,-4911,-12937,-6343,222,-24,-647
1,614,39809,-4309,-13031,-6398,225,-43,-676
1,615,39814,-3945,-13151,-6297,226,-48,-703
1,616,39819,-3906,-13284,-6187,230,-49,-727
1,617,39824,-4301,-13326,-6170,236,-51,-749
1,618,39829,-4771,-13350,-6194,247,-73,-774
1,619,39834,-4815,-13229,-6166,261,-123,-808
1,620,39839,-4733,-13134,-5803,278,-171,-845
1,621,39844,-4682,-13271,-5772,277,-210,-874
1,622,39849,-4604,-13710,-6359,261,-246,-903
1,623,39854,-4627,-14080,-6656,269,-270,-937
1,624,39859,-4903,-14210,-6056,301,-268,-972
1,625,39864,-4824,-14330,-5739,300,-247,-997
1,626,39869,-4049,-14583,-6165,278,-209,-1016
1,627,39874,-2882,-14481,-6272,276,-146,-1043
1,628,39879,-2098,-14435,-6288,272,-72,-1060
1,629,39884,-3013,-14665,-6423,259,19,-1046
1,630,39889,-4790,-15139,-6361,257,78,-1040
1,631,39894,-5493,-15364,-6057,281,38,-1078
1,632,39899,-4568,-15113,-5340,305,-49,-1145
1,633,39904,-3700,-15164,-5068,293,-140,-1181
1,634,39909,-3946,-15584,-5509,265,-220,-1192
1,635,39914,-4675,-16004,-6013,272,-327,-1222
1,636,39919,-4837,-15962,-6075,313,-467,-1281
1,637,39924,-4705,-15737,-5590,342,-599,-1333
1,638,39929,-4551,-15593,-5323,335,-700,-1364
1,639,39934,-4524,-15656,-5742,317,-760,-1386
1,640,39939,-4018,-15807,-6511,306,-776,-1416
1,641,39944,-3076,-15791,-6861,306,-738,-1454
1,642,39949,-1615,-15469,-6614,319,-642,-1486
1,643,39954,-841,-15241,-6230,318,-477,-1474
1,644,39959,-1604,-15410,-6087,279,-261,-1430
1,645,39964,-2559,-15830,-6493,230,-74,-1414
1,646,39969,-2818,-16076,-6807,230,37,-1429
1,647,39974,-2549,-15876,-6078,265,111,-1458
1,648,39979,-2548,-15600,-5238,272,145,-1476
1,649,39984,-3083,-15691,-5122,249,137,-1483
1,650,39989,-3760,-15659,-5308,247,73,-1498
1,651,39994,-4041,-15452,-5228,265,-46,-1532
1,652,39999,-3667,-15248,-5278,272,-206,-1581
1,653,40004,-3127,-15289,-5592,275,-373,-1621
1,654,40009,-2916,-15257,-5542,292,-517,-1655
1,655,40014,-2923,-15117,-5448,304,-646,-1690
1,656,40019,-3047,-15042,-5602,297,-730,-1711
1,657,40024,-2992,-15402,-6130,273,-752,-1720
1,658,40029,-1943,-15535,-6438,262,-719,-1743
1,659,40034,517,-15083,-6187,277,-634,-1774
1,660,40039,2548,-14455,-6045,272,-471,-1759
1,661,40044,1611,-14239,-6107,221,-184,-1690
1,662,40049,-1456,-14611,-6622,169,51,-1612
1,663,40054,-3554,-14912,-6894,187,119,-1604
1,664,40059,-2733,-14485,-5956,237,97,-1685
1,665,40064,-932,-14195,-5129,241,47,-1733
1,666,40069,-453,-14360,-4818,212,26,-1725
1,667,40074,-1822,-14665,-4948,207,-17,-1703
1,668,40079,-2976,-14688,-5437,217,-136,-1720
1,669,40084,-3617,-14746,-5655,231,-303,-1754
1,670,40089,-3577,-15085,-5334,252,-489,-1797
1,671,40094,-2818,-15380,-4782,274,-672,-1846
1,672,40099,-2141,-15626,-4551,279,-793,-1880
1,673,40104,-2183,-16356,-4896,244,-819,-1876
1,674,40109,-1691,-17154,-5557,203,-764,-1873
1,675,40114,1347,-16873,-5529,218,-664,-1915
1,676,40119,5466,-15609,-5184,241,-493,-1924
1,677,40124,5702,-14952,-5119,183,-163,-1824
1,678,40129,1072,-15725,-5679,81,196,-1671
1,679,40134,-3856,-16947,-6233,72,307,-1597
1,680,40139,-4730,-17000,-5099,177,177,-1685
1,681,40144,-3736,-23440,3972,152,10,-1857
1,682,40149,20861,-15778,6586,-197,-1445,-2977
1,683,40154,12671,24812,-29701,-980,821,-2587
1,684,40159,-32768,-30095,20312,-1036,7989,771
1,685,40164,-24206,48,-14792,-952,3579,-2228
1,686,40169,-3949,-20468,3180,616,-680,-2427
1,687,40174,16350,-4510,5576,2405,-3322,-1414
1,688,40179,25475,-2402,9456,1702,-4134,-621
1,689,40184,4783,27,-5863,-515,-2740,-276
1,690,40189,-32768,-21585,-12999,-2043,-763,-402
1,691,40194,-22306,-26413,-13741,-1176,-994,-2080
1,692,40199,19274,-19982,-13173,881,-2622,-2414
1,693,40204,31201,-265,2946,1922,-2903,-1522
1,694,40209,19832,-1769,4544,448,-2097,-301
1,695,40214,-10201,-14008,-9694,-1457,100,-223
1,696,40219,-24679,-25015,-16443,-1451,1183,-1139
1,697,40224,-3849,-17494,-8769,-99,628,-2265
1,698,40229,15931,-11879,-7145,794,-335,-1939
1,699,40234,11321,-5613,3146,623,121,-1357
1,700,40239,-3499,-12067,66,-538,662,-981
1,701,40244,-12880,-20697,-11274,-1043,646,-1154
1,702,40249,-6182,-21304,-12152,-250,89,-1494
1,703,40254,3389,-15056,-3318,607,-381,-1575
1,704,40259,8659,-12222,1863,477,-305,-1430
1,705,40264,4653,-14924,-2000,-209,86,-1269
1,706,40269,-2603,-19222,-7821,-528,260,-1229
1,707,40274,-5399,-20309,-10005,-193,-67,-1333
1,708,40279,532,-17223,-5884,252,-360,-1539
1,709,40284,3247,-17756,3142,311,-426,-1476
1,710,40289,-25383,-8399,5257,-721,-1320,-1737
1,711,40294,-32768,-20112,23448,-1570,-1923,-2757
1,712,40299,-31271,1894,-27404,-3067,-4464,-5009
1,713,40304,17461,-22497,-32768,-1915,-8542,-5413
1,714,40309,32767,-1624,-31265,3193,-12396,-3218
1,715,40314,32433,-1584,-5195,5701,-16103,-331
1,716,40319,28106,-8873,32767,4403,-13520,2556
1,717,40324,16494,10254,25815,-479,-1538,3996
1,718,40329,-15054,-21710,-17307,-4452,7723,4080
1,719,40334,-32768,-20023,-32768,-2879,7077,3175
1,720,40339,-5685,-29465,-32768,-1003,3844,409
1,721,40344,23917,-20357,-20930,908,2070,-1377
1,722,40349,12222,-8727,16543,1867,3969,-30
1,723,40354,-21020,1251,32767,621,5948,1527
1,724,40359,-20613,-10701,785,-1959,4991,1503
1,725,40364,-3961,-24462,-30015,-2301,3000,577
1,726,40369,-2030,-23966,-22357,-428,1618,332
1,727,40374,-17789,-15163,11126,1020,1113,527
1,728,40379,-17442,-10081,16008,524,142,224
1,729,40384,-3554,-12985,-4812,-478,-1205,-190
1,730,40389,7948,-16674,-16968,-517,-1738,-284
1,731,40394,5475,-15598,-8604,111,-1597,-30
1,732,40399,1153,-13853,98,268,-1396,133
1,733,40404,3936,-14312,-6872,-53,-1294,83
1,734,40409,7311,-15817,-13768,-106,-918,70
1,735,40414,5191,-15692,-8095,113,-383,154
1,736,40419,4011,-15904,-2445,103,14,249
1,737,40424,2722,-16323,-2883,-65,397,353
1,738,40429,2600,-16534,-6564,-128,688,404
1,739,40434,1332,-16236,-7109,-64,844,401
1,740,40439,528,-16818,-7006,-43,836,369
1,741,40444,-1700,-17592,-4619,10,781,358
1,742,40449,621,-16443,-2040,109,455,258
1,743,40454,1869,-16533,-5092,32,330,281
1,744,40459,-45,-17277,-6092,17,262,312
1,745,40464,-46,-17590,-6159,76,112,251
1,746,40469,1186,-17098,-4665,173,4,186
1,747,40474,3042,-16400,-4052,192,-29,173
1,748,40479,3040,-16431,-4862,129,13,221
1,749,40484,2061,-16750,-6149,86,78,259
1,750,40489,1187,-16689,-6347,116,120,257
1,751,40494,1977,-16268,-6386,161,140,226
1,752,40499,2518,-15908,-5582,190,189,223
1,753,40504,3143,-15806,-5248,178,235,232
1,754,40509,2445,-15796,-4936,163,286,255
1,755,40514,1555,-15930,-5565,150,307,266
1,756,40519,1131,-15899,-6094,163,291,256
1,757,40524,1666,-15580,-5897,189,264,236
1,758,40529,1848,-15399,-5439,198,246,232
1,759,40534,2273,-15196,-5502,206,229,225
1,760,40539,2162,-14799,-5279,218,215,222
1,761,40544,1828,-14698,-5567,201,193,225
1,762,40549,926,-14910,-5867,195,162,233
1,763,40554,874,-15041,-5814,218,102,210
1,764,40559,1414,-14911,-5433,246,42,181
1,765,40564,1988,-14777,-5423,246,18,173
1,766,40569,1586,-14832,-5688,229,30,184
1,767,40574,1319,-14966,-6223,228,45,179
1,768,40579,1249,-14960,-6142,244,65,171
1,769,40584,1907,-14869,-6179,249,90,162
1,770,40589,2129,-14944,-6042,245,135,166
1,771,40594,1924,-15019,-6068,238,180,168
1,772,40599,1326,-15053,-6021,236,210,166
1,773,40604,988,-15010,-6170,235,221,161
1,774,40609,827,-14951,-6211,241,217,156
1,775,40614,1222,-14842,-6145,251,197,140
1,776,40619,1462,-14758,-5923,258,177,128
1,777,40624,1478,-14796,-5854,254,159,119
1,778,40629,1085,-14850,-5794,254,141,117
1,779,40634,1127,-14853,-6059,256,113,104
1,780,40639,1222,-14881,-6048,261,83,93
1,781,40644,1487,-14858,-5786,265,55,82
1,782,40649,1531,-14898,-5635,261,40,75
1,783,40654,1379,-14895,-5742,260,29,69
1,784,40659,1209,-14900,-5816,261,18,61
1,785,40664,1308,-14931,-6075,255,9,52
1,786,40669,1299,-15013,-5948,256,10,47
1,787,40674,1497,-14925,-5859,259,15,37
1,788,40679,1686,-14774,-5975,256,28,32
1,789,40684,1615,-14673,-6057,250,50,32
1,790,40689,1265,-14762,-6076,243,60,29
1,791,40694,1066,-14975,-6043,242,67,23
1,792,40699,1096,-15022,-5841,246,73,11
1,793,40704,1429,-15008,-5854,247,79,-1
1,794,40709,1578,-14852,-5761,242,102,-2
1,795,40714,1480,-14818,-5834,229,127,0
1,796,40719,1299,-14946,-5993,220,141,-2
1,797,40724,1251,-15074,-5998,220,150,-11
1,798,40729,1296,-15150,-5806,225,145,-21
1,799,40734,1445,-15200,-5585,226,134,-30
1,800,40739,1469,-15214,-5590,222,123,-36
1,801,40744,1450,-15287,-5739,214,107,-40
1,802,40749,1314,-15372,-5814,211,87,-47
1,803,40754,1295,-15476,-5770,213,67,-57
1,804,40759,1478,-15395,-5640,220,49,-67
1,805,40764,1753,-15313,-5502,220,40,-73
1,806,40769,1926,-15300,-5608,208,38,-74
1,807,40774,1788,-15349,-5673,199,40,-71
1,808,40779,1491,-15433,-5569,202,35,-73
1,809,40784,1478,-15423,-5401,202,19,-83
1,810,40789,1526,-15395,-5254,198,5,-91
1,811,40794,1539,-15507,-5262,193,-4,-92
1,812,40799,1671,-15526,-5339,186,-11,-96
1,813,40804,1824,-15479,-5337,183,-15,-100
1,814,40809,1894,-15458,-5432,179,-11,-100
1,815,40814,1751,-15493,-5357,172,-4,-99
1,816,40819,1578,-16000,-5089,169,-2,-101
1,817,40824,2472,-21282,-2132,146,-65,-123
1,818,40829,3066,-12271,-8627,175,-272,-197
1,819,40834,-7124,-14495,-7706,49,56,100
1,820,40839,-2492,-20096,-6843,55,-145,-101
1,821,40844,11028,-14781,-5227,374,-419,-460
1,822,40849,10241,-12114,21,349,38,-267
1,823,40854,3310,-13860,-4467,-66,398,59
1,824,40859,-4012,-17287,-10269,-248,532,183
1,825,40864,-4792,-17329,-9568,25,384,-4
1,826,40869,1438,-15438,-2955,331,112,-242
1,827,40874,7919,-13055,-1216,285,33,-265
1,828,40879,4024,-14893,-2398,16,227,-33
1,829,40884,-1484,-16871,-7291,-118,229,44
1,830,40889,-2880,-17200,-7464,37,64,-69
1,831,40894,740,-15524,-4925,196,-119,-204
1,832,40899,3865,-15101,-3426,175,-172,-203
1,833,40904,4762,-15307,-3681,91,-115,-147
1,834,40909,2665,-15762,-4343,31,-32,-92
1,835,40914,903,-16012,-6047,10,-4,-84
1,836,40919,174,-15821,-6279,50,-10,-102
1,837,40924,1382,-15688,-5477,82,-46,-132
1,838,40929,2906,-15581,-4350,94,-72,-149
1,839,40934,3275,-15516,-3454,76,-51,-136
1,840,40939,2228,-15612,-4384,24,-32,-103
1,841,40944,733,-15952,-5742,-1,-33,-88
1,842,40949,318,-15950,-5855,32,-88,-113
1,843,40954,1376,-15845,-5003,68,-151,-148
1,844,40959,2348,-15760,-4166,68,-177,-158
1,845,40964,2660,-15715,-4213,44,-162,-144
1,846,40969,2162,-15591,-5034,14,-133,-124
1,847,40974,1423,-15614,-5807,1,-111,-115
1,848,40979,1133,-15662,-5820,14,-109,-123
1,849,40984,1671,-15558,-5214,36,-116,-137
1,850,40989,2290,-15404,-4641,40,-108,-142
1,851,40994,2238,-15344,-4689,20,-87,-129
1,852,40999,1461,-15428,-5115,-4,-63,-113
1,853,41004,857,-15580,-5469,-10,-58,-112
1,854,41009,1211,-15480,-5396,11,-71,-129
1,855,41014,2021,-15197,-4950,27,-70,-140
1,856,41019,2424,-15128,-4816,10,-48,-134
1,857,41024,1976,-15339,-5009,-16,-11,-116
1,858,41029,1253,-15549,-5253,-21,9,-109
1,859,41034,1176,-15592,-5436,-14,9,-115
1,860,41039,1637,-15398,-5187,-1,3,-122
1,861,41044,1945,-15338,-4887,-4,4,-125
1,862,41049,1866,-15393,-4876,-16,8,-120
1,863,41054,1461,-15397,-4927,-21,14,-114
1,864,41059,1322,-15354,-5170,-19,4,-115
1,865,41064,1465,-15290,-5261,-18,-13,-119
1,866,41069,1661,-15357,-5133,-18,-31,-122
1,867,41074,1797,-15377,-4956,-18,-50,-126
1,868,41079,1748,-15286,-4831,-17,-67,-127
1,869,41084,1553,-15150,-4940,-21,-79,-124
1,870,41089,1398,-15207,-5152,-28,-93,-121
1,871,41094,1351,-15265,-5161,-26,-109,-123
1,872,41099,1656,-15249,-5019,-20,-127,-129
1,873,41104,1910,-15238,-4904,-20,-128,-131
1,874,41109,1881,-15154,-4993,-27,-112,-124
1,875,41114,1746,-15159,-5264,-34,-92,-116
1,876,41119,1732,-15120,-5414,-35,-73,-112
1,877,41124,1828,-15110,-5246,-29,-55,-111
1,878,41129,1945,-15128,-5148,-31,-38,-107
1,879,41134,1974,-15195,-5070,-36,-20,-102
1,880,41139,1797,-15244,-5103,-39,-6,-98
1,881,41144,1555,-15251,-5138,-38,0,-94
1,882,41149,1556,-15253,-5172,-35,-2,-94
1,883,41154,1658,-15276,-5070,-35,-8,-94
1,884,41159,1806,-15331,-4976,-39,-11,-95
1,885,41164,1851,-15355,-4923,-36,-11,-92
1,886,41169,1831,-15338,-4988,-36,-8,-89
1,887,41174,1772,-15329,-5064,-40,-7,-86
1,888,41179,1696,-15396,-5086,-41,-8,-80
1,889,41184,1761,-15470,-5019,-39,-14,-78
1,890,41189,1837,-15496,-4956,-36,-19,-79
1,891,41194,1797,-15474,-4875,-37,-21,-78
1,892,41199,1785,-15421,-4910,-38,-23,-73
1,893,41204,1783,-15416,-4909,-37,-26,-70
1,894,41209,1802,-15396,-4929,-37,-34,-67
1,895,41214,1879,-15416,-4963,-38,-41,-65
1,896,41219,1846,-15447,-4924,-38,-49,-62
1,897,41224,1730,-15461,-4931,-39,-55,-61
1,898,41229,1722,-15445,-5006,-39,-61,-62
1,899,41234,1961,-15188,-5077,-32,-49,-56
1,900,41239,2069,-15208,-5134,-34,-33,-49
1,901,41244,1999,-15235,-5110,-37,-11,-40
1,902,41249,1797,-15309,-5119,-40,7,-34
1,903,41254,1663,-15377,-5128,-37,19,-33
1,904,41259,1553,-15433,-4980,-34,28,-32
1,905,41264,1585,-15501,-5009,-34,30,-29
1,906,41269,1716,-15517,-4958,-35,34,-27
1,907,41274,1924,-15498,-4957,-35,42,-25
1,908,41279,2047,-15459,-4978,-36,50,-22
1,909,41284,1980,-15457,-5017,-39,58,-16
1,910,41289,1790,-15485,-5021,-43,56,-9
1,911,41294,1636,-15535,-4955,-38,41,-8
1,912,41299,1604,-15518,-4861,-32,15,-9
1,913,41304,1660,-15535,-4934,-32,-17,-11
1,914,41309,1655,-15454,-4957,-30,-50,-11
1,915,41314,1689,-15391,-4990,-26,-81,-13
1,916,41319,1777,-15325,-5055,-23,-107,-15
1,917,41324,1806,-15313,-5084,-20,-126,-13
1,918,41329,1850,-15433,-5108,-21,-134,-10
1,919,41334,1868,-15523,-5177,-20,-133,-9
1,920,41339,1972,-15428,-5151,-16,-119,-7
1,921,41344,2099,-15313,-5277,-19,-93,-3
1,922,41349,2050,-15314,-5432,-23,-55,6
1,923,41354,1981,-15335,-5344,-25,-14,15
1,924,41359,1872,-15363,-5236,-25,26,21
1,925,41364,1870,-15370,-5111,-23,58,23
1,926,41369,1753,-15398,-5097,-28,85,31
1,927,41374,1539,-15469,-5116,-34,100,38
1,928,41379,1474,-15514,-5065,-32,105,35
1,929,41384,1619,-15500,-4960,-25,101,32
1,930,41389,1715,-15426,-4888,-23,91,32
1,931,41394,1709,-15378,-4916,-27,78,36
1,932,41399,1611,-15403,-4993,-29,58,37
1,933,41404,1555,-15413,-5065,-26,31,35
1,934,41409,1645,-15417,-5085,-22,-3,29
1,935,41414,1816,-15408,-5107,-19,-30,25
1,936,41419,1924,-15403,-5123,-14,-48,25
1,937,41424,1970,-15345,-5090,-14,-53,28
1,938,41429,1950,-15306,-5108,-15,-52,31
1,939,41434,1985,-15246,-5172,-16,-48,35
1,940,41439,1967,-15200,-5293,-17,-44,41
1,941,41444,1893,-15246,-5228,-18,-36,45
1,942,41449,1748,-15383,-5096,-17,-33,42
1,943,41454,1669,-15542,-4963,-16,-28,40
1,944,41459,1755,-15563,-4921,-18,-18,41
1,945,41464,2090,-15478,-4991,-18,-1,44
1,946,41469,2246,-15342,-5091,-23,24,52
1,947,41474,2124,-15320,-5203,-30,51,60
1,948,41479,1815,-15404,-5161,-34,69,64
1,949,41484,1680,-15425,-5101,-29,74,64
1,950,41489,1709,-15292,-5022,-25,70,60
1,951,41494,1753,-15262,-5025,-26,59,60
1,952,41499,1783,-15264,-5074,-30,47,66
1,953,41504,1712,-15322,-5125,-27,31,65
1,954,41509,1719,-15388,-5112,-24,13,62
1,955,41514,1764,-15415,-5057,-22,-7,60
1,956,41519,1816,-15437,-5024,-21,-23,58
1,957,41524,1858,-15507,-5023,-22,-32,59
1,958,41529,1877,-15506,-5054,-24,-40,58
1,959,41534,1913,-15468,-5157,-24,-42,59
1,960,41539,1936,-15426,-5105,-24,-38,61
1,961,41544,1905,-15390,-5139,-23,-36,62
1,962,41549,1882,-15363,-5162,-24,-38,65
1,963,41554,1829,-15368,-5114,-23,-36,65
1,964,41559,1788,-15439,-5123,-25,-38,67
1,965,41564,1781,-15462,-5171,-25,-39,67
1,966,41569,1875,-15435,-5036,-24,-43,67
1,967,41574,1926,-15378,-5057,-24,-40,66
1,968,41579,1813,-15404,-5148,-29,-33,69
1,969,41584,1651,-15478,-5260,-31,-26,71
1,970,41589,1618,-15466,-5201,-26,-18,67
1,971,41594,1801,-15349,-5112,-22,-8,69
1,972,41599,1908,-15336,-5183,-27,8,76
1,973,41604,1810,-15375,-5252,-33,24,80
1,974,41609,1665,-15430,-5295,-31,33,78
1,975,41614,1527,-15415,-5248,-27,33,75
1,976,41619,1474,-15481,-5164,-27,29,76
1,977,41624,1553,-15544,-5144,-28,24,72
1,978,41629,1657,-15465,-5034,-24,18,69
1,979,41634,1817,-15407,-5100,-26,15,70
1,980,41639,1782,-15405,-5227,-31,15,73
1,981,41644,1619,-15438,-5327,-32,15,76
1,982,41649,1591,-15466,-5306,-27,13,72
1,983,41654,1685,-15352,-5193,-22,9,66
1,984,41659,1824,-15290,-5122,-22,8,68
1,985,41664,1777,-15347,-5196,-28,12,72
1,986,41669,1630,-15352,-5348,-30,11,75
1,987,41674,1600,-15360,-5391,-26,5,71
1,988,41679,1631,-15353,-5281,-21,-3,69
1,989,41684,1685,-15376,-5129,-17,-11,68
1,990,41689,1653,-15473,-5064,-20,-18,67
1,991,41694,1627,-15501,-5085,-21,-21,66
1,992,41699,1626,-15444,-5245,-22,-20,65
1,993,41704,1712,-15380,-5356,-23,-16,64
1,994,41709,1769,-15379,-5324,-19,-9,63
1,995,41714,1792,-15441,-5163,-18,4,65
1,996,41719,1744,-15483,-5123,-21,23,66
1,997,41724,1722,-15504,-5168,-23,39,68
1,998,41729,1709,-15512,-5283,-27,51,71
1,999,41734,1600,-15480,-5270,-29,61,71
