event_id,seq,ts_ms,ax,ay,az,gx,gy,gz
3,1996,716426,104,-38,4148,-1,2,-1
3,1997,716434,103,-34,4153,-1,6,1
3,1998,716441,106,-39,4155,-1,5,1
3,1999,716449,103,-38,4154,-1,3,0
3,2000,716456,103,-38,4154,-1,2,2
3,2001,716464,105,-33,4148,-2,4,-2
3,2002,716471,95,-38,4151,-2,7,-1
3,2003,716479,98,-39,4151,0,3,1
3,2004,716487,98,-39,4151,1,4,0
3,2005,716494,92,-39,4152,-2,2,3
3,2006,716502,97,-38,4150,-2,4,1
3,2007,716509,107,-39,4153,-2,4,0
3,2008,716517,107,-39,4153,-1,6,2
3,2009,716524,109,-41,4154,0,2,1
3,2010,716532,106,-34,4150,-3,3,1
3,2011,716539,108,-41,4153,-2,2,-2
3,2012,716546,108,-41,4153,-1,4,-1
3,2013,716554,118,-46,4145,-2,2,-2
3,2014,716561,133,-43,4149,-1,4,-1
3,2015,716569,132,-44,4145,-1,3,0
3,2016,716576,132,-44,4145,-1,5,2
3,2017,716584,110,-41,4143,0,3,0
3,2018,716591,85,-43,4164,1,5,-2
3,2019,716599,76,-43,4143,0,3,0
3,2020,716606,76,-43,4143,-1,6,0
3,2021,716614,75,-50,4146,-5,0,-2
3,2022,716621,89,-44,4151,-4,-1,0
3,2023,716629,98,-38,4150,0,-1,-1
3,2024,716637,98,-38,4150,-3,-1,-3
3,2025,716644,102,-25,4149,0,2,0
3,2026,716651,113,-23,4152,0,2,0
3,2027,716659,112,-35,4150,-2,6,-3
3,2028,716667,113,-46,4146,-3,1,-5
3,2029,716674,113,-46,4146,-1,6,-14
3,2030,716681,287,507,4129,-3,16,-131
3,2031,716689,526,850,4134,4,0,96
3,2032,716697,90,-589,4182,2,-3,260
3,2033,716704,90,-589,4182,-18,14,74
3,2034,716711,-350,-639,4155,4,10,76
3,2035,716719,-76,-330,4148,3,11,66
3,2036,716726,102,-26,4159,0,5,0
3,2037,716734,102,-26,4159,-1,5,2
3,2038,716741,123,-11,4145,0,2,0
3,2039,716749,99,-36,4147,-1,6,-2
3,2040,716756,102,-40,4154,-1,2,0
3,2041,716764,102,-40,4154,1,2,3
3,2042,716771,107,-44,4148,-1,2,-1
3,2043,716779,104,-47,4151,-2,3,-2
3,2044,716786,95,-53,4145,0,3,2
3,2045,716794,95,-53,4145,-3,4,1
3,2046,716801,95,-49,4150,0,4,-1
3,2047,716809,100,-47,4152,2,3,0
3,2048,716816,100,-44,4150,-1,1,-1
3,2049,716824,100,-44,4150,-1,2,-2
3,2050,716831,101,-42,4145,0,5,-1
3,2051,716839,101,-38,4154,1,2,-1
3,2052,716846,99,-39,4154,-1,4,-1
3,2053,716854,99,-39,4154,1,3,0
3,2054,716861,104,-41,4150,-3,6,1
3,2055,716869,97,-46,4146,-2,5,-1
3,2056,716876,101,-51,4156,-2,4,0
3,2057,716884,101,-51,4156,-2,4,-2
3,2058,716891,106,-48,4151,-4,5,1
3,2059,716898,101,-44,4146,-2,3,-1
3,2060,716906,96,-38,4149,0,4,1
3,2061,716914,96,-38,4149,-1,5,0
3,2062,716921,104,-39,4156,1,2,-1
3,2063,716929,100,-45,4153,-1,0,-2
3,2064,716936,96,-40,4149,-1,2,-1
3,2065,716944,96,-40,4149,1,3,1
3,2066,716951,105,-41,4147,1,4,2
3,2067,716959,106,-43,4155,1,4,0
3,2068,716966,104,-45,4154,-1,5,1
3,2069,716974,104,-45,4154,-1,5,-1
3,2070,716981,106,-44,4145,-1,4,1
3,2071,716989,103,-42,4147,-2,6,-1
3,2072,716996,102,-43,4146,1,4,-1
3,2073,717004,102,-43,4146,-1,6,-1
3,2074,717011,103,-40,4147,-1,5,0
3,2075,717019,100,-37,4150,0,4,1
3,2076,717026,102,-36,4154,1,2,0
3,2077,717034,102,-36,4154,0,3,2
3,2078,717041,99,-40,4157,0,4,1
3,2079,717049,98,-43,4147,-1,5,0
3,2080,717056,98,-41,4147,-2,4,0
3,2081,717064,98,-41,4147,2,3,-1
3,2082,717071,107,-42,4154,0,4,2
3,2083,717079,95,-39,4154,-1,5,-3
3,2084,717086,97,-39,4151,-1,4,-2
3,2085,717094,111,-41,4156,-2,4,-3
3,2086,717101,111,-41,4156,-1,4,1
3,2087,717109,107,-45,4154,0,4,-1
3,2088,717116,106,-43,4143,0,2,3
3,2089,717124,100,-42,4150,0,5,-2
3,2090,717131,100,-42,4150,-2,3,-3
3,2091,717139,102,-49,4152,-1,4,2
3,2092,717146,102,-48,4155,3,5,0
3,2093,717154,108,-42,4158,0,5,1
3,2094,717161,108,-42,4158,0,2,2
3,2095,717169,102,-38,4149,0,5,1
3,2096,717176,97,-40,4157,-1,1,1
3,2097,717184,100,-36,4144,3,4,-2
3,2098,717191,100,-36,4144,0,1,0
3,2099,717199,97,-38,4145,0,2,0
3,2100,717206,94,-45,4147,0,2,-1
3,2101,717214,99,-42,4150,1,4,-1
3,2102,717221,99,-42,4150,1,6,0
3,2103,717229,100,-42,4152,-2,5,1
3,2104,717236,96,-42,4152,1,3,0
3,2105,717244,102,-47,4143,1,4,-3
3,2106,717251,102,-47,4143,1,2,0
3,2107,717259,100,-44,4151,2,3,0
3,2108,717266,98,-46,4154,2,7,1
3,2109,717274,106,-41,4149,-1,3,-3
3,2110,717281,106,-41,4149,-2,3,-1
3,2111,717288,106,-39,4151,0,6,0
3,2112,717296,103,-42,4159,0,4,-1
3,2113,717303,104,-33,4150,2,2,0
3,2114,717311,104,-33,4150,-1,2,0
3,2115,717318,102,-28,4153,0,4,-1
3,2116,717326,105,-34,4156,0,5,-3
3,2117,717333,-137,-42,4160,-1,4,-19
3,2118,717341,-137,-42,4160,2,1,-67
3,2119,717348,-365,115,4161,-3,24,-190
3,2120,717356,-53,414,4159,-6,34,-141
3,2121,717363,130,25,4154,-8,20,-136
3,2122,717371,130,25,4154,-17,22,-138
3,2123,717378,106,-156,4141,-17,24,-145
3,2124,717386,40,-95,4134,0,16,-171
3,2125,717393,162,40,4170,1,19,-173
3,2126,717401,162,40,4170,-9,16,-135
3,2127,717408,260,-9,4140,2,15,-107
3,2128,717416,257,-320,4143,7,25,-96
3,2129,717423,390,-171,4147,8,39,-54
3,2130,717431,390,-171,4147,11,40,-19
3,2131,717438,263,-127,4160,-1,19,5
3,2132,717446,371,-17,4145,3,10,40
3,2133,717453,674,-30,4143,-9,-48,127
3,2134,717460,674,-30,4143,-4,-43,205
3,2135,717468,697,14,4130,14,-71,309
3,2136,717475,-6,-57,4125,20,-68,285
3,2137,717483,-199,-72,4204,9,-61,208
3,2138,717490,-199,-72,4204,5,-49,162
3,2139,717498,-414,-8,4153,-13,-4,66
3,2140,717505,-309,-24,4151,-7,5,71
3,2141,717513,148,-47,4147,1,8,44
3,2142,717521,148,-47,4147,5,10,33
3,2143,717528,103,3,4157,-4,2,3
3,2144,717535,-61,-33,4161,-4,-5,-25
3,2145,717543,66,123,4142,-3,-3,-6
3,2146,717550,66,123,4142,0,-8,-7
3,2147,717558,33,-60,4147,2,1,-2
3,2148,717565,116,-277,4155,-1,2,-9
3,2149,717573,152,-63,4150,-1,2,1
3,2150,717580,315,18,4147,5,0,44
3,2151,717588,315,18,4147,3,0,69
3,2152,717595,212,-73,4141,-3,6,54
3,2153,717603,-59,-51,4158,0,4,41
3,2154,717610,-109,-33,4161,0,5,3
3,2155,717618,-109,-33,4161,0,3,-4
3,2156,717625,104,-41,4149,0,3,-2
3,2157,717633,127,-42,4143,0,4,0
3,2158,717640,180,-45,4146,1,3,8
3,2159,717648,180,-45,4146,3,3,20
3,2160,717655,203,-48,4144,1,10,31
3,2161,717663,172,-20,4149,4,7,46
3,2162,717670,144,-40,4145,-2,13,60
3,2163,717678,144,-40,4145,-8,15,57
3,2164,717685,23,-37,4154,2,6,39
3,2165,717693,-31,-62,4157,-1,2,15
3,2166,717700,230,-45,4145,1,1,26
3,2167,717708,230,-45,4145,1,4,42
3,2168,717715,234,-40,4146,0,-4,63
3,2169,717723,31,-27,4152,-1,-1,66
3,2170,717730,-9,-42,4155,4,2,36
3,2171,717738,-9,-42,4155,2,-1,33
3,2172,717745,13,-30,4159,-3,4,14
3,2173,717752,-15,-29,4157,-1,3,1
3,2174,717760,118,-43,4144,0,5,1
3,2175,717767,118,-43,4144,-1,5,-2
3,2176,717775,113,-44,4149,-1,3,0
3,2177,717782,192,-47,4151,-2,5,5
3,2178,717790,195,-51,4142,2,7,27
3,2179,717797,195,-51,4142,4,10,34
3,2180,717805,76,-42,4154,-5,9,22
3,2181,717812,113,-37,4155,-3,11,27
3,2182,717820,77,-41,4158,-2,9,36
3,2183,717827,77,-41,4158,0,7,23
3,2184,717834,-26,-34,4156,-3,6,7
3,2185,717842,50,-37,4143,-1,5,1
3,2186,717849,112,-42,4147,2,6,0
3,2187,717857,112,-42,4147,0,3,2
3,2188,717864,103,-39,4153,0,2,-2
3,2189,717872,103,-41,4151,-1,5,-2
3,2190,717879,102,-40,4149,-2,3,-1
3,2191,717887,102,-40,4149,0,3,2
3,2192,717894,97,-39,4153,-1,7,0
3,2193,717902,98,-39,4147,0,4,0
3,2194,717909,97,-41,4143,0,2,0
3,2195,717917,97,-41,4143,-3,2,-2
3,2196,717924,96,-42,4147,0,6,-3
3,2197,717932,107,-45,4153,1,4,-1
3,2198,717939,101,-45,4144,-1,6,-1
3,2199,717947,101,-45,4144,1,5,1
3,2200,717954,104,-41,4149,-1,3,0
3,2201,717962,95,-41,4149,1,5,1
3,2202,717969,95,-39,4151,-1,3,1
3,2203,717977,95,-39,4151,-3,5,1
3,2204,717984,106,-45,4149,0,5,-3
3,2205,717992,105,-41,4149,-3,4,-2
3,2206,717999,97,-43,4150,-1,3,-1
3,2207,718007,97,-43,4150,0,3,0
3,2208,718014,100,-42,4150,-2,4,-2
3,2209,718022,99,-44,4148,-1,2,0
3,2210,718029,100,-32,4150,-3,3,-4
3,2211,718037,100,-32,4150,-2,2,-1
3,2212,718044,96,-40,4149,-1,5,0
3,2213,718052,101,-38,4145,-1,3,1
3,2214,718059,100,-40,4148,2,4,1
3,2215,718067,100,-40,4148,1,3,-1
3,2216,718074,99,-45,4149,-3,2,-2
3,2217,718082,95,-39,4149,0,4,0
3,2218,718089,99,-47,4150,-1,4,-3
3,2219,718097,99,-47,4150,-2,4,-3
3,2220,718104,99,-41,4150,-1,6,1
3,2221,718112,105,-42,4151,1,4,1
3,2222,718119,103,-46,4151,0,3,1
3,2223,718126,103,-46,4151,0,4,1
3,2224,718134,90,-38,4154,-1,4,0
3,2225,718141,98,-41,4152,-2,4,0
3,2226,718149,99,-44,4144,-1,4,0
3,2227,718156,99,-44,4144,-1,5,-3
3,2228,718164,103,-41,4147,0,3,-1
3,2229,718171,111,-39,4150,1,4,0
3,2230,718179,102,-41,4154,0,3,1
3,2231,718186,102,-41,4154,0,4,0
3,2232,718194,101,-38,4152,1,3,-1
3,2233,718201,109,-38,4152,-1,3,0
3,2234,718209,95,-40,4148,-1,0,1
3,2235,718216,95,-40,4148,-2,3,0
3,2236,718224,97,-44,4145,0,3,-1
3,2237,718231,102,-36,4150,0,2,-1
3,2238,718238,104,-35,4153,-2,3,-2
3,2239,718246,104,-35,4153,-2,2,-1
3,2240,718253,96,-37,4150,-3,3,-2
3,2241,718261,95,-44,4148,-1,3,1
3,2242,718268,102,-40,4149,0,3,-1
3,2243,718276,104,-33,4148,0,3,0
3,2244,718283,104,-33,4148,0,5,-1
3,2245,718291,106,-35,4145,-2,5,1
3,2246,718298,111,-45,4150,2,3,-1
3,2247,718306,111,-45,4150,-1,4,-1
3,2248,718313,105,-45,4148,-2,3,-3
3,2249,718321,98,-41,4150,-2,3,-2
3,2250,718328,96,-39,4155,-2,5,0
3,2251,718335,96,-39,4155,-1,3,-2
3,2252,718343,95,-44,4149,0,4,-1
3,2253,718350,95,-39,4151,1,2,1
3,2254,718358,97,-44,4152,0,5,0
3,2255,718365,97,-44,4152,0,5,-1
3,2256,718373,102,-43,4157,-1,3,0
3,2257,718380,107,-39,4159,-2,2,1
3,2258,718388,113,-44,4146,-1,3,-2
3,2259,718395,113,-44,4146,-1,5,-1
3,2260,718403,108,-49,4146,-2,5,2
3,2261,718410,104,-43,4150,-1,5,-2
3,2262,718417,99,-41,4151,0,5,0
3,2263,718425,99,-41,4151,0,6,-1
3,2264,718432,96,-44,4153,0,3,-1
3,2265,718440,97,-43,4152,-1,7,-2
3,2266,718447,98,-45,4145,-1,4,0
3,2267,718455,98,-45,4145,-1,3,0
3,2268,718462,94,-39,4149,-1,4,-4
3,2269,718470,103,-40,4155,0,4,-1
3,2270,718477,104,-41,4142,1,1,0
3,2271,718484,104,-41,4142,-1,3,0
3,2272,718492,109,-47,4151,-1,2,-1
3,2273,718499,146,-43,4146,0,1,3
3,2274,718507,112,-39,4143,0,4,12
3,2275,718514,112,-39,4143,-1,5,6
3,2276,718522,42,-42,4144,0,4,-1
3,2277,718529,103,-42,4149,-1,5,-1
3,2278,718537,103,-41,4157,0,4,1
3,2279,718544,103,-41,4157,-2,5,-2
3,2280,718551,99,-37,4147,0,4,1
3,2281,718559,99,-39,4143,-2,5,1
3,2282,718566,99,-38,4141,1,3,-1
3,2283,718574,99,-38,4141,1,3,1
3,2284,718581,98,-45,4151,-1,3,-3
3,2285,718589,105,-41,4149,0,3,-1
3,2286,718596,109,-41,4148,-2,5,-1
3,2287,718604,109,-41,4148,-1,4,-1
3,2288,718611,104,-45,4150,0,5,0
3,2289,718618,96,-45,4153,1,5,2
3,2290,718626,105,-44,4138,-1,2,1
3,2291,718633,105,-44,4138,-2,5,-1
3,2292,718641,106,-42,4142,0,3,0
3,2293,718648,101,-47,4141,-2,5,1
3,2294,718656,98,-45,4144,-1,1,1
3,2295,718663,98,-45,4144,-2,3,2
3,2296,718671,100,-48,4152,-1,6,-1
3,2297,718678,99,-44,4144,-1,6,-1
3,2298,718686,105,-39,4152,-1,6,-1
3,2299,718693,105,-39,4152,1,5,0
3,2300,718700,105,-42,4150,-1,3,-1
3,2301,718708,101,-44,4148,0,5,1
3,2302,718715,100,-43,4145,-1,3,-1
3,2303,718723,100,-43,4145,-1,3,1
3,2304,718730,105,-42,4148,-2,3,0
3,2305,718738,100,-42,4150,0,2,0
3,2306,718745,95,-40,4143,0,3,0
3,2307,718753,95,-40,4143,-2,2,0
3,2308,718760,101,-37,4146,3,3,0
3,2309,718767,105,-40,4149,0,4,-2
3,2310,718775,100,-40,4148,-1,4,-1
3,2311,718782,100,-40,4148,-2,5,-1
3,2312,718790,105,-46,4151,0,3,-3
3,2313,718797,101,-43,4150,0,4,-1
3,2314,718805,94,-45,4154,-3,5,0
3,2315,718812,94,-45,4154,-1,2,0
3,2316,718820,97,-41,4153,-2,3,0
3,2317,718827,97,-43,4149,-2,2,-1
3,2318,718834,90,-37,4150,-2,4,-2
3,2319,718842,90,-37,4150,-1,5,-6
3,2320,718849,-36,-28,4157,0,0,-25
3,2321,718857,101,-47,4156,-3,0,-27
3,2322,718864,202,-49,4141,0,3,-11
3,2323,718872,202,-49,4141,-2,3,-9
3,2324,718879,109,-44,4146,0,2,-6
3,2325,718887,99,-42,4149,-2,4,-7
3,2326,718894,75,-38,4149,-1,2,-8
3,2327,718901,75,-38,4149,-1,-1,-12
3,2328,718909,92,-36,4150,1,0,-9
3,2329,718916,70,-40,4156,1,2,-14
3,2330,718924,167,-43,4157,-2,2,-13
3,2331,718931,167,-43,4157,0,5,-10
3,2332,718939,90,-33,4158,-2,2,-29
3,2333,718946,55,45,4147,0,2,-43
3,2334,718954,32,126,4152,-7,6,-72
3,2335,718961,32,126,4152,-9,2,-3
3,2336,718968,180,-242,4144,2,3,-5
3,2337,718976,157,-115,4155,2,5,-10
3,2338,718983,115,-7,4150,-1,5,-3
3,2339,718991,115,-7,4150,-3,2,-2
3,2340,718998,107,-45,4150,-1,4,2
3,2341,719006,79,-69,4161,0,4,2
3,2342,719013,12,-240,4151,1,3,16
3,2343,719021,12,-240,4151,6,-2,28
3,2344,719028,65,-187,4157,2,11,-22
3,2345,719036,92,146,4155,4,5,15
3,2346,719043,98,-20,4148,-4,16,-3
3,2347,719051,98,-20,4148,-3,10,-23
3,2348,719058,137,133,4160,-5,12,-25
3,2349,719066,171,50,4162,-16,32,-18
3,2350,719073,564,935,4138,-50,111,-15
3,2351,719081,564,935,4138,21,184,16
3,2352,719088,-158,613,4186,26,634,125
3,2353,719095,-88,-481,4314,-20,754,157
3,2354,719103,33,-329,4191,-3,790,70
3,2355,719110,33,-329,4191,-42,837,61
3,2356,719118,-69,-486,4581,-275,1008,54
3,2357,719125,-272,-659,4774,-416,1148,19
3,2358,719133,-351,-358,4626,-596,1522,-55
3,2359,719140,-351,-358,4626,-654,1756,-67
3,2360,719148,-330,-238,5234,-728,1329,-132
3,2361,719155,-156,-306,6542,-872,890,-142
3,2362,719163,-125,-452,6956,-1323,-264,-201
3,2363,719170,-125,-452,6956,-1569,-784,-213
3,2364,719177,-297,-262,5794,-1873,-1090,-262
3,2365,719185,-407,-3,4293,-1914,-993,-265
3,2366,719192,-711,247,3574,-1829,-307,-319
3,2367,719200,-711,247,3574,-1791,253,-351
3,2368,719207,-467,63,3943,-1640,364,-242
3,2369,719215,-120,-277,4393,-1585,99,-257
3,2370,719222,-121,-287,3754,-1728,-67,-246
3,2371,719230,-121,-287,3754,-1700,26,-257
3,2372,719237,-194,-348,3192,-1466,304,-263
3,2373,719244,-149,-488,3342,-1382,461,-223
3,2374,719252,-77,-738,3869,-1321,610,-219
3,2375,719259,-77,-738,3869,-1337,566,-237
3,2376,719267,-90,-693,4317,-1412,415,-241
3,2377,719274,-117,-474,4436,-1425,245,-229
3,2378,719282,-44,-523,4231,-1415,-40,-181
3,2379,719289,-44,-523,4231,-1406,-125,-156
3,2380,719297,-78,-941,3828,-1380,-48,-153
3,2381,719304,-202,-1373,3540,-1355,79,-201
3,2382,719312,-222,-1263,3659,-1330,466,-229
3,2383,719319,-222,-1263,3659,-1335,611,-235
3,2384,719327,-198,-932,4123,-1344,583,-238
3,2385,719334,-213,-791,4416,-1363,299,-259
3,2386,719342,-225,-894,4219,-1342,160,-257
3,2387,719349,-90,-1343,3721,-1279,97,-211
3,2388,719356,-90,-1343,3721,-1269,274,-120
3,2389,719364,-34,-1872,3509,-1290,564,-148
3,2390,719371,-285,-1818,3750,-1297,631,-185
3,2391,719379,-211,-1539,4097,-1306,594,-130
3,2392,719386,-211,-1539,4097,-1318,525,-69
3,2393,719394,-254,-1737,4165,-1366,476,-70
3,2394,719401,-267,-1968,3995,-1380,458,-97
3,2395,719409,-247,-2017,3968,-1412,422,-154
3,2396,719416,-247,-2017,3968,-1482,397,-177
3,2397,719424,-355,-1864,4083,-1608,188,-184
3,2398,719431,-619,-1667,3743,-1611,155,-188
3,2399,719438,-756,-1624,3495,-1581,393,-212
3,2400,719446,-756,-1624,3495,-1566,467,-236
3,2401,719453,-773,-1541,3728,-1610,637,-283
3,2402,719461,-658,-1589,4188,-1640,586,-286
3,2403,719468,-539,-1895,4337,-1678,204,-269
3,2404,719476,-539,-1895,4337,-1703,31,-287
3,2405,719483,-541,-2272,3852,-1733,-155,-365
3,2406,719491,-428,-2375,3233,-1743,-124,-379
3,2407,719498,-376,-2301,2883,-1704,69,-383
3,2408,719506,-376,-2301,2883,-1662,195,-376
3,2409,719513,-501,-2258,2899,-1583,416,-374
3,2410,719520,-473,-2253,3208,-1553,429,-373
3,2411,719528,-412,-2457,3542,-1542,307,-372
3,2412,719535,-412,-2457,3542,-1557,178,-393
3,2413,719543,-462,-2776,3663,-1632,-84,-485
3,2414,719550,-362,-2791,3323,-1668,-173,-500
3,2415,719558,-336,-2605,2996,-1734,-232,-519
3,2416,719565,-336,-2605,2996,-1734,-226,-512
3,2417,719573,-258,-2432,2783,-1615,-183,-460
3,2418,719580,-123,-2329,2585,-1537,-150,-411
3,2419,719588,39,-2337,2359,-1387,-46,-272
3,2420,719595,39,-2337,2359,-1292,35,-204
3,2421,719602,70,-2600,2228,-1119,195,-118
3,2422,719610,47,-2808,2347,-1063,249,-92
3,2423,719617,-80,-2823,2601,-1019,250,-65
3,2424,719625,-80,-2823,2601,-974,227,-67
3,2425,719632,-218,-2833,2723,-864,158,-45
3,2426,719640,-198,-2954,2630,-797,128,-20
3,2427,719647,-300,-3212,2483,-672,160,-12
3,2428,719655,-300,-3212,2483,-642,218,-47
3,2429,719662,-427,-3211,2610,-642,230,-73
3,2430,719669,-259,-3070,2745,-659,171,-52
3,2431,719677,-183,-3065,2659,-700,34,-17
3,2432,719684,-183,-3065,2659,-713,-2,-7
3,2433,719692,-194,-3025,2476,-690,-42,-1
3,2434,719699,-131,-2959,2258,-593,-24,-7
3,2435,719707,-202,-2796,2229,-373,109,49
3,2436,719714,-202,-2796,2229,-295,180,74
3,2437,719722,-286,-2806,2343,-181,259,125
3,2438,719729,-253,-3027,2405,-141,274,149
3,2439,719736,-343,-3360,2501,-97,285,158
3,2440,719744,-343,-3360,2501,-86,276,137
3,2441,719751,-528,-3445,2624,-96,252,76
3,2442,719759,-532,-3294,2634,-94,229,64
3,2443,719766,-480,-3314,2550,-66,186,84
3,2444,719774,-480,-3314,2550,-51,206,77
3,2445,719781,-596,-3415,2498,-10,262,19
3,2446,719789,-445,-3220,2477,16,262,12
3,2447,719796,-195,-3007,2422,54,226,56
3,2448,719803,-195,-3007,2422,100,183,88
3,2449,719811,-41,-3000,2287,201,148,150
3,2450,719818,-49,-2969,2155,249,155,174
3,2451,719826,74,-2835,2111,351,175,241
3,2452,719833,74,-2835,2111,353,129,301
3,2453,719841,281,-2714,2038,473,55,450
3,2454,719848,287,-2683,1877,554,38,524
3,2455,719856,235,-2677,1825,674,-18,656
3,2456,719863,235,-2677,1825,737,-55,726
3,2457,719871,403,-2598,1737,906,-208,889
3,2458,719878,484,-2623,1618,994,-329,971
3,2459,719885,458,-2703,1372,1203,-460,1152
3,2460,719893,458,-2703,1372,1330,-452,1220
3,2461,719900,88,-2639,1350,1537,-343,1273
3,2462,719908,-350,-2143,1779,1569,-277,1255
3,2463,719915,-16,-1566,2199,1595,-717,1346
3,2464,719923,-16,-1566,2199,1538,-1059,1476
3,2465,719930,82,-1775,1972,1779,-1377,1555
3,2466,719938,-175,-1976,1662,1877,-1468,1572
3,2467,719945,-591,-1847,1602,2071,-1455,1546
3,2468,719952,-591,-1847,1602,2141,-1283,1510
3,2469,719960,-1157,-1602,1949,2210,-882,1426
3,2470,719967,-1457,-1296,2386,2263,-540,1372
3,2471,719975,-350,-828,10779,3431,-4107,1221
3,2472,719982,-350,-828,10779,4014,-13199,1724
3,2473,719990,1048,-422,11972,4689,-8215,1728
3,2474,719997,-5319,-3382,308,4586,-6636,1144
3,2475,720005,-1886,-1779,5705,1901,-2457,623
3,2476,720012,-1886,-1779,5705,464,-3648,638
3,2477,720020,-744,-1576,7542,-1240,-3533,385
3,2478,720027,-912,-2834,2249,-1127,-2650,365
3,2479,720034,-48,-2601,1233,788,-267,66
3,2480,720042,-48,-2601,1233,845,661,-335
3,2481,720049,-329,-3206,4345,237,1031,-610
3,2482,720057,-107,-2544,3823,106,1266,-567
3,2483,720064,117,-2133,3597,128,1648,-612
3,2484,720072,117,-2133,3597,88,1655,-637
3,2485,720079,163,-2007,3936,138,1787,-649
3,2486,720087,103,-1828,3823,165,1798,-644
3,2487,720094,130,-1679,3518,196,1814,-580
3,2488,720102,130,-1679,3518,294,1774,-536
3,2489,720109,268,-1545,3290,335,2183,-445
3,2490,720116,50,-1579,3260,456,2376,-434
3,2491,720124,-287,-1785,3243,659,2842,-358
3,2492,720132,-287,-1785,3243,712,3181,-371
3,2493,720139,-622,-2065,3319,711,3782,-452
3,2494,720146,-558,-2080,4194,668,3852,-507
3,2495,720154,-197,-1740,5431,537,3270,-453
3,2496,720161,-197,-1740,5431,450,3012,-392
3,2497,720169,-198,-1643,5894,216,1837,-267
3,2498,720176,-111,-1733,6315,26,1145,-212
3,2499,720184,-184,-1875,5874,-389,-138,-149
3,2500,720191,-184,-1875,5874,-567,-618,-138
3,2501,720199,-423,-1891,4757,-752,-1056,-144
3,2502,720206,-620,-1703,3479,-752,-1011,-137
3,2503,720213,-709,-1623,2666,-589,-505,-122
3,2504,720221,-709,-1623,2666,-469,-173,-115
3,2505,720228,-692,-1748,2647,-299,393,-119
3,2506,720236,-587,-1867,3163,-258,589,-118
3,2507,720243,-613,-1925,3879,-275,773,-154
3,2508,720251,-613,-1925,3879,-310,740,-173
3,2509,720258,-571,-1842,4418,-405,440,-148
3,2510,720266,-554,-1816,4501,-467,253,-123
3,2511,720273,-605,-1943,4211,-572,-22,-108
3,2512,720281,-605,-1943,4211,-605,-95,-117
3,2513,720288,-611,-2029,3837,-651,-110,-125
3,2514,720296,-624,-2043,3599,-664,-85,-133
3,2515,720303,-531,-1936,3465,-658,-51,-149
3,2516,720311,-531,-1936,3465,-641,-42,-137
3,2517,720318,-490,-1756,3274,-607,242,-111
3,2518,720325,-786,-1860,3218,-529,512,-100
3,2519,720333,-708,-1910,3558,-408,636,-118
3,2520,720340,-708,-1910,3558,-426,559,-124
3,2521,720348,-546,-1833,3758,-490,359,-93
3,2522,720355,-616,-1994,3642,-483,283,-92
3,2523,720363,-658,-2148,3485,-459,160,-99
3,2524,720370,-658,-2148,3485,-463,149,-96
3,2525,720378,-694,-2233,3347,-444,125,-102
3,2526,720385,-677,-2238,3213,-424,128,-110
3,2527,720393,-650,-2154,3106,-379,228,-102
3,2528,720400,-650,-2154,3106,-336,277,-93
3,2529,720408,-596,-2113,3117,-236,292,-78
3,2530,720415,-612,-2018,3099,-177,352,-72
3,2531,720422,-616,-1843,3095,-79,306,-49
3,2532,720430,-616,-1843,3095,-75,467,-32
3,2533,720437,-1117,-1843,3361,-79,236,-215
3,2534,720445,-1576,-1656,3628,-223,357,-338
3,2535,720452,-1048,-1942,3805,-264,615,-248
3,2536,720460,-1048,-1942,3805,-178,450,-336
3,2537,720467,-935,-2162,3694,-45,652,-336
3,2538,720475,-734,-2206,3910,-56,455,-330
3,2539,720482,-528,-2443,3813,-226,342,-306
3,2540,720489,-528,-2443,3813,-261,119,-310
3,2541,720497,-333,-2566,3517,-281,-68,-265
3,2542,720504,-137,-2463,3175,-277,-190,-222
3,2543,720512,-284,-2299,2857,-257,-236,-139
3,2544,720519,-284,-2299,2857,-219,-205,-113
3,2545,720527,-500,-2070,2629,-86,-2,-55
3,2546,720534,-650,-1937,2560,1,162,-33
3,2547,720542,-647,-2012,2767,201,460,22
3,2548,720549,-647,-2012,2767,284,548,47
3,2549,720557,-693,-2255,3232,298,580,65
3,2550,720564,-752,-2491,3669,256,540,73
3,2551,720572,-884,-2606,3916,166,402,35
3,2552,720579,-884,-2606,3916,124,238,9
3,2553,720586,-1003,-2393,3855,53,177,-36
3,2554,720594,-976,-2270,3723,33,168,-27
3,2555,720601,-854,-2201,3668,-39,64,-48
3,2556,720609,-854,-2201,3668,-54,32,-50
3,2557,720616,-671,-2129,3505,-31,-67,-17
3,2558,720624,-691,-2171,3326,-27,-53,-3
3,2559,720631,-832,-2231,3277,-12,-4,-8
3,2560,720639,-832,-2231,3277,-5,31,-12
3,2561,720646,-901,-2164,3304,22,100,-17
3,2562,720654,-927,-2124,3337,43,136,-13
3,2563,720661,-967,-2188,3410,64,208,-18
3,2564,720669,-967,-2188,3410,64,244,-23
3,2565,720676,-989,-2323,3503,54,294,-38
3,2566,720683,-1012,-2479,3635,33,306,-54
3,2567,720691,-1005,-2554,3754,-33,281,-92
3,2568,720698,-1005,-2554,3754,-47,240,-112
3,2569,720706,-935,-2462,3755,-55,170,-134
3,2570,720713,-821,-2302,3704,-74,102,-124
3,2571,720721,-775,-2249,3544,-103,1,-109
3,2572,720728,-775,-2249,3544,-119,-29,-106
3,2573,720736,-716,-2202,3318,-115,-46,-81
3,2574,720743,-618,-2159,3122,-100,-50,-64
3,2575,720751,-571,-2080,2988,-42,-88,-40
3,2576,720758,-571,-2080,2988,8,-169,-13
3,2577,720765,-407,-2050,2739,146,-419,85
3,2578,720773,-66,-2204,2083,237,-427,152
3,2579,720780,115,-2324,1602,468,-362,263
3,2580,720788,115,-2324,1602,547,-239,258
3,2581,720795,140,-1971,1787,672,-359,362
3,2582,720803,205,-1412,2072,698,-493,430
3,2583,720810,242,-1100,2073,801,-633,625
3,2584,720818,242,-1100,2073,852,-751,747
3,2585,720825,-83,-1007,1756,1604,-771,893
3,2586,720833,-604,-594,1080,2003,-436,918
3,2587,720840,1380,-308,13494,6381,-9029,743
3,2588,720848,1380,-308,13494,5602,-11743,1018
3,2589,720855,1715,-726,14058,25,-11619,1806
3,2590,720862,-5525,-3426,4410,-1604,-11155,1731
3,2591,720870,-3797,-3241,-1881,-500,-5334,515
3,2592,720877,-3797,-3241,-1881,586,-2679,75
3,2593,720885,-1682,-2654,1268,337,-514,-390
3,2594,720892,-295,-1909,3952,268,-31,-414
3,2595,720900,-278,-1472,3619,139,1201,-245
3,2596,720907,-278,-1472,3619,56,1627,-314
3,2597,720915,-571,-2154,3595,-8,2566,-533
3,2598,720922,-130,-1994,3885,-79,3008,-587
3,2599,720930,-66,-1821,3984,-313,3818,-642
3,2600,720937,-66,-1821,3984,-443,4084,-627
3,2601,720945,-360,-1902,4027,-778,4398,-628
3,2602,720952,-535,-2026,3852,-915,4559,-677
3,2603,720960,-669,-1957,3522,-1140,5032,-676
3,2604,720967,-669,-1957,3522,-919,5291,-740
3,2605,720975,-1040,-1910,3367,-496,5804,-782
3,2606,720982,-1070,-1678,4346,-224,5675,-767
3,2607,720989,-442,-1542,6225,9,4624,-626
3,2608,720997,-442,-1542,6225,-91,3757,-541
3,2609,721004,-194,-1962,7178,-555,1672,-462
3,2610,721012,-256,-2344,6589,-718,712,-469
3,2611,721019,-458,-2320,5260,-1081,-676,-508
3,2612,721027,-458,-2320,5260,-1286,-1077,-492
3,2613,721034,-755,-2186,3652,-1559,-1122,-450
3,2614,721042,-1004,-2121,2464,-1633,-885,-458
3,2615,721049,-1037,-2095,2065,-1606,-251,-504
3,2616,721057,-1037,-2095,2065,-1441,62,-593
3,2617,721064,-812,-2040,2098,-869,594,-615
3,2618,721071,-590,-1756,2595,-623,752,-542
3,2619,721079,-582,-1805,3065,-299,830,-434
3,2620,721086,-582,-1805,3065,-242,780,-415
3,2621,721094,-592,-1991,3277,-258,613,-369
3,2622,721101,-555,-2164,3245,-293,529,-353
3,2623,721109,-639,-2294,3173,-338,431,-340
3,2624,721116,-639,-2294,3173,-347,406,-349
3,2625,721124,-778,-2294,3177,-321,405,-331
3,2626,721131,-794,-2258,3193,-292,416,-331
3,2627,721139,-792,-2262,3233,-221,396,-301
3,2628,721146,-792,-2262,3233,-197,391,-286
3,2629,721153,-820,-2267,3246,-177,388,-287
3,2630,721161,-855,-2248,3307,-185,371,-299
3,2631,721168,-789,-2144,3354,-221,252,-299
3,2632,721176,-789,-2144,3354,-241,190,-284
3,2633,721183,-644,-2033,3246,-240,41,-224
3,2634,721191,-566,-2063,3035,-224,-7,-192
3,2635,721198,-667,-2126,2890,-177,-18,-159
3,2636,721206,-667,-2126,2890,-155,15,-151
3,2637,721213,-699,-2058,2865,-111,53,-107
3,2638,721220,-630,-2128,2863,-67,65,-61
3,2639,721228,-697,-2435,2900,38,139,-3
3,2640,721235,-697,-2435,2900,81,179,-6
3,2641,721243,-829,-2487,3122,82,203,-9
3,2642,721250,-874,-2332,3349,63,185,-1
3,2643,721258,-876,-2292,3429,48,101,11
3,2644,721265,-876,-2292,3429,51,57,18
3,2645,721273,-937,-2305,3419,40,22,17
3,2646,721280,-1044,-2333,3410,26,15,1
3,2647,721288,-982,-2296,3361,8,-8,-7
3,2648,721295,-982,-2296,3361,8,-15,-6
3,2649,721303,-904,-2291,3286,20,-24,-3
3,2650,721310,-887,-2328,3236,23,-25,-5
3,2651,721317,-884,-2315,3242,17,-6,-8
3,2652,721325,-884,-2315,3242,8,-12,-9
3,2653,721332,-827,-2199,3279,2,-55,14
3,2654,721340,-769,-2175,3206,10,-84,35
3,2655,721347,-747,-2296,3066,58,-96,71
3,2656,721355,-747,-2296,3066,84,-72,85
3,2657,721362,-827,-2441,3018,122,34,98
3,2658,721370,-971,-2565,3151,137,101,87
3,2659,721377,-1033,-2510,3429,151,173,60
3,2660,721385,-1033,-2510,3429,148,150,61
3,2661,721392,-973,-2420,3607,140,41,65
3,2662,721399,-921,-2420,3577,129,-12,69
3,2663,721407,-950,-2457,3463,98,-71,62
3,2664,721414,-950,-2457,3463,74,-82,48
3,2665,721422,-1008,-2365,3382,45,-68,34
3,2666,721429,-1015,-2236,3316,46,-57,29
3,2667,721437,-1043,-2248,3284,78,5,31
3,2668,721444,-1043,-2248,3284,94,53,25
3,2669,721452,-1077,-2329,3357,100,117,-2
3,2670,721459,-1016,-2359,3463,87,121,-9
3,2671,721467,-936,-2349,3540,53,63,-22
3,2672,721474,-936,-2349,3540,31,21,-24
3,2673,721481,-910,-2326,3539,-5,-57,-24
3,2674,721489,-889,-2264,3430,-16,-86,-21
3,2675,721496,-840,-2201,3264,-20,-121,-11
3,2676,721504,-840,-2201,3264,-8,-121,9
3,2677,721511,-878,-2307,3113,26,-8,11
3,2678,721519,-1101,-2436,3161,37,93,-9
3,2679,721526,-1116,-2312,3432,46,204,-38
3,2680,721534,-1116,-2312,3432,46,198,-43
3,2681,721541,-974,-2212,3603,43,89,-21
3,2682,721548,-869,-2344,3563,38,32,-10
3,2683,721556,-911,-2485,3430,-3,-29,-25
3,2684,721563,-911,-2485,3430,-33,-28,-36
3,2685,721571,-980,-2420,3391,-75,-31,-57
3,2686,721578,-937,-2241,3362,-79,-37,-61
3,2687,721586,-878,-2160,3266,-49,-45,-33
3,2688,721593,-878,-2160,3266,-26,-26,-20
3,2689,721601,-875,-2236,3176,13,40,-9
3,2690,721608,-888,-2284,3190,18,72,-7
3,2691,721615,-906,-2298,3300,11,103,-3
3,2692,721623,-906,-2298,3300,9,105,-6
3,2693,721630,-887,-2285,3386,3,64,5
3,2694,721638,-869,-2294,3421,3,30,14
3,2695,721645,-961,-2390,3408,-4,2,21
3,2696,721653,-961,-2390,3408,-12,8,14
3,2697,721660,-966,-2363,3371,-19,16,10
3,2698,721668,-911,-2267,3349,-20,18,14
3,2699,721675,-844,-2291,3319,-8,-6,37
3,2700,721683,-844,-2291,3319,-1,-6,50
3,2701,721690,-849,-2435,3277,12,0,52
3,2702,721698,-851,-2432,3298,10,0,53
3,2703,721705,-849,-2317,3331,-13,-22,65
3,2704,721713,-849,-2317,3331,-16,-31,73
3,2705,721720,-854,-2269,3302,-3,-27,99
3,2706,721728,-879,-2275,3282,10,-19,103
3,2707,721735,-926,-2246,3297,20,1,110
3,2708,721743,-926,-2246,3297,19,8,116
3,2709,721750,-960,-2243,3343,16,11,117
3,2710,721757,-992,-2301,3374,19,7,114
3,2711,721765,-992,-2326,3389,16,-7,108
3,2712,721772,-992,-2326,3389,10,-24,101
3,2713,721780,-995,-2290,3391,-7,-49,93
3,2714,721787,-975,-2245,3359,-13,-66,91
3,2715,721795,-957,-2231,3303,-12,-83,90
3,2716,721802,-957,-2231,3303,-4,-79,92
3,2717,721810,-937,-2235,3239,16,-64,95
3,2718,721817,-921,-2261,3193,29,-50,106
3,2719,721825,-955,-2323,3208,59,1,110
3,2720,721832,-955,-2323,3208,69,25,107
3,2721,721840,-992,-2348,3305,71,40,97
3,2722,721847,-1014,-2318,3437,67,33,97
3,2723,721855,-1034,-2300,3479,51,-9,89
3,2724,721862,-1034,-2300,3479,45,-30,83
3,2725,721869,-1068,-2306,3466,27,-54,70
3,2726,721877,-1104,-2326,3420,22,-48,60
3,2727,721884,-1078,-2290,3394,8,-28,34
3,2728,721892,-1078,-2290,3394,6,-25,29
3,2729,721899,-1012,-2254,3385,12,-27,30
3,2730,721907,-1005,-2323,3343,21,-18,28
3,2731,721914,-1040,-2312,3349,23,6,3
3,2732,721922,-1040,-2312,3349,10,10,-5
3,2733,721929,-1023,-2182,3389,-9,2,-6
3,2734,721937,-971,-2124,3345,-6,-10,-1
3,2735,721944,-925,-2136,3259,23,-5,15
3,2736,721952,-925,-2136,3259,39,10,24
3,2737,721959,-927,-2213,3208,59,73,26
3,2738,721967,-979,-2267,3274,57,100,21
3,2739,721974,-982,-2246,3383,46,109,19
3,2740,721981,-982,-2246,3383,45,88,24
3,2741,721989,-946,-2320,3432,58,65,38
3,2742,721996,-1015,-2470,3465,58,67,25
3,2743,722004,-1056,-2391,3560,15,40,-3
3,2744,722011,-1056,-2391,3560,-12,0,-4
3,2745,722019,-971,-2230,3535,-34,-89,3
3,2746,722026,-954,-2202,3372,-28,-104,9
3,2747,722034,-963,-2220,3220,-10,-73,14
3,2748,722041,-963,-2220,3220,-3,-41,15
3,2749,722049,-967,-2229,3178,12,32,21
3,2750,722056,-1014,-2241,3268,19,61,15
3,2751,722064,-1017,-2192,3405,24,81,11
3,2752,722071,-1017,-2192,3405,23,68,18
3,2753,722078,-995,-2221,3460,23,15,25
3,2754,722086,-1021,-2398,3429,23,11,22
3,2755,722093,-1053,-2448,3428,9,31,-5
3,2756,722101,-1053,-2448,3428,-8,32,-18
3,2757,722108,-1004,-2283,3467,-24,-23,-10
3,2758,722116,-949,-2203,3401,-22,-45,-2
3,2759,722123,-931,-2245,3272,-7,-47,8
3,2760,722131,-931,-2245,3272,-1,-31,10
3,2761,722138,-935,-2264,3218,6,11,16
3,2762,722146,-945,-2234,3251,13,52,22
3,2763,722153,-968,-2252,3333,18,62,28
3,2764,722161,-980,-2277,3418,30,69,32
3,2765,722168,-980,-2277,3418,30,50,32
3,2766,722176,-960,-2264,3469,11,-4,37
3,2767,722183,-954,-2220,3437,3,-35,41
3,2768,722191,-955,-2246,3339,-17,-64,48
3,2769,722198,-955,-2246,3339,-12,-61,46
3,2770,722205,-979,-2260,3277,-8,-40,39
3,2771,722213,-1004,-2189,3287,-5,-30,43
3,2772,722220,-1012,-2236,3298,11,-10,50
3,2773,722228,-1012,-2236,3298,25,2,46
3,2774,722235,-1037,-2303,3343,29,31,28
3,2775,722243,-1019,-2242,3426,19,19,27
3,2776,722250,-973,-2227,3418,8,-30,35
3,2777,722258,-973,-2227,3418,9,-55,34
3,2778,722265,-983,-2249,3363,5,-67,28
3,2779,722273,-1039,-2222,3332,-3,-55,29
3,2780,722280,-1061,-2178,3323,-1,-13,16
3,2781,722288,-1061,-2178,3323,6,-1,15
3,2782,722295,-1011,-2165,3337,37,4,31
3,2783,722302,-1005,-2349,3328,55,18,36
3,2784,722310,-1173,-2489,3429,50,75,-13
3,2785,722317,-1173,-2489,3429,17,94,-39
3,2786,722325,-1139,-2262,3627,-40,7,-44
3,2787,722332,-978,-2158,3584,-34,-53,-38
3,2788,722340,-904,-2214,3337,-9,-130,-17
3,2789,722347,-904,-2214,3337,-2,-121,-12
3,2790,722355,-960,-2313,3149,-6,-22,-27
3,2791,722362,-1019,-2288,3162,-8,36,-33
3,2792,722369,-981,-2191,3323,12,97,-29
3,2793,722377,-981,-2191,3323,27,78,-24
3,2794,722384,-938,-2161,3421,43,32,-7
3,2795,722392,-960,-2218,3412,40,17,3
3,2796,722399,-986,-2313,3361,31,18,-2
3,2797,722407,-986,-2313,3361,29,31,-7
3,2798,722414,-1007,-2331,3361,26,63,-8
3,2799,722422,-1048,-2297,3424,26,75,-12
3,2800,722429,-1054,-2246,3490,24,68,-22
3,2801,722437,-1054,-2246,3490,19,51,-21
3,2802,722444,-1037,-2230,3491,-1,16,-25
3,2803,722451,-1044,-2239,3441,-13,15,-31
3,2804,722459,-1043,-2227,3404,-29,18,-43
3,2805,722466,-1043,-2227,3404,-33,21,-45
3,2806,722474,-997,-2239,3387,-29,6,-44
3,2807,722481,-962,-2232,3358,-27,-2,-44
3,2808,722489,-933,-2226,3310,-29,-10,-35
3,2809,722496,-933,-2226,3310,-31,-8,-36
3,2810,722504,-929,-2220,3287,-28,-7,-24
3,2811,722511,-936,-2197,3286,-22,-3,-17
3,2812,722518,-961,-2194,3274,-7,13,-9
3,2813,722526,-961,-2194,3274,2,30,-3
3,2814,722533,-991,-2234,3293,21,66,2
3,2815,722541,-973,-2278,3350,27,70,5
3,2816,722548,-978,-2289,3413,22,50,7
3,2817,722556,-978,-2289,3413,13,29,4
3,2818,722563,-977,-2284,3425,-4,-18,4
3,2819,722571,-991,-2232,3388,-14,-32,1
3,2820,722578,-978,-2188,3330,-9,-40,9
3,2821,722585,-978,-2188,3330,2,-31,16
3,2822,722593,-962,-2247,3258,32,4,23
3,2823,722600,-985,-2314,3262,39,27,21
3,2824,722608,-999,-2270,3359,33,43,15
3,2825,722615,-999,-2270,3359,25,40,19
3,2826,722623,-970,-2228,3413,27,12,20
3,2827,722630,-959,-2214,3409,33,-14,27
3,2828,722638,-1013,-2268,3357,30,-25,35
3,2829,722645,-1013,-2268,3357,28,-8,29
3,2830,722653,-1091,-2309,3358,17,32,1
3,2831,722660,-1113,-2222,3430,11,42,-2
3,2832,722667,-1072,-2199,3468,16,36,-5
3,2833,722675,-1072,-2199,3468,22,27,-9
3,2834,722682,-1027,-2243,3446,16,-3,-16
3,2835,722690,-1010,-2284,3384,6,-3,-16
3,2836,722697,-1014,-2281,3347,-7,8,-27
3,2837,722705,-1014,-2281,3347,-15,18,-32
3,2838,722712,-993,-2208,3362,-3,7,-24
3,2839,722720,-942,-2192,3338,8,-3,-13
3,2840,722727,-999,-2307,3298,29,22,-4
3,2841,722734,-999,-2307,3298,27,50,-19
3,2842,722742,-1047,-2273,3376,-1,67,-30
3,2843,722749,-970,-2169,3451,-4,38,-20
3,2844,722757,-938,-2240,3391,7,-14,1
3,2845,722764,-938,-2240,3391,13,-19,0
3,2846,722772,-1004,-2300,3353,-4,0,-10
3,2847,722779,-1024,-2217,3377,-18,6,-15
3,2848,722787,-973,-2138,3375,-23,-7,-11
3,2849,722794,-973,-2138,3375,-10,-22,-2
3,2850,722802,-960,-2205,3321,17,-4,11
3,2851,722809,-1100,-2364,3310,19,40,-7
3,2852,722816,-1046,-2293,3422,3,83,-24
3,2853,722824,-1046,-2293,3422,-2,65,-23
3,2854,722831,-938,-2182,3490,-1,-35,-6
3,2855,722839,-888,-2215,3384,1,-74,8
3,2856,722846,-977,-2317,3244,2,-56,6
3,2857,722854,-977,-2317,3244,-7,-15,-6
3,2858,722861,-1050,-2221,3284,-13,46,-6
3,2859,722869,-1008,-2146,3382,0,48,0
3,2860,722876,-992,-2199,3420,29,15,13
3,2861,722884,-992,-2199,3420,29,6,20
3,2862,722891,-1035,-2324,3408,8,9,-5
3,2863,722898,-1044,-2282,3404,-11,13,-14
3,2864,722906,-969,-2171,3405,-28,-6,-8
3,2865,722913,-969,-2171,3405,-19,-21,-1
3,2866,722921,-916,-2161,3356,4,-51,20
3,2867,722928,-990,-2242,3294,7,-37,21
3,2868,722936,-1074,-2280,3283,-2,22,9
3,2869,713986,99,-36,4156,-2,5,-1
3,2870,713994,99,-36,4156,-3,5,-2
3,2871,714001,93,-40,4153,-2,4,-2
3,2872,714009,101,-37,4153,-1,4,-2
3,2873,714016,105,-34,4153,-1,2,0
3,2874,714023,105,-34,4153,-1,4,0
3,2875,714031,97,-40,4144,0,4,0
3,2876,714038,102,-37,4146,0,4,1
3,2877,714046,102,-35,4152,1,3,-2
3,2878,714053,102,-35,4152,-1,3,0
3,2879,714061,95,-36,4152,-2,5,-2
3,2880,714068,97,-42,4147,-1,4,-1
3,2881,714076,95,-39,4148,-2,3,-2
3,2882,714083,95,-39,4148,1,1,-1
3,2883,714091,100,-39,4148,-1,3,-1
3,2884,714098,98,-38,4147,-1,3,-2
3,2885,714105,96,-39,4151,0,3,0
3,2886,714113,96,-39,4151,0,4,0
3,2887,714120,97,-35,4154,0,5,0
3,2888,714128,97,-37,4147,0,4,-1
3,2889,714135,101,-41,4147,-1,5,0
3,2890,714143,101,-41,4147,-2,6,-2
3,2891,714150,104,-36,4148,-1,4,0
3,2892,714158,104,-34,4156,-2,5,-1
3,2893,714165,104,-35,4148,2,3,-2
3,2894,714172,104,-35,4148,-1,3,0
3,2895,714180,99,-38,4147,-2,3,0
3,2896,714187,92,-35,4149,-1,3,0
3,2897,714195,107,-34,4142,-2,4,-1
3,2898,714202,107,-34,4142,-1,3,0
3,2899,714210,98,-41,4147,-1,5,-1
3,2900,714217,94,-43,4142,-1,6,0
3,2901,714225,99,-36,4149,-1,2,0
3,2902,714232,99,-36,4149,-1,3,-1
3,2903,714240,100,-41,4144,0,3,2
3,2904,714247,100,-32,4152,-2,3,0
3,2905,714254,98,-37,4146,-2,6,-1
3,2906,714262,98,-37,4146,2,5,-1
3,2907,714269,96,-43,4154,0,2,2
3,2908,714277,99,-37,4153,-2,4,-1
3,2909,714284,100,-37,4151,-3,4,0
3,2910,714292,100,-37,4151,0,5,-2
3,2911,714299,94,-37,4152,-2,4,1
3,2912,714307,95,-38,4147,0,4,1
3,2913,714314,106,-41,4150,0,1,0
3,2914,714322,106,-41,4150,-1,4,-2
3,2915,714329,100,-33,4153,-2,3,0
3,2916,714336,94,-31,4151,-1,6,-1
3,2917,714344,104,-28,4146,1,4,1
3,2918,714351,104,-28,4146,-1,2,-1
3,2919,714359,101,-36,4153,1,4,0
3,2920,714366,95,-33,4152,0,4,-1
3,2921,714374,95,-33,4147,1,2,-1
3,2922,714381,95,-33,4147,1,3,2
3,2923,714389,100,-37,4149,1,4,-1
3,2924,714396,102,-42,4153,-1,1,0
3,2925,714403,96,-36,4151,-1,5,-2
3,2926,714411,96,-36,4151,0,5,2
3,2927,714418,101,-31,4148,-1,2,0
3,2928,714426,104,-34,4149,1,5,0
3,2929,714433,104,-33,4149,-2,5,-2
3,2930,714441,104,-33,4149,0,5,0
3,2931,714448,98,-39,4151,-1,6,-1
3,2932,714456,94,-38,4143,2,5,-1
3,2933,714463,103,-40,4143,-2,3,0
3,2934,714471,103,-40,4143,0,3,0
3,2935,714478,101,-38,4149,0,2,0
3,2936,714485,97,-31,4150,-1,4,-1
3,2937,714493,104,-36,4145,-1,3,0
3,2938,714500,104,-36,4145,-1,3,2
3,2939,714508,96,-35,4148,0,3,0
3,2940,714515,93,-36,4148,-1,2,-1
3,2941,714523,97,-37,4149,-2,6,0
3,2942,714530,97,-37,4149,0,3,-1
3,2943,714538,100,-38,4156,-2,3,-1
3,2944,714545,94,-34,4149,0,3,-2
3,2945,714552,100,-36,4146,1,3,1
3,2946,714560,100,-36,4146,2,3,0
3,2947,714567,103,-38,4153,0,4,0
3,2948,714575,104,-39,4154,-1,2,-1
3,2949,714582,98,-39,4146,-2,3,-2
3,2950,714590,98,-39,4146,-1,4,1
3,2951,714597,96,-39,4153,-1,3,-2
3,2952,714605,100,-35,4154,-1,1,-1
3,2953,714612,97,-40,4156,0,5,0
3,2954,714619,97,-40,4156,0,5,0
3,2955,714627,104,-38,4151,-1,4,0
3,2956,714634,100,-35,4145,-2,5,-2
3,2957,714642,102,-34,4146,1,1,3
3,2958,714649,102,-34,4146,0,4,1
3,2959,714657,100,-41,4151,1,4,1
3,2960,714664,98,-33,4151,1,2,-1
3,2961,714672,99,-40,4145,0,2,1
3,2962,714679,99,-40,4145,-2,4,0
3,2963,714687,98,-36,4149,-1,5,-1
3,2964,714694,101,-32,4148,0,4,-1
3,2965,714701,97,-38,4152,0,4,-2
3,2966,714709,97,-38,4152,1,5,0
3,2967,714716,100,-36,4158,0,3,-1
3,2968,714724,93,-39,4151,1,3,-2
3,2969,714731,100,-36,4147,0,4,0
3,2970,714739,100,-36,4147,0,6,-2
3,2971,714746,105,-35,4152,-2,3,1
3,2972,714754,98,-35,4155,0,5,0
3,2973,714761,93,-36,4147,-2,2,-2
3,2974,714768,93,-36,4147,-1,4,-1
3,2975,714776,101,-35,4150,0,5,-1
3,2976,714783,105,-36,4146,-1,4,-2
3,2977,714791,100,-39,4147,-1,3,0
3,2978,714798,100,-39,4147,-2,3,0
3,2979,714806,103,-35,4151,-1,4,0
3,2980,714813,95,-35,4153,1,4,0
3,2981,714821,96,-37,4145,-2,3,-1
3,2982,714828,96,-37,4145,0,4,-3
3,2983,714835,106,-35,4147,1,3,-2
3,2984,714843,102,-43,4147,-1,3,-3
3,2985,714850,100,-43,4144,0,4,0
3,2986,714858,100,-43,4144,-3,3,-1
3,2987,714865,98,-40,4153,-1,7,-3
3,2988,714873,101,-36,4148,0,5,-1
3,2989,714880,98,-36,4147,-1,5,0
3,2990,714888,98,-36,4147,1,4,1
3,2991,714895,99,-35,4153,1,2,0
3,2992,714903,96,-34,4153,0,5,0
3,2993,714910,97,-33,4150,1,0,2
3,2994,714917,97,-33,4150,0,2,-1
3,2995,714925,97,-32,4143,0,2,0
