event_id,seq,ts_ms,ax,ay,az,gx,gy,gz
2,1000,408973,-1759,-2513,2757,313,126,-867
2,1001,408981,-1540,-2294,2598,334,119,-856
2,1002,408988,-1207,-2301,2857,365,1,-795
2,1003,408996,-1207,-2301,2857,337,-183,-766
2,1004,409003,-1229,-2527,2797,305,-214,-766
2,1005,409010,-1349,-2624,2239,307,-70,-758
2,1006,409018,-1239,-2525,2534,340,122,-730
2,1007,409025,-1239,-2525,2534,366,101,-705
2,1008,409033,-1101,-2319,2961,377,-57,-638
2,1009,409040,-1204,-2298,2828,373,-94,-602
2,1010,409048,-1428,-2536,2672,371,-22,-588
2,1011,409055,-1428,-2536,2672,368,15,-598
2,1012,409063,-1608,-2764,3041,333,-83,-630
2,1013,409070,-1714,-2944,3295,304,-154,-662
2,1014,409077,-1702,-2901,3186,265,-249,-740
2,1015,409085,-1702,-2901,3186,253,-286,-763
2,1016,409092,-1467,-2729,3056,241,-329,-780
2,1017,409100,-1162,-2649,2914,233,-334,-784
2,1018,409107,-948,-2590,2788,205,-286,-759
2,1019,409115,-948,-2590,2788,194,-248,-725
2,1020,409122,-860,-2568,2857,184,-227,-655
2,1021,409130,-856,-2604,2951,186,-238,-614
2,1022,409137,-866,-2670,2890,189,-207,-549
2,1023,409144,-866,-2670,2890,190,-182,-515
2,1024,409152,-853,-2697,2935,178,-162,-459
2,1025,409159,-1020,-2784,3109,171,-186,-444
2,1026,409167,-1187,-2802,3107,157,-220,-451
2,1027,409174,-1187,-2802,3107,158,-198,-444
2,1028,409182,-1164,-2698,2997,166,-160,-441
2,1029,409189,-1019,-2588,3008,173,-147,-425
2,1030,409197,-866,-2508,3002,171,-148,-396
2,1031,409204,-866,-2508,3002,163,-146,-373
2,1032,409212,-809,-2413,2957,135,-128,-341
2,1033,409219,-782,-2453,2916,69,-92,-268
2,1034,409226,-845,-2506,2902,226,-49,-243
2,1035,409234,-845,-2506,2902,255,-54,-229
2,1036,409241,-769,-2504,2912,237,12,-110
2,1037,409249,-827,-2641,2818,313,61,-108
2,1038,409256,-984,-2797,3067,384,98,-116
2,1039,409264,-984,-2797,3067,293,77,-130
2,1040,409271,-1123,-2952,3359,-33,-21,-260
2,1041,409279,-1021,-2850,3442,-199,-109,-311
2,1042,409286,-1047,-2637,2967,-81,-187,-202
2,1043,409293,-1047,-2637,2967,150,-146,-199
2,1044,409301,-1123,-2585,2758,296,27,-150
2,1045,409308,-1051,-2686,3048,274,94,-117
2,1046,409316,-937,-2783,3401,64,-61,-215
2,1047,409323,-937,-2783,3401,40,-162,-237
2,1048,409331,-782,-2586,3144,6,-182,-147
2,1049,409338,-816,-2625,2988,4,-159,-135
2,1050,409346,-715,-2652,3066,4,-196,-112
2,1051,409353,-715,-2652,3066,39,-220,-87
2,1052,409360,-559,-2638,2956,84,-180,12
2,1053,409368,-641,-2762,2879,99,-140,33
2,1054,409375,-775,-2856,2956,171,-29,84
2,1055,409383,-775,-2856,2956,175,-5,103
2,1056,409390,-961,-2854,3176,173,-46,83
2,1057,409398,-920,-2742,3160,208,-66,106
2,1058,409405,-864,-2820,3177,163,-95,149
2,1059,409413,-864,-2820,3177,135,-103,135
2,1060,409420,-858,-2933,3084,162,-56,123
2,1061,409428,-873,-2851,3124,162,-39,129
2,1062,409435,-807,-2744,3171,145,-61,136
2,1063,409443,-807,-2744,3171,134,-70,150
2,1064,409450,-637,-2590,3080,123,-82,209
2,1065,409457,-584,-2517,2972,131,-72,245
2,1066,409465,-698,-2551,2983,147,-30,303
2,1067,409472,-698,-2551,2983,149,-21,322
2,1068,409480,-821,-2592,3107,146,-49,355
2,1069,409487,-906,-2634,3189,140,-70,365
2,1070,409495,-1032,-2659,3196,145,-99,369
2,1071,409502,-1032,-2659,3196,144,-106,369
2,1072,409510,-1025,-2649,3174,158,-114,373
2,1073,409517,-977,-2695,3151,163,-110,368
2,1074,409525,-945,-2626,3094,159,-113,361
2,1075,409532,-945,-2626,3094,152,-92,366
2,1076,409540,-885,-2533,3027,151,-57,388
2,1077,409547,-803,-2467,3042,160,-49,404
2,1078,409554,-926,-2408,3035,182,-12,435
2,1079,409562,-926,-2408,3035,193,18,438
2,1080,409569,-1136,-2359,3089,204,57,434
2,1081,409577,-1230,-2326,3187,205,53,426
2,1082,409584,-1331,-2397,3271,187,31,404
2,1083,409592,-1331,-2397,3271,179,24,378
2,1084,409599,-1440,-2488,3360,150,-11,321
2,1085,409607,-1420,-2534,3375,148,-29,293
2,1086,409614,-1274,-2498,3348,133,-86,246
2,1087,409621,-1274,-2498,3348,122,-107,236
2,1088,409629,-1074,-2468,3235,104,-126,239
2,1089,409636,-1029,-2498,3181,96,-124,225
2,1090,409644,-1087,-2464,3200,67,-110,219
2,1091,409651,-1087,-2464,3200,61,-99,221
2,1092,409659,-1128,-2389,3188,72,-68,235
2,1093,409666,-1242,-2369,3228,85,-54,213
2,1094,409674,-1354,-2343,3264,83,-43,201
2,1095,409681,-1354,-2343,3264,76,-16,192
2,1096,409689,-1468,-2401,3325,66,-15,127
2,1097,409696,-1377,-2407,3442,50,-45,112
2,1098,409704,-1286,-2419,3414,24,-111,78
2,1099,409711,-1286,-2419,3414,7,-132,61
2,1100,409719,-1243,-2444,3324,-24,-142,39
2,1101,409726,-1154,-2449,3305,-34,-150,25
2,1102,409734,-1068,-2358,3277,-62,-184,16
2,1103,409741,-1068,-2358,3277,-69,-189,17
2,1104,409748,-1019,-2261,3092,-55,-102,41
2,1105,409756,-1010,-2279,3021,-33,-50,51
2,1106,409763,-1116,-2363,3206,-1,-4,73
2,1107,409771,-1116,-2363,3206,8,3,72
2,1108,409778,-1292,-2506,3318,3,19,48
2,1109,409786,-1369,-2616,3403,-6,25,23
2,1110,409793,-1306,-2594,3449,-19,-17,-21
2,1111,409801,-1306,-2594,3449,-30,-41,-35
2,1112,409808,-1262,-2521,3371,-50,-60,-66
2,1113,409815,-1285,-2421,3271,-67,-51,-81
2,1114,409823,-1204,-2374,3279,-85,-29,-101
2,1115,409831,-1204,-2374,3279,-86,-43,-105
2,1116,409838,-1108,-2368,3292,-96,-53,-113
2,1117,409845,-1125,-2395,3240,-101,-55,-110
2,1118,409853,-1179,-2423,3188,-106,-24,-128
2,1119,409860,-1179,-2423,3188,-112,-3,-139
2,1120,409868,-1135,-2392,3175,-118,23,-144
2,1121,409875,-1056,-2421,3198,-114,33,-138
2,1122,409883,-1117,-2519,3264,-100,32,-140
2,1123,409890,-1117,-2519,3264,-100,28,-148
2,1124,409898,-1219,-2536,3331,-123,-4,-167
2,1125,409905,-1259,-2550,3378,-135,-36,-183
2,1126,409913,-1360,-2628,3324,-153,-58,-226
2,1127,409920,-1360,-2628,3324,-158,-56,-253
2,1128,409927,-1327,-2631,3304,-184,-40,-310
2,1129,409935,-1179,-2529,3405,-192,-94,-319
2,1130,409942,-1043,-2451,3250,-208,-165,-335
2,1131,409950,-1043,-2451,3250,-210,-160,-339
2,1132,409957,-938,-2354,3103,-226,-137,-330
2,1133,409965,-848,-2301,3076,-233,-128,-324
2,1134,409972,-810,-2292,3074,-234,-128,-297
2,1135,409980,-810,-2292,3074,-227,-123,-284
2,1136,409987,-869,-2339,3048,-208,-93,-260
2,1137,409995,-961,-2458,3106,-204,-88,-253
2,1138,410002,-1026,-2567,3263,-218,-121,-265
2,1139,410010,-1026,-2567,3263,-235,-162,-278
2,1140,410017,-961,-2597,3258,-249,-210,-281
2,1141,410024,-876,-2627,3150,-251,-213,-280
2,1142,410032,-876,-2614,3166,-262,-229,-295
2,1143,410039,-876,-2614,3166,-274,-249,-299
2,1144,410047,-850,-2492,3107,-284,-244,-277
2,1145,410054,-798,-2456,3021,-279,-231,-262
2,1146,410062,-720,-2505,3004,-257,-223,-227
2,1147,410069,-720,-2505,3004,-249,-208,-209
2,1148,410077,-693,-2559,2972,-237,-174,-180
2,1149,410084,-688,-2617,2982,-223,-163,-165
2,1150,410091,-634,-2638,2962,-179,-134,-128
2,1151,410099,-634,-2638,2962,-159,-116,-106
2,1152,410106,-606,-2676,2943,-126,-76,-63
2,1153,410114,-645,-2746,2971,-112,-54,-49
2,1154,410121,-675,-2765,3013,-98,-39,-20
2,1155,410129,-675,-2765,3013,-91,-28,-2
2,1156,410136,-703,-2795,3025,-71,1,16
2,1157,410144,-781,-2798,3098,-65,4,18
2,1158,410151,-817,-2710,3128,-50,-13,29
2,1159,410158,-817,-2710,3128,-43,-13,35
2,1160,410166,-768,-2621,3037,-21,11,56
2,1161,410173,-711,-2599,2973,-11,31,71
2,1162,410181,-692,-2647,3037,-2,68,94
2,1163,410188,-692,-2647,3037,-4,58,104
2,1164,410196,-716,-2667,3119,-15,30,115
2,1165,410203,-717,-2688,3085,-18,27,119
2,1166,410211,-740,-2679,3076,-15,30,135
2,1167,410218,-740,-2679,3076,-12,32,141
2,1168,410225,-774,-2645,3085,-8,38,159
2,1169,410233,-803,-2631,3089,-6,39,166
2,1170,410240,-877,-2664,3118,-18,47,169
2,1171,410248,-877,-2664,3118,-23,44,164
2,1172,410255,-905,-2670,3170,-35,13,158
2,1173,410263,-900,-2662,3139,-35,6,157
2,1174,410270,-916,-2668,3059,-23,45,153
2,1175,410278,-916,-2668,3059,-14,69,150
2,1176,410285,-899,-2667,3117,-17,65,152
2,1177,410292,-872,-2657,3160,-26,52,150
2,1178,410300,-840,-2648,3107,-55,33,148
2,1179,410307,-840,-2648,3107,-69,39,154
2,1180,410315,-853,-2631,3054,-67,58,157
2,1181,410322,-861,-2629,3088,-65,60,164
2,1182,410330,-859,-2634,3106,-63,42,169
2,1183,410337,-859,-2634,3106,-66,38,175
2,1184,410345,-857,-2682,3086,-67,44,178
2,1185,410352,-900,-2760,3121,-71,46,175
2,1186,410359,-987,-2758,3191,-81,25,167
2,1187,410367,-987,-2758,3191,-91,3,158
2,1188,410374,-1028,-2705,3154,-101,-14,149
2,1189,410382,-984,-2692,3074,-97,-7,144
2,1190,410389,-1002,-2714,3071,-86,21,143
2,1191,410397,-1002,-2714,3071,-83,31,137
2,1192,410404,-1061,-2722,3103,-84,36,118
2,1193,410412,-1047,-2695,3096,-84,35,112
2,1194,410419,-937,-2663,3078,-87,22,110
2,1195,410427,-937,-2663,3078,-85,14,110
2,1196,410434,-861,-2659,3012,-86,21,123
2,1197,410441,-896,-2669,3008,-91,27,123
2,1198,410449,-971,-2670,3049,-96,28,119
2,1199,410456,-971,-2670,3049,-97,25,117
2,1200,410464,-979,-2652,3037,-91,25,118
2,1201,410471,-959,-2635,3015,-83,26,121
2,1202,410479,-1005,-2700,3028,-77,49,127
2,1203,410486,-1005,-2700,3028,-76,49,116
2,1204,410494,-1071,-2698,3102,-94,25,107
2,1205,410501,-1088,-2677,3103,-98,7,96
2,1206,410508,-1023,-2647,3025,-101,-11,90
2,1207,410516,-1023,-2647,3025,-92,1,89
2,1208,410523,-975,-2637,2996,-94,13,98
2,1209,410531,-983,-2652,3074,-95,-4,93
2,1210,410538,-989,-2684,3077,-119,-26,92
2,1211,410546,-989,-2684,3077,-162,-37,84
2,1212,410553,-946,-2692,2983,-105,-14,94
2,1213,410561,-993,-2720,2969,-83,2,102
2,1214,410568,-1028,-2778,3068,-123,4,85
2,1215,410575,-1028,-2778,3068,-135,-7,79
2,1216,410583,-985,-2688,3053,-143,-32,82
2,1217,410590,-977,-2576,2954,-132,-29,90
2,1218,410598,-991,-2588,2953,-106,4,109
2,1219,410605,-991,-2588,2953,-105,-3,108
2,1220,410613,-977,-2630,3077,-144,-74,111
2,1221,410620,-959,-2654,3022,-155,-92,114
2,1222,410628,-874,-2705,2877,-143,-60,137
2,1223,410635,-874,-2705,2877,-119,-24,158
2,1224,410643,-919,-2792,2893,-118,-14,134
2,1225,410650,-1066,-2719,3075,-134,-50,145
2,1226,410658,-1057,-2750,2955,-103,-57,143
2,1227,410665,-1057,-2750,2955,-94,-39,138
2,1228,410672,-967,-2722,2944,-110,-43,147
2,1229,410680,-917,-2666,3003,-120,-62,151
2,1230,410687,-917,-2655,2975,-136,-81,172
2,1231,410695,-917,-2655,2975,-141,-78,172
2,1232,410702,-990,-2631,2979,-162,-88,181
2,1233,410710,-1032,-2632,3011,-160,-98,184
2,1234,410717,-1060,-2683,3042,-171,-120,186
2,1235,410725,-1060,-2683,3042,-183,-138,178
2,1236,410732,-1040,-2710,3032,-190,-166,171
2,1237,410740,-1004,-2714,2977,-190,-166,173
2,1238,410747,-974,-2726,2921,-187,-161,178
2,1239,410755,-974,-2726,2921,-181,-151,183
2,1240,410762,-974,-2759,2881,-182,-105,199
2,1241,410769,-997,-2831,2886,-173,-82,198
2,1242,410777,-1027,-2816,2972,-159,-80,197
2,1243,410784,-1027,-2816,2972,-155,-94,200
2,1244,410792,-1066,-2810,3023,-170,-119,196
2,1245,410799,-1106,-2819,3059,-182,-138,188
2,1246,410807,-1120,-2777,3065,-203,-196,174
2,1247,410814,-1120,-2777,3065,-204,-226,172
2,1248,410822,-1110,-2746,3025,-217,-270,164
2,1249,410829,-1114,-2761,2922,-214,-270,153
2,1250,410836,-1104,-2824,2890,-213,-240,155
2,1251,410844,-1104,-2824,2890,-214,-224,146
2,1252,410851,-1103,-2888,2897,-203,-188,126
2,1253,410859,-1117,-2925,2933,-189,-176,121
2,1254,410866,-1124,-2918,2943,-164,-154,104
2,1255,410874,-1124,-2918,2943,-154,-145,99
2,1256,410881,-1109,-2833,2927,-172,-130,81
2,1257,410889,-1050,-2734,2875,-174,-128,85
2,1258,410896,-1011,-2742,2788,-129,-87,96
2,1259,410904,-1011,-2742,2788,-121,-63,97
2,1260,410911,-1006,-2813,2824,-116,-30,97
2,1261,410919,-1035,-2825,2907,-108,-30,96
2,1262,410926,-1117,-2837,2961,-116,-43,83
2,1263,410933,-1117,-2837,2961,-128,-52,74
2,1264,410941,-1145,-2843,2984,-134,-84,58
2,1265,410948,-1116,-2834,2962,-139,-105,53
2,1266,410956,-1060,-2819,2860,-137,-112,40
2,1267,410963,-1060,-2819,2860,-133,-102,45
2,1268,410971,-990,-2830,2811,-133,-91,50
2,1269,410978,-970,-2822,2810,-124,-89,49
2,1270,410986,-1007,-2795,2736,-109,-53,57
2,1271,410993,-1007,-2795,2736,-86,-15,60
2,1272,411001,-1017,-2735,2731,-56,38,79
2,1273,411008,-1027,-2734,2843,-55,39,82
2,1274,411015,-1050,-2811,2903,-65,20,78
2,1275,411023,-1050,-2811,2903,-62,11,70
2,1276,411030,-1095,-2860,2919,-67,-13,57
2,1277,411038,-1104,-2849,2911,-67,-25,51
2,1278,411045,-1090,-2887,2876,-65,-38,44
2,1279,411053,-1090,-2887,2876,-57,-24,35
2,1280,411060,-1105,-2924,2816,-31,19,16
2,1281,411068,-1074,-2843,2823,-22,33,21
2,1282,411075,-1035,-2826,2900,-33,13,20
2,1283,411083,-1035,-2826,2900,-47,-2,18
2,1284,411090,-1030,-2841,2847,-54,2,12
2,1285,411098,-1041,-2834,2820,-47,10,13
2,1286,411105,-1069,-2872,2860,-26,14,15
2,1287,411112,-1069,-2872,2860,-23,11,9
2,1288,411120,-1094,-2893,2888,-27,4,-3
2,1289,411127,-1081,-2858,2874,-34,1,-6
2,1290,411135,-1064,-2807,2835,-34,5,-14
2,1291,411142,-1064,-2807,2835,-28,11,-8
2,1292,411150,-1054,-2817,2824,-29,18,-13
2,1293,411157,-1058,-2817,2861,-31,10,-18
2,1294,411165,-1058,-2795,2835,-28,1,-20
2,1295,411172,-1058,-2795,2835,-22,7,-21
2,1296,411179,-1059,-2802,2820,-16,17,-22
2,1297,411187,-1051,-2805,2855,-15,15,-21
2,1298,411194,-1058,-2816,2846,-17,11,-28
2,1299,411202,-1058,-2816,2846,-14,14,-27
2,1300,411209,-1064,-2844,2833,-10,15,-28
2,1301,411217,-1042,-2880,2842,-5,12,-33
2,1302,411224,-1023,-2860,2815,-1,11,-32
2,1303,411232,-1023,-2860,2815,3,13,-33
2,1304,411239,-998,-2831,2798,15,23,-24
2,1305,411246,-1008,-2853,2817,17,33,-22
2,1306,411254,-1037,-2843,2874,15,21,-26
2,1307,411261,-1037,-2843,2874,13,6,-27
2,1308,411269,-1019,-2807,2853,8,1,-18
2,1309,411276,-1016,-2834,2821,8,8,-17
2,1310,411284,-1089,-2873,2875,8,14,-28
2,1311,411291,-1089,-2873,2875,10,3,-34
2,1312,411299,-1095,-2868,2910,1,-12,-21
2,1313,411306,-1034,-2894,2827,30,-6,-46
2,1314,411313,-977,-2909,2815,15,-2,-29
2,1315,411321,-977,-2909,2815,21,10,-28
2,1316,411328,-1042,-2927,2796,67,49,-43
2,1317,411336,-1105,-2850,2904,58,44,-43
2,1318,411343,-1051,-2846,2910,43,19,-50
2,1319,411351,-1051,-2846,2910,46,11,-51
2,1320,411358,-987,-2856,2846,42,23,-47
2,1321,411366,-992,-2869,2843,35,28,-45
2,1322,411373,-1080,-2852,2889,8,28,-44
2,1323,411380,-1080,-2852,2889,29,28,-58
2,1324,411388,-1108,-2773,2883,36,24,-53
2,1325,411395,-1046,-2765,2865,32,18,-55
2,1326,411403,-1010,-2851,2837,35,12,-60
2,1327,411410,-1010,-2851,2837,40,-4,-63
2,1328,411418,-1050,-2891,2857,40,22,-74
2,1329,411425,-1056,-2825,2892,43,44,-73
2,1330,411433,-1022,-2784,2922,43,24,-68
2,1331,411440,-1022,-2784,2922,40,25,-65
2,1332,411447,-980,-2838,2820,42,64,-61
2,1333,411455,-966,-2885,2859,45,70,-59
2,1334,411462,-992,-2848,2908,49,54,-56
2,1335,411470,-992,-2848,2908,49,48,-55
2,1336,411477,-980,-2843,2865,47,57,-41
2,1337,411485,-1000,-2867,2881,36,57,-44
2,1338,411492,-1024,-2861,2917,47,50,-45
2,1339,411500,-1024,-2861,2917,42,37,-42
2,1340,411507,-1038,-2848,2951,27,15,-51
2,1341,411515,-1035,-2865,2922,24,4,-54
2,1342,411522,-1032,-2892,2919,20,6,-54
2,1343,411529,-1032,-2892,2919,1,7,-58
2,1344,411537,-1007,-2873,2927,5,-9,-65
2,1345,411544,-967,-2804,2865,10,-8,-54
2,1346,411552,-983,-2792,2837,17,22,-52
2,1347,411559,-983,-2792,2837,21,31,-48
2,1348,411567,-980,-2805,2877,19,29,-38
2,1349,411574,-989,-2878,2897,17,33,-35
2,1350,411582,-1043,-2897,2950,7,31,-45
2,1351,411589,-1043,-2897,2950,6,19,-49
2,1352,411596,-1050,-2821,2953,8,6,-50
2,1353,411604,-1004,-2814,2894,5,10,-51
2,1354,411611,-963,-2847,2882,-2,11,-50
2,1355,411619,-963,-2847,2882,-3,5,-51
2,1356,411626,-941,-2810,2865,4,3,-40
2,1357,411634,-939,-2790,2827,2,10,-34
2,1358,411641,-930,-2817,2834,10,18,-28
2,1359,411649,-930,-2817,2834,5,16,-19
2,1360,411656,-957,-2847,2857,14,19,-13
2,1361,411663,-1013,-2859,2875,15,19,-15
2,1362,411671,-1026,-2856,2908,17,28,-16
2,1363,411678,-1026,-2856,2908,14,20,-16
2,1364,411686,-1013,-2880,2940,0,1,-23
2,1365,411693,-994,-2891,2903,-1,-2,-25
2,1366,411701,-981,-2867,2877,-3,-6,-26
2,1367,411708,-981,-2867,2877,3,-5,-24
2,1368,411716,-969,-2804,2824,20,30,-17
2,1369,411723,-987,-2780,2821,29,44,-12
2,1370,411730,-971,-2797,2880,23,38,-6
2,1371,411738,-971,-2797,2880,23,33,-6
2,1372,411745,-986,-2840,2887,24,35,-6
2,1373,411753,-1038,-2856,2905,22,33,-8
2,1374,411760,-1064,-2857,2925,19,33,-22
2,1375,411768,-1064,-2857,2925,18,34,-28
2,1376,411775,-1052,-2816,2940,5,14,-34
2,1377,411783,-1003,-2817,2901,7,11,-34
2,1378,411790,-990,-2872,2886,6,12,-33
2,1379,411798,-990,-2872,2886,8,16,-36
2,1380,411805,-1033,-2852,2908,8,10,-44
2,1381,411813,-1027,-2774,2901,6,6,-43
2,1382,411820,-963,-2778,2838,12,10,-37
2,1383,411827,-963,-2778,2838,15,20,-33
2,1384,411835,-966,-2811,2832,12,43,-31
2,1385,411842,-1029,-2835,2909,16,40,-34
2,1386,411850,-1024,-2810,2948,8,18,-40
2,1387,411857,-1024,-2810,2948,2,6,-40
2,1388,411865,-976,-2825,2885,3,13,-42
2,1389,411872,-978,-2880,2857,10,25,-44
2,1390,411880,-973,-2876,2913,18,28,-45
2,1391,411887,-973,-2876,2913,15,16,-42
2,1392,411895,-923,-2818,2871,17,25,-28
2,1393,411902,-922,-2816,2822,20,40,-21
2,1394,411910,-1000,-2818,2893,25,55,-15
2,1395,411917,-1000,-2818,2893,20,46,-15
2,1396,411924,-1037,-2806,2951,2,24,-21
2,1397,411932,-1019,-2829,2948,-4,16,-25
2,1398,411939,-1012,-2842,2899,-5,15,-30
2,1399,411947,-1012,-2842,2899,-5,20,-31
2,1400,411954,-998,-2819,2892,-5,27,-31
2,1401,411962,-959,-2819,2902,0,20,-29
2,1402,411969,-935,-2849,2895,1,12,-24
2,1403,411977,-935,-2849,2895,-10,7,-23
2,1404,411984,-931,-2862,2868,-6,19,-16
2,1405,411992,-922,-2852,2884,0,20,-8
2,1406,411999,-944,-2833,2890,0,14,-2
2,1407,412006,-944,-2833,2890,3,20,3
2,1408,412014,-964,-2809,2848,10,45,12
2,1409,412021,-992,-2856,2909,9,42,12
2,1410,412029,-1013,-2894,2962,0,14,4
2,1411,412036,-1013,-2894,2962,4,7,0
2,1412,412044,-1048,-2885,2914,14,15,-13
2,1413,412051,-1035,-2837,2908,12,13,-16
2,1414,412059,-992,-2825,2906,13,12,-15
2,1415,412066,-992,-2825,2906,7,6,-16
2,1416,412074,-964,-2799,2896,-3,5,-10
2,1417,412081,-956,-2758,2858,-7,8,-6
2,1418,412089,-951,-2796,2854,-12,15,5
2,1419,412096,-951,-2796,2854,-15,17,7
2,1420,412103,-964,-2878,2885,-10,15,6
2,1421,412111,-971,-2865,2893,-5,14,6
2,1422,412118,-985,-2819,2848,-3,14,8
2,1423,412126,-985,-2819,2848,-1,31,10
2,1424,412133,-1029,-2842,2873,4,31,3
2,1425,412141,-1059,-2849,2978,-1,14,-4
2,1426,412148,-1047,-2822,2914,-10,-11,-11
2,1427,412156,-1047,-2822,2914,-11,-4,-16
2,1428,412163,-1026,-2841,2880,-8,1,-20
2,1429,412171,-1014,-2862,2937,-8,-9,-26
2,1430,412178,-980,-2829,2901,-12,-28,-27
2,1431,412186,-980,-2829,2901,-14,-27,-24
2,1432,412193,-938,-2840,2815,-2,15,-17
2,1433,412200,-976,-2856,2832,6,40,-19
2,1434,412208,-971,-2832,2941,-2,29,-12
2,1435,412215,-971,-2832,2941,-5,4,-8
2,1436,412223,-935,-2847,2909,-4,2,-3
2,1437,412230,-929,-2852,2837,-1,13,2
2,1438,412238,-959,-2842,2872,4,24,4
2,1439,412245,-959,-2842,2872,8,19,9
2,1440,412253,-973,-2825,2897,9,18,14
2,1441,412260,-988,-2815,2891,5,16,14
2,1442,412268,-987,-2816,2899,-5,3,17
2,1443,412275,-987,-2816,2899,-5,4,15
2,1444,412283,-989,-2827,2892,-10,7,17
2,1445,412290,-995,-2844,2910,-12,6,14
2,1446,412298,-1001,-2851,2919,-11,0,12
2,1447,412305,-1001,-2851,2919,-13,-5,10
2,1448,412313,-997,-2844,2895,-9,1,10
2,1449,412320,-1009,-2857,2878,-9,7,7
2,1450,412327,-1033,-2890,2901,3,15,1
2,1451,412335,-1033,-2890,2901,6,13,-2
2,1452,412342,-1030,-2887,2930,14,-3,-10
2,1453,412350,-1002,-2837,2890,13,-2,-12
2,1454,412357,-960,-2802,2846,11,15,-5
2,1455,412365,-960,-2802,2846,4,22,-2
2,1456,412372,-927,-2792,2879,-17,13,19
2,1457,412380,-918,-2802,2868,-26,11,20
2,1458,412387,-934,-2766,2860,3,30,34
2,1459,412395,-934,-2766,2860,-11,35,45
2,1460,412402,-970,-2822,2919,-19,23,35
2,1461,412409,-966,-2832,2953,-22,10,43
2,1462,412417,-945,-2839,2915,-30,-3,47
2,1463,412424,-945,-2839,2915,-30,3,47
2,1464,412432,-910,-2803,2915,-41,10,74
2,1465,412439,-850,-2804,2931,-43,9,85
2,1466,412447,-803,-2779,2931,-47,22,108
2,1467,412454,-803,-2779,2931,-63,34,132
2,1468,412462,-764,-2749,2960,-82,35,175
2,1469,412469,-679,-2743,2979,-97,34,198
2,1470,412476,-612,-2704,2932,-122,63,255
2,1471,412484,-612,-2704,2932,-129,87,295
2,1472,412491,-556,-2743,2938,-145,118,369
2,1473,412499,-538,-2810,2945,-154,126,404
2,1474,412506,-482,-2796,2876,-205,202,491
2,1475,412514,-482,-2796,2876,-210,242,548
2,1476,412521,-405,-2803,2704,-172,283,649
2,1477,412529,-296,-2831,2486,-157,393,714
2,1478,412536,-345,-2822,2713,-110,412,896
2,1479,412544,-345,-2822,2713,-110,329,958
2,1480,412551,-457,-2771,2970,-169,143,1035
2,1481,412558,-552,-2651,3054,-186,-8,1089
2,1482,412566,-893,-2577,3017,-242,-189,1164
2,1483,412573,-893,-2577,3017,-273,-236,1186
2,1484,412581,-1114,-2529,2904,-305,-293,1210
2,1485,412588,-1242,-2466,2827,-305,-312,1212
2,1486,412596,-1262,-2423,2735,-275,-326,1231
2,1487,412603,-1262,-2423,2735,-267,-317,1246
2,1488,412611,-1255,-2489,2696,-280,-301,1265
2,1489,412618,-1363,-2728,2740,-270,-300,1271
2,1490,412625,-1645,-2981,2913,-288,-297,1240
2,1491,412633,-1645,-2981,2913,-323,-316,1217
2,1492,412640,-1837,-3047,3093,-444,-390,1257
2,1493,412648,-1862,-2853,2829,-405,-328,1335
2,1494,412655,-2141,-2897,2677,-285,-115,1261
2,1495,412663,-2141,-2897,2677,-326,-69,1230
2,1496,412670,-2176,-2815,2759,-311,48,1047
2,1497,412678,-2056,-2670,2757,-265,103,1011
2,1498,412685,-2011,-2636,2885,-242,121,970
2,1499,412692,-2011,-2636,2885,-238,108,918
2,1500,412700,-2060,-2743,2901,-202,115,823
2,1501,412707,-2033,-2819,2929,-221,94,774
2,1502,412715,-2014,-2776,2879,-239,28,672
2,1503,412722,-2014,-2776,2879,-232,17,627
2,1504,412730,-2012,-2751,2819,-229,-11,556
2,1505,412737,-2017,-2757,2850,-264,-22,518
2,1506,412745,-1955,-2719,2865,-338,-57,477
2,1507,412752,-1955,-2719,2865,-366,-97,450
2,1508,412760,-1863,-2672,2750,-351,-129,413
2,1509,412767,-1836,-2572,2685,-357,-145,412
2,1510,412774,-1896,-2534,2614,-364,-139,385
2,1511,412782,-1896,-2534,2614,-342,-128,386
2,1512,412789,-1911,-2550,2503,-264,-69,371
2,1513,412797,-1987,-2647,2483,-244,-32,358
2,1514,412804,-2002,-2720,2564,-277,33,348
2,1515,412812,-2002,-2720,2564,-304,38,315
2,1516,412819,-1927,-2725,2588,-262,14,285
2,1517,412827,-1839,-2659,2558,-234,3,281
2,1518,412834,-1809,-2667,2551,-234,-66,265
2,1519,412841,-1809,-2667,2551,-236,-93,258
2,1520,412849,-1760,-2666,2429,-183,-121,270
2,1521,412856,-1787,-2726,2334,-152,-119,267
2,1522,412864,-1938,-2763,2407,-138,-58,239
2,1523,412871,-1938,-2763,2407,-127,-35,220
2,1524,412879,-2018,-2664,2569,-123,-48,193
2,1525,412886,-2050,-2611,2655,-118,-89,182
2,1526,412894,-2069,-2687,2576,-98,-127,142
2,1527,412901,-2069,-2687,2576,-85,-135,118
2,1528,412908,-2065,-2703,2467,-42,-94,74
2,1529,412916,-2060,-2687,2411,-12,-65,52
2,1530,412923,-2086,-2630,2457,31,-9,5
2,1531,412931,-2086,-2630,2457,40,11,-32
2,1532,412938,-2181,-2567,2572,54,41,-94
2,1533,412946,-2186,-2475,2656,61,43,-119
2,1534,412953,-2167,-2473,2677,68,31,-174
2,1535,412961,-2167,-2473,2677,83,18,-204
2,1536,412968,-2191,-2577,2638,107,17,-270
2,1537,412976,-2250,-2656,2624,107,34,-309
2,1538,412983,-2265,-2708,2629,107,58,-383
2,1539,412991,-2265,-2708,2629,117,75,-425
2,1540,412998,-2275,-2706,2648,129,110,-522
2,1541,413005,-2204,-2597,2695,127,101,-559
2,1542,413013,-2051,-2572,2589,146,82,-608
2,1543,413020,-2051,-2572,2589,155,92,-632
2,1544,413028,-1961,-2593,2466,174,124,-690
2,1545,413035,-1936,-2529,2456,178,141,-726
2,1546,413043,-1879,-2509,2448,202,154,-744
2,1547,413050,-1879,-2509,2448,221,174,-763
2,1548,413058,-1915,-2573,2459,259,200,-820
2,1549,413065,-1924,-2552,2521,272,197,-846
2,1550,413073,-1888,-2590,2538,289,190,-889
2,1551,413080,-1888,-2590,2538,304,212,-910
2,1552,413088,-1948,-2722,2604,324,257,-980
2,1553,413095,-1974,-2727,2698,322,257,-987
2,1554,413102,-1986,-2677,2692,406,327,-1041
2,1555,413110,-1986,-2677,2692,404,328,-1066
2,1556,413117,-1907,-2672,2726,384,329,-1115
2,1557,413125,-1752,-2642,2673,383,316,-1147
2,1558,413132,-1606,-2604,2630,419,288,-1173
2,1559,413140,-1606,-2604,2630,431,287,-1178
2,1560,413147,-1578,-2681,2542,489,322,-1191
2,1561,413155,-1561,-2783,2489,514,377,-1211
2,1562,413162,-1457,-2780,2600,529,458,-1235
2,1563,413170,-1457,-2780,2600,527,457,-1234
2,1564,413177,-1283,-2686,2704,560,387,-1213
2,1565,413185,-1166,-2760,2716,585,349,-1185
2,1566,413192,-1246,-2984,2761,582,288,-1175
2,1567,413200,-1246,-2984,2761,570,244,-1214
2,1568,413207,-1119,-2986,2908,518,57,-1153
2,1569,413214,-960,-3004,2686,536,14,-1097
2,1570,413222,-949,-3167,2497,554,67,-1086
2,1571,413229,-949,-3167,2497,589,92,-1042
2,1572,413237,-804,-2988,2432,710,156,-963
2,1573,413244,-787,-2837,2470,735,189,-915
2,1574,413252,-731,-2846,2561,746,276,-826
2,1575,413259,-731,-2846,2561,732,275,-784
2,1576,413267,-702,-2796,2654,778,263,-742
2,1577,413274,-649,-2708,2751,813,206,-693
2,1578,413281,-746,-2680,2829,837,181,-623
2,1579,413289,-746,-2680,2829,828,144,-600
2,1580,413296,-855,-2716,2889,799,112,-563
2,1581,413304,-1044,-2691,2937,794,108,-561
2,1582,413311,-1318,-2630,3030,764,115,-582
2,1583,413319,-1318,-2630,3030,761,133,-615
2,1584,413326,-1799,-2542,3253,662,161,-757
2,1585,413334,-2027,-2408,3443,596,166,-816
2,1586,413341,-2077,-2180,3590,416,239,-977
2,1587,413349,-2077,-2180,3590,339,267,-1029
2,1588,413356,-1790,-2071,3599,309,272,-1025
2,1589,413363,-1397,-2047,3287,341,293,-1016
2,1590,413371,-1479,-1687,3196,367,329,-1104
2,1591,413378,-1479,-1687,3196,324,343,-1128
2,1592,413386,2940,501,7276,-2417,-1412,2511
2,1593,413393,-362,-2680,15616,-3298,-10179,2388
2,1594,413401,-2356,-7104,-410,-2354,-9676,-822
2,1595,413408,-2356,-7104,-410,-2354,-8368,-752
2,1596,413416,-659,-2099,-4383,-1299,-3579,-122
2,1597,413423,-1647,-1792,-4167,-412,-768,-162
2,1598,413431,-1602,-2553,-3,599,2242,-428
2,1599,413438,-1602,-2553,-3,927,2824,-514
2,1600,413446,-557,-2216,3261,1339,2670,-502
2,1601,413453,-217,-2292,4623,1329,2262,-421
2,1602,413461,-241,-2930,4703,1017,1396,-343
2,1603,413468,-241,-2930,4703,830,957,-314
2,1604,413476,-617,-3246,4388,491,507,-446
2,1605,413483,-1268,-3209,3161,482,1013,-676
2,1606,413491,-1664,-2932,2244,610,1475,-860
2,1607,413498,-1756,-3050,1915,890,2569,-1123
2,1608,413506,-1756,-3050,1915,1012,3170,-1339
2,1609,413513,-1333,-3061,2461,1136,3813,-1457
2,1610,413521,-731,-2829,3913,1034,3747,-1442
2,1611,413528,368,-2457,5361,731,2843,-1290
2,1612,413535,368,-2457,5361,426,1822,-954
2,1613,413543,1013,-2272,6220,-36,-356,-638
2,1614,413550,545,-2763,4541,-160,-1015,-605
2,1615,413558,75,-2644,2117,-248,-1051,-460
2,1616,413565,75,-2644,2117,-130,-582,-387
2,1617,413573,-141,-2448,1217,223,481,-201
2,1618,413580,-163,-2597,2332,343,757,-125
2,1619,413588,-118,-2966,4032,304,572,-26
2,1620,413595,-118,-2966,4032,146,149,-7
2,1621,413603,-214,-3236,4372,-91,-338,18
2,1622,413610,-429,-3060,3180,-116,-316,11
2,1623,413617,-495,-2706,2682,-16,-46,57
2,1624,413625,-495,-2706,2682,-21,74,96
2,1625,413632,-517,-2620,3071,-96,104,106
2,1626,413640,-553,-2501,3353,-105,41,121
2,1627,413647,-597,-2524,3263,-100,-63,183
2,1628,413655,-597,-2524,3263,-114,-61,181
2,1629,413662,-705,-2717,3080,-102,3,154
2,1630,413670,-786,-2695,3116,-100,30,149
2,1631,413677,-748,-2665,3211,-107,13,142
2,1632,413685,-748,-2665,3211,-115,-18,134
2,1633,413692,-688,-2691,3161,-123,-44,132
2,1634,413699,-715,-2744,3076,-116,-34,128
2,1635,413707,-782,-2807,3134,-99,-5,102
2,1636,413714,-782,-2807,3134,-107,-23,93
2,1637,413722,-747,-2822,3262,-180,-108,69
2,1638,413729,-701,-2771,3161,-184,-140,61
2,1639,413737,-764,-2701,3020,-169,-127,57
2,1640,413744,-764,-2701,3020,-164,-106,47
2,1641,413752,-826,-2606,3009,-146,-79,42
2,1642,413759,-786,-2521,3000,-130,-79,44
2,1643,413766,-744,-2548,2955,-98,-53,56
2,1644,413774,-744,-2548,2955,-85,-23,59
2,1645,413781,-733,-2665,3005,-73,-3,43
2,1646,413789,-713,-2685,3105,-74,-19,42
2,1647,413796,-694,-2676,3066,-70,-50,43
2,1648,413804,-694,-2676,3066,-62,-46,43
2,1649,413811,-656,-2683,2958,-34,2,55
2,1650,413819,-617,-2777,2997,-24,24,58
2,1651,413826,-662,-2814,3154,-35,-3,51
2,1652,413833,-662,-2814,3154,-46,-39,49
2,1653,413841,-695,-2747,3123,-44,-64,53
2,1654,413848,-703,-2715,2970,-37,-39,55
2,1655,413856,-730,-2696,2985,-21,11,61
2,1656,413863,-730,-2696,2985,-19,22,55
2,1657,413871,-806,-2689,3079,-9,21,46
2,1658,413878,-805,-2695,3096,-6,16,39
2,1659,413886,-756,-2717,3069,2,12,24
2,1660,413893,-756,-2717,3069,3,12,22
2,1661,413901,-710,-2785,3067,-12,13,13
2,1662,413908,-676,-2794,3107,-17,-2,6
2,1663,413915,-638,-2716,3067,-6,-40,11
2,1664,413923,-638,-2716,3067,-4,-44,22
2,1665,413930,-623,-2729,2976,8,-10,33
2,1666,413938,-665,-2778,3010,15,4,37
2,1667,413945,-758,-2767,3112,-2,-1,26
2,1668,413953,-758,-2767,3112,-2,-11,19
2,1669,413960,-802,-2698,3108,7,-19,14
2,1670,413968,-808,-2713,3068,8,-7,10
2,1671,413975,-792,-2749,3136,0,10,-11
2,1672,413982,-792,-2749,3136,-12,-5,-19
2,1673,413990,-749,-2716,3195,-24,-60,-30
2,1674,413997,-705,-2674,3075,-20,-71,-29
2,1675,414005,-694,-2678,2965,-3,-25,-29
2,1676,414012,-694,-2678,2965,5,6,-29
2,1677,414020,-688,-2695,3028,14,23,-30
2,1678,414027,-650,-2702,3116,15,6,-25
2,1679,414035,-650,-2702,3116,14,-8,-18
2,1680,414042,-667,-2761,3093,13,-5,-18
2,1681,414049,-730,-2790,3102,7,4,-24
2,1682,414057,-752,-2765,3144,-8,-3,-32
2,1683,414064,-752,-2765,3144,-11,-9,-36
2,1684,414072,-731,-2748,3119,-18,-13,-39
2,1685,414079,-746,-2786,3123,-24,-5,-47
2,1686,414087,-735,-2770,3178,-43,-16,-64
2,1687,414094,-735,-2770,3178,-37,-31,-66
2,1688,414102,-671,-2717,3105,-8,-29,-59
2,1689,414109,-634,-2709,3008,5,-7,-52
2,1690,414116,-593,-2721,3031,6,19,-44
2,1691,414124,-593,-2721,3031,-2,16,-38
2,1692,414131,-552,-2740,3069,-14,4,-17
2,1693,414139,-597,-2823,3078,-16,7,-11
2,1694,414146,-724,-2825,3127,-17,12,-28
2,1695,414154,-724,-2825,3127,-15,3,-35
2,1696,414161,-733,-2703,3090,-2,12,-25
2,1697,414169,-729,-2699,3040,8,30,-21
2,1698,414176,-729,-2704,3087,18,42,-27
2,1699,414183,-729,-2704,3087,20,32,-29
2,1700,414191,-717,-2708,3116,9,16,-32
2,1701,414198,-725,-2747,3096,2,18,-38
2,1702,414206,-704,-2752,3090,-2,28,-54
2,1703,414213,-704,-2752,3090,1,28,-56
2,1704,414221,-670,-2698,3101,2,14,-55
2,1705,414228,-634,-2666,3064,1,5,-50
2,1706,414236,-613,-2675,3007,-2,17,-44
2,1707,414243,-613,-2675,3007,-1,29,-35
2,1708,414251,-609,-2697,3030,3,33,-30
2,1709,414258,-638,-2676,3076,3,27,-28
2,1710,414265,-672,-2708,3055,5,18,-19
2,1711,414273,-672,-2708,3055,8,31,-18
2,1712,414280,-746,-2802,3100,15,39,-34
2,1713,414288,-777,-2811,3190,13,27,-45
2,1714,414295,-715,-2721,3149,2,-17,-63
2,1715,414303,-715,-2721,3149,-2,-28,-63
2,1716,414310,-666,-2650,3020,2,-2,-57
2,1717,414318,-623,-2650,2967,9,22,-51
2,1718,414325,-587,-2699,3028,23,48,-33
2,1719,414333,-587,-2699,3028,27,46,-24
2,1720,414340,-575,-2751,3095,24,28,-13
2,1721,414347,-600,-2773,3117,20,19,-13
2,1722,414355,-620,-2766,3100,8,-4,-9
2,1723,414362,-620,-2766,3100,7,2,-4
2,1724,414370,-665,-2824,3088,13,21,-6
2,1725,414377,-693,-2829,3119,21,24,-17
2,1726,414385,-686,-2749,3142,18,20,-16
2,1727,414392,-672,-2688,3115,12,3,-16
2,1728,414400,-672,-2688,3115,11,-1,-12
2,1729,414407,-680,-2679,3071,9,20,-9
2,1730,414415,-693,-2693,3103,9,24,-11
2,1731,414422,-680,-2679,3114,6,15,-13
2,1732,414430,-680,-2679,3114,6,9,-12
2,1733,414437,-646,-2668,3077,6,16,-3
2,1734,414445,-633,-2681,3042,8,23,-1
2,1735,414452,-652,-2709,3072,5,32,4
2,1736,414460,-652,-2709,3072,2,30,4
2,1737,414467,-657,-2715,3125,-6,6,-1
2,1738,414474,-642,-2693,3108,-13,-3,2
2,1739,414482,-648,-2708,3056,-13,3,7
2,1740,414489,-648,-2708,3056,-15,13,7
2,1741,414497,-682,-2696,3077,-19,8,9
2,1742,414504,-713,-2694,3103,-19,11,9
2,1743,414512,-714,-2696,3104,-8,14,4
2,1744,414519,-714,-2696,3104,-6,11,3
2,1745,414527,-734,-2696,3062,3,29,-2
2,1746,414534,-749,-2748,3084,3,45,-6
2,1747,414541,-704,-2755,3175,-1,30,-18
2,1748,414549,-704,-2755,3175,-6,3,-20
2,1749,414557,-633,-2703,3120,-17,-26,-19
2,1750,414564,-600,-2687,2986,-17,-13,-13
2,1751,414571,-625,-2731,2982,-4,38,-2
2,1752,414579,-625,-2731,2982,3,51,1
2,1753,414586,-649,-2760,3096,12,42,6
2,1754,414594,-674,-2764,3133,12,29,6
2,1755,414601,-701,-2748,3122,-1,18,0
2,1756,414609,-701,-2748,3122,-5,14,-3
2,1757,414616,-693,-2730,3095,-3,16,-7
2,1758,414624,-676,-2735,3090,-2,19,-4
2,1759,414631,-682,-2736,3116,-8,12,-7
2,1760,414639,-682,-2736,3116,-12,6,-12
2,1761,414646,-700,-2701,3114,-17,-5,-14
2,1762,414653,-663,-2651,3066,-15,-10,-9
2,1763,414661,-625,-2647,2988,-3,-2,5
2,1764,414668,-625,-2647,2988,0,22,9
2,1765,414676,-648,-2699,3005,9,60,12
2,1766,414683,-679,-2747,3137,3,52,12
2,1767,414691,-686,-2748,3191,-11,-3,7
2,1768,414698,-686,-2748,3191,-17,-15,3
2,1769,414706,-704,-2740,3085,-17,9,0
2,1770,414713,-689,-2716,3064,-12,23,2
2,1771,414721,-647,-2705,3117,-10,11,6
2,1772,414728,-647,-2705,3117,-15,-4,10
2,1773,414736,-655,-2741,3094,-22,-4,10
2,1774,414743,-736,-2797,3095,-28,14,-1
2,1775,414750,-761,-2764,3182,-29,6,-17
2,1776,414758,-761,-2764,3182,-28,-18,-23
2,1777,414765,-724,-2728,3141,-29,-30,-28
2,1778,414773,-713,-2748,3042,-31,-11,-30
2,1779,414780,-714,-2740,3069,-26,15,-38
2,1780,414788,-714,-2740,3069,-24,16,-36
2,1781,414795,-672,-2717,3103,-21,-1,-32
2,1782,414803,-627,-2705,3056,-23,-7,-29
2,1783,414810,-630,-2723,3003,-21,8,-18
2,1784,414818,-630,-2723,3003,-17,25,-20
2,1785,414825,-651,-2722,3029,-6,36,-12
2,1786,414833,-640,-2732,3069,-3,31,-7
2,1787,414840,-629,-2754,3080,-9,22,-5
2,1788,414848,-629,-2754,3080,-14,13,-5
2,1789,414855,-679,-2749,3076,-15,18,-4
2,1790,414863,-733,-2739,3088,-14,20,-11
2,1791,414870,-713,-2705,3086,-2,13,-13
2,1792,414877,-713,-2705,3086,1,9,-12
2,1793,414885,-667,-2705,3046,0,18,-11
2,1794,414892,-665,-2723,3041,-1,21,-10
2,1795,414900,-662,-2724,3062,-1,19,-13
2,1796,414907,-662,-2724,3062,1,11,-11
2,1797,414915,-635,-2691,3042,0,14,-2
2,1798,414922,-611,-2700,3028,1,19,2
2,1799,414930,-637,-2711,3058,-3,17,8
2,1800,414937,-637,-2711,3058,-2,19,10
2,1801,414945,-726,-2768,3098,3,19,-2
2,1802,414952,-726,-2750,3132,5,4,-7
2,1803,414960,-666,-2749,3088,0,-11,-10
2,1804,414967,-666,-2749,3088,-3,-5,-11
2,1805,414974,-622,-2736,3039,-2,1,-1
2,1806,414982,-624,-2718,3036,-3,-1,5
2,1807,414989,-744,-2786,3063,9,27,-3
2,1808,414997,-744,-2786,3063,11,37,-8
2,1809,415004,-785,-2782,3136,15,14,-20
2,1810,415012,-708,-2748,3133,15,1,-25
2,1811,415019,-645,-2716,3051,6,2,-28
2,1812,415027,-645,-2716,3051,4,7,-26
2,1813,415034,-625,-2710,3026,9,17,-14
2,1814,415041,-662,-2770,3077,11,23,-15
2,1815,415049,-695,-2756,3119,8,3,-20
2,1816,415056,-695,-2756,3119,7,-5,-23
2,1817,415064,-670,-2704,3057,10,4,-20
2,1818,415071,-626,-2717,3003,17,18,-13
2,1819,415079,-631,-2766,3053,25,43,-4
2,1820,415086,-631,-2766,3053,26,44,-5
2,1821,415094,-651,-2769,3136,13,12,-4
2,1822,415101,-680,-2730,3129,8,-4,-5
2,1823,415109,-693,-2731,3061,9,-4,-6
2,1824,415116,-693,-2731,3061,11,16,-4
2,1825,415124,-703,-2775,3092,19,34,-12
2,1826,415131,-679,-2739,3168,16,13,-18
2,1827,415138,-664,-2698,3110,2,-24,-15
2,1828,415146,-664,-2698,3110,-3,-17,-12
2,1829,415153,-668,-2729,3039,-4,13,-17
2,1830,415161,-653,-2707,3083,0,15,-13
2,1831,415168,-634,-2663,3091,1,-10,-2
2,1832,415176,-634,-2663,3091,0,-6,2
2,1833,415183,-647,-2684,3024,6,28,4
2,1834,415191,-684,-2696,3043,9,40,5
2,1835,415198,-679,-2706,3107,13,30,8
2,1836,415206,-679,-2706,3107,14,19,10
2,1837,415213,-676,-2730,3113,4,14,7
2,1838,415220,-692,-2748,3104,-3,17,1
2,1839,415228,-699,-2711,3115,-10,1,-4
2,1840,415235,-699,-2711,3115,-7,-7,-4
2,1841,415243,-674,-2714,3065,2,8,4
2,1842,415250,-673,-2780,3077,1,21,0
2,1843,415258,-696,-2769,3156,-11,14,-12
2,1844,415265,-696,-2769,3156,-12,-7,-13
2,1845,415273,-689,-2714,3132,-13,-20,-10
2,1846,415280,-671,-2713,3026,-8,-4,-9
2,1847,415288,-669,-2760,3059,-4,36,-10
2,1848,415295,-669,-2760,3059,-7,37,-10
2,1849,415302,-656,-2741,3155,-8,0,-7
2,1850,415310,-637,-2709,3110,-12,-10,-1
2,1851,415317,-626,-2731,3041,-14,8,2
2,1852,415325,-626,-2731,3041,-15,17,2
2,1853,415332,-621,-2718,3067,-15,21,16
2,1854,415340,-626,-2751,3093,-12,24,23
2,1855,415347,-657,-2785,3123,-16,18,24
2,1856,415355,-657,-2785,3123,-24,11,25
2,1857,415362,-699,-2791,3138,-25,2,22
2,1858,415369,-721,-2756,3121,-23,1,20
2,1859,415377,-709,-2741,3069,-14,8,19
2,1860,415384,-709,-2741,3069,-12,20,20
2,1861,415392,-668,-2751,3063,-14,26,18
2,1862,415399,-641,-2732,3100,-21,17,16
2,1863,415407,-636,-2713,3072,-26,1,25
2,1864,415414,-636,-2713,3072,-27,6,24
2,1865,415422,-661,-2694,3036,-22,19,29
2,1866,415429,-663,-2676,3043,-27,19,29
2,1867,415436,-658,-2709,3053,-28,15,38
2,1868,415444,-658,-2709,3053,-28,15,39
2,1869,415451,-709,-2749,3071,-28,17,30
2,1870,415459,-739,-2722,3087,-26,12,27
2,1871,415466,-742,-2695,3063,-20,16,24
2,1872,415474,-742,-2695,3063,-15,23,24
2,1873,406535,-1497,-2904,2509,489,333,-1349
2,1874,406542,-1497,-2904,2509,532,332,-1375
2,1875,406550,-1131,-2798,2436,619,302,-1347
2,1876,406557,-950,-2665,2357,647,247,-1319
2,1877,406565,-1267,-2530,2254,867,367,-1378
2,1878,406572,-1267,-2530,2254,860,350,-1384
2,1879,406580,-1407,-2378,2470,845,344,-1389
2,1880,406587,-1229,-2209,2281,916,386,-1366
2,1881,406595,-688,-2151,1993,1149,508,-1294
2,1882,406602,-688,-2151,1993,1276,552,-1233
2,1883,406610,14,-2092,1761,1524,617,-1040
2,1884,406617,707,-1798,1687,1634,620,-931
2,1885,406625,381,-1706,1983,1692,192,-750
2,1886,406632,381,-1706,1983,1679,193,-623
2,1887,406639,382,-1880,1907,1810,132,-281
2,1888,406647,876,-2091,1729,1963,120,-136
2,1889,406654,956,-1814,1336,2524,13,246
2,1890,406662,956,-1814,1336,2915,248,410
2,1891,406669,638,-1413,1538,3255,201,780
2,1892,406677,-225,-1744,2847,3315,101,894
2,1893,406684,895,-1356,17386,6545,-2015,1070
2,1894,406692,895,-1356,17386,5931,-8006,1285
2,1895,406699,-1225,-2506,14173,1097,-9918,1661
2,1896,406707,-4846,-3983,8177,-727,-11790,1202
2,1897,406714,-5278,-3023,10564,-4629,-9948,403
2,1898,406721,-5278,-3023,10564,-5259,-14663,158
2,1899,406729,-4391,-1556,6062,-4428,-14713,-69
2,1900,406736,-3060,-1414,-3303,-3412,-12611,-238
2,1901,406744,-1530,-2070,-4284,-1982,-7139,-409
2,1902,406751,-1530,-2070,-4284,-1290,-5567,-543
2,1903,406759,454,-2825,-1885,-272,-2978,-860
2,1904,406766,996,-2900,-956,32,-1811,-969
2,1905,406774,1106,-1134,-490,944,502,-921
2,1906,406781,1106,-1134,-490,1540,1406,-717
2,1907,406788,1152,-2303,-283,1726,4023,-835
2,1908,406796,630,-3401,-846,1859,5202,-967
2,1909,406803,-311,-2509,-1571,2465,7924,-1243
2,1910,406811,-311,-2509,-1571,2649,9286,-1242
2,1911,406818,-1685,-1393,183,3166,11372,-1347
2,1912,406826,-1413,-462,8296,3215,11200,-1434
2,1913,406833,2126,-439,11469,1769,1697,-609
2,1914,406841,2126,-439,11469,1365,3158,-693
2,1915,406848,400,-1702,5941,862,3165,-469
2,1916,406856,344,-2475,6612,622,2499,-492
2,1917,406863,494,-2262,6087,-13,1177,-697
2,1918,406871,494,-2262,6087,-168,888,-713
2,1919,406878,145,-1706,4742,-225,701,-672
2,1920,406886,83,-1465,4019,-209,780,-613
2,1921,406893,114,-1570,3458,-106,1175,-471
2,1922,406901,114,-1570,3458,-40,1414,-423
2,1923,406908,-130,-1856,3031,129,2143,-467
2,1924,406915,-511,-1989,2654,235,2554,-509
2,1925,406923,-640,-1850,2906,347,3335,-604
2,1926,406930,-640,-1850,2906,387,3557,-632
2,1927,406938,-451,-1665,3589,463,3488,-602
2,1928,406945,-457,-1541,4523,398,3371,-592
2,1929,406953,-364,-1535,5165,337,2760,-509
2,1930,406968,-307,-1620,5344,198,1527,-389
2,1931,406975,-308,-1736,5254,99,1125,-355
2,1932,406983,-487,-1958,4956,-190,492,-336
2,1933,406990,-487,-1958,4956,-346,263,-356
2,1934,406997,-590,-2037,4524,-623,-85,-403
2,1935,407005,-599,-1938,4107,-739,-193,-412
2,1936,407012,-646,-1810,3766,-904,-282,-423
2,1937,407020,-646,-1810,3766,-940,-278,-425
2,1938,407027,-574,-1688,3450,-890,-201,-393
2,1939,407035,-434,-1584,3236,-825,-150,-365
2,1940,407050,-349,-1559,3083,-519,-45,-266
2,1941,407057,-356,-1608,2944,-283,153,-175
2,1942,407064,-339,-1632,2976,-211,229,-124
2,1943,407072,-375,-1772,3083,-135,350,-51
2,1944,407079,-375,-1772,3083,-118,405,-28
2,1945,407087,-416,-1927,3260,-95,453,-4
2,1946,407094,-500,-1993,3502,-95,461,4
2,1947,407102,-516,-1988,3714,-100,442,34
2,1948,407109,-516,-1988,3714,-107,414,63
2,1949,407117,-540,-2033,3887,-131,307,93
2,1950,407132,-711,-2079,4005,-231,103,91
2,1951,407139,-711,-2079,4005,-269,10,91
2,1952,407147,-653,-2000,3886,-349,-130,89
2,1953,407154,-629,-1936,3693,-377,-186,102
2,1954,407161,-597,-1897,3502,-397,-250,96
2,1955,407169,-597,-1897,3502,-390,-277,105
2,1956,407176,-503,-1824,3326,-363,-286,147
2,1957,407184,-529,-1778,3179,-342,-259,187
2,1958,407191,-636,-1866,3084,-270,-68,262
2,1959,407199,-636,-1866,3084,-208,-8,263
2,1960,407214,-743,-1849,3323,-102,117,288
2,1961,407221,-774,-1936,3423,-91,142,308
2,1962,407229,-774,-1936,3423,-88,158,308
2,1963,407236,-847,-2095,3502,-83,220,295
2,1964,407244,-852,-2155,3624,-79,233,290
2,1965,407251,-788,-2118,3726,-82,207,287
2,1966,407258,-788,-2118,3726,-91,170,291
2,1967,407266,-813,-2094,3797,-138,55,280
2,1968,407273,-843,-2066,3766,-163,6,273
2,1969,407281,-818,-2025,3626,-207,-56,272
2,1970,407288,-818,-2025,3626,-216,-41,280
2,1971,407296,-766,-2022,3485,-194,-8,295
2,1972,407303,-783,-2040,3432,-177,25,304
2,1973,407311,-917,-2037,3451,-155,82,304
2,1974,407318,-917,-2037,3451,-147,69,287
2,1975,407326,-957,-1944,3442,-149,125,296
2,1976,407333,-975,-1995,3388,-145,206,303
2,1977,407340,-999,-1990,3483,-118,284,296
2,1978,407348,-999,-1990,3483,-120,382,367
2,1979,407355,-967,-2056,3683,-85,199,333
2,1980,407363,-1011,-2204,3707,-99,181,320
2,1981,407370,-947,-2178,3659,-169,105,290
2,1982,407378,-947,-2178,3659,-206,74,282
2,1983,407385,-917,-2139,3584,-263,50,269
2,1984,407393,-1013,-2147,3540,-272,61,267
2,1985,407400,-963,-2074,3487,-241,79,251
2,1986,407408,-963,-2074,3487,-228,111,275
2,1987,407415,-801,-2037,3464,-195,51,315
2,1988,407422,-813,-2081,3467,-195,7,315
2,1989,407430,-831,-2069,3399,-232,-85,318
