event_id,seq,ts_us,ax,ay,az,gx,gy,gz
1,0,27867,5083,-11930,-9077,91,-301,-70
1,1,27872,5250,-11924,-9032,90,-293,-71
1,2,27877,5261,-11978,-8860,86,-276,-71
1,3,27882,5002,-12073,-8788,82,-254,-70
1,4,27887,4452,-12331,-8776,79,-254,-62
1,5,27892,4647,-12485,-8723,94,-284,-60
1,6,27897,5324,-12200,-8961,120,-316,-63
1,7,27902,5927,-12029,-9212,126,-321,-70
1,8,27907,5481,-12271,-9024,114,-292,-67
1,9,27912,4864,-12557,-8947,104,-271,-56
1,10,27917,4705,-12559,-8832,106,-260,-51
1,11,27922,4964,-12365,-8785,113,-265,-54
1,12,27927,5054,-12380,-8713,118,-269,-52
1,13,27932,4887,-12502,-8697,120,-273,-48
1,14,27937,4618,-12599,-8920,124,-273,-45
1,15,27942,4518,-12646,-8980,128,-269,-42
1,16,27947,4754,-12517,-8880,133,-267,-47
1,17,27952,5008,-12391,-8752,130,-253,-50
1,18,27957,4978,-12408,-8785,119,-220,-48
1,19,27962,4771,-12480,-8831,109,-184,-47
1,20,27967,4696,-12528,-8843,100,-155,-47
1,21,27972,4846,-12419,-8752,94,-132,-47
1,22,27977,4962,-12408,-8807,87,-110,-48
1,23,27982,4857,-12426,-8928,80,-85,-53
1,24,27987,4831,-12430,-8847,83,-73,-56
1,25,27992,4931,-12381,-8761,86,-80,-50
1,26,27997,4779,-12421,-8736,85,-80,-41
1,27,28002,4603,-12488,-8747,94,-91,-32
1,28,28007,4567,-12490,-8749,106,-115,-28
1,29,28012,4377,-12480,-8690,116,-142,-18
1,30,28017,4637,-12502,-8847,131,-176,-14
1,31,28022,5047,-12253,-8954,151,-204,-15
1,32,28027,5412,-12199,-9212,151,-204,-12
1,33,28032,5130,-12284,-9172,143,-181,-9
1,34,28037,4767,-12405,-9111,133,-152,-3
1,35,28042,4717,-12405,-8896,128,-132,0
1,36,28047,4900,-12374,-8876,127,-117,-2
1,37,28052,4921,-12359,-8861,124,-100,0
1,38,28057,4806,-12505,-8913,114,-84,3
1,39,28062,4689,-12655,-8924,109,-68,6
1,40,28067,4754,-12597,-8746,106,-53,7
1,41,28072,4963,-12504,-8798,102,-35,9
1,42,28077,5059,-12444,-8864,94,-14,13
1,43,28082,4868,-12632,-8873,88,-5,20
1,44,28087,4659,-12751,-8755,89,-4,24
1,45,28092,4638,-12797,-8767,92,-10,25
1,46,28097,4673,-12787,-8849,95,-22,31
1,47,28102,4742,-12739,-8907,101,-34,33
1,48,28107,4769,-12776,-8893,106,-45,34
1,49,28112,4793,-12719,-8745,106,-49,36
1,50,28117,4866,-12647,-8763,108,-48,40
1,51,28122,4904,-12679,-8823,106,-46,42
1,52,28127,4958,-12740,-8801,105,-45,42
1,53,28132,5018,-12777,-8714,105,-44,41
1,54,28137,5039,-12867,-8817,101,-38,45
1,55,28142,4975,-12993,-8885,99,-36,48
1,56,28147,4976,-13028,-8822,99,-38,50
1,57,28152,5151,-12969,-8704,102,-43,48
1,58,28157,5190,-13003,-8711,100,-39,52
1,59,28162,5139,-13034,-8891,93,-26,56
1,60,28167,5173,-12977,-8902,91,-21,57
1,61,28172,5299,-12978,-8825,89,-18,56
1,62,28177,5235,-12992,-8709,81,-9,57
1,63,28182,5156,-13050,-8709,78,-2,61
1,64,28187,5073,-12989,-8746,77,3,64
1,65,28192,5045,-12945,-8759,77,2,65
1,66,28197,5063,-12935,-8717,74,-4,67
1,67,28202,5044,-12915,-8625,75,-11,68
1,68,28207,4960,-12921,-8685,76,-19,69
1,69,28212,4845,-12973,-8751,77,-25,70
1,70,28217,4819,-12977,-8814,83,-36,69
1,71,28222,4856,-13047,-8778,85,-50,72
1,72,28227,4895,-13035,-8788,82,-53,70
1,73,28232,4904,-12996,-8815,84,-51,68
1,74,28237,4933,-12957,-8775,82,-51,68
1,75,28242,5013,-12955,-8700,77,-44,65
1,76,28247,4951,-13020,-8719,70,-32,64
1,77,28252,4859,-13115,-8754,62,-20,66
1,78,28257,4926,-13097,-8708,57,-10,62
1,79,28262,5083,-13025,-8698,51,1,59
1,80,28267,5019,-13047,-8708,41,20,59
1,81,28272,4857,-13125,-8719,30,35,58
1,82,28277,4753,-13176,-8607,25,40,55
1,83,28282,4796,-13156,-8548,22,46,52
1,84,28287,4845,-13116,-8601,19,52,52
1,85,28292,4871,-13115,-8639,12,53,51
1,86,28297,4853,-13147,-8660,11,50,48
1,87,28302,4801,-13157,-8652,10,47,47
1,88,28307,4781,-13178,-8673,7,47,45
1,89,28312,4892,-13069,-8638,7,43,42
1,90,28317,5005,-12943,-8673,6,37,40
1,91,28322,4957,-12994,-8670,3,37,39
1,92,28327,4872,-13041,-8741,-2,34,37
1,93,28332,4925,-12983,-8777,1,26,34
1,94,28337,5045,-12836,-8727,1,20,33
1,95,28342,5065,-12807,-8656,-1,17,32
1,96,28347,4967,-12850,-8692,-3,14,35
1,97,28352,4943,-12898,-8724,-3,9,34
1,98,28357,5017,-12796,-8650,-2,3,31
1,99,28362,5082,-12786,-8661,-7,4,32
1,100,28367,5044,-12839,-8664,-13,6,32
1,101,28372,4934,-12868,-8705,-15,9,31
1,102,28377,4988,-12866,-8746,-17,9,29
1,103,28382,5037,-12847,-8717,-21,15,27
1,104,28387,5032,-12862,-8667,-26,21,26
1,105,28392,4976,-12895,-8722,-30,27,24
1,106,28397,4962,-12922,-8788,-35,31,23
1,107,28402,5020,-12935,-8717,-35,33,21
1,108,28407,4990,-13006,-8646,-38,30,18
1,109,28412,4957,-13001,-8577,-39,25,18
1,110,28417,4920,-13002,-8567,-39,20,17
1,111,28422,4982,-13023,-8669,-38,17,16
1,112,28427,4988,-13052,-8664,-39,12,14
1,113,28432,5116,-13051,-8640,-41,8,12
1,114,28437,5198,-12986,-8620,-44,12,10
1,115,28442,5182,-12999,-8657,-47,17,9
1,116,28447,5089,-13023,-8644,-49,20,10
1,117,28452,5009,-13032,-8622,-51,16,11
1,118,28457,5003,-13012,-8573,-50,5,13
1,119,28462,5025,-12995,-8614,-46,-7,10
1,120,28467,5060,-12970,-8590,-43,-21,10
1,121,28472,5050,-12963,-8615,-41,-28,12
1,122,28477,5003,-12995,-8735,-39,-37,12
1,123,28482,4981,-13046,-8794,-38,-40,10
1,124,28487,5065,-13043,-8704,-37,-43,11
1,125,28492,5003,-13001,-8654,-37,-44,10
1,126,28497,4942,-13008,-8712,-39,-38,9
1,127,28502,4909,-12990,-8721,-44,-33,10
1,128,28507,4903,-12959,-8819,-46,-28,8
1,129,28512,4881,-13013,-8810,-50,-20,7
1,130,28517,4740,-13055,-8795,-52,-15,6
1,131,28522,4777,-13006,-8669,-52,-16,4
1,132,28527,4896,-12932,-8594,-51,-19,-1
1,133,28532,4903,-12936,-8651,-54,-17,-1
1,134,28537,4857,-12990,-8692,-54,-16,2
1,135,28542,4920,-13029,-8711,-53,-23,-1
1,136,28547,4983,-12982,-8740,-49,-28,-2
1,137,28552,4992,-13010,-8645,-50,-31,0
1,138,28557,5020,-12999,-8580,-47,-36,-2
1,139,28562,5044,-13018,-8639,-45,-42,-4
1,140,28567,5030,-13036,-8741,-46,-40,-3
1,141,28572,5132,-13024,-8771,-47,-34,-5
1,142,28577,5239,-12875,-8731,-52,-26,-8
1,143,28582,5249,-12800,-8779,-55,-13,-5
1,144,28587,5126,-12858,-8775,-59,-3,-3
1,145,28592,4936,-12910,-8745,-59,-7,-5
1,146,28597,4941,-12903,-8716,-54,-18,-5
1,147,28602,5008,-12822,-8743,-43,-33,-4
1,148,28607,5044,-12845,-8810,-40,-46,-3
1,149,28612,4998,-12885,-8761,-38,-58,-3
1,150,28617,5062,-12839,-8725,-32,-66,-3
1,151,28622,5114,-12738,-8718,-28,-68,-2
1,152,28627,5060,-12787,-8874,-29,-69,-1
1,153,28632,4934,-12888,-8870,-28,-74,1
1,154,28637,4912,-12923,-8784,-25,-83,-1
1,155,28642,4931,-12836,-8731,-20,-90,-1
1,156,28647,4870,-12808,-8864,-13,-100,0
1,157,28652,4838,-12866,-8884,-13,-106,0
1,158,28657,4866,-12785,-8731,-9,-111,-5
1,159,28662,4975,-12700,-8721,-7,-110,-4
1,160,28667,4962,-12788,-8824,-8,-102,-2
1,161,28672,4885,-12812,-8860,-12,-94,-6
1,162,28677,4855,-12840,-8723,-16,-85,-8
1,163,28682,4871,-12807,-8683,-18,-70,-11
1,164,28687,4900,-12791,-8706,-25,-54,-11
1,165,28692,4659,-12730,-8907,-31,-35,-15
1,166,28697,4541,-12920,-8758,-29,-4,-22
1,167,28702,4944,-12966,-8739,-25,-18,-34
1,168,28707,5030,-12762,-8516,-32,-22,-38
1,169,28712,4905,-13108,-8826,-49,-16,-26
1,170,28717,4876,-13114,-8736,-33,-29,-28
1,171,28722,4827,-13017,-8701,-20,-46,-25
1,172,28727,4830,-13030,-8706,-20,-53,-22
1,173,28732,4997,-12920,-8702,-14,-65,-22
1,174,28737,4993,-12867,-8752,-6,-74,-20
1,175,28742,4953,-12831,-8741,-1,-79,-19
1,176,28747,4897,-12846,-8757,2,-85,-17
1,177,28752,4890,-12852,-8779,4,-94,-18
1,178,28757,4940,-12863,-8802,9,-98,-15
1,179,28762,4871,-12837,-8784,13,-99,-15
1,180,28767,4871,-12828,-8806,13,-101,-15
1,181,28772,4779,-12879,-8734,10,-98,-14
1,182,28777,4720,-12876,-8773,9,-92,-15
1,183,28782,4758,-12790,-8799,9,-82,-17
1,184,28787,4832,-12667,-8657,8,-69,-20
1,185,28792,4918,-12643,-8607,0,-52,-22
1,186,28797,4863,-12729,-8783,-10,-30,-21
1,187,28802,4738,-12883,-8863,-16,-16,-21
1,188,28807,4716,-12883,-8836,-17,-8,-24
1,189,28812,4786,-12812,-8768,-17,-4,-26
1,190,28817,4740,-12841,-8745,-18,2,-24
1,191,28822,4654,-12850,-8737,-15,0,-24
1,192,28827,4670,-12821,-8785,-11,-9,-25
1,193,28832,4682,-12746,-8749,-8,-17,-24
1,194,28837,4648,-12806,-8775,-6,-22,-23
1,195,28842,4646,-12848,-8811,-1,-26,-25
1,196,28847,4773,-12769,-8818,1,-31,-26
1,197,28852,4842,-12739,-8825,2,-29,-26
1,198,28857,4896,-12743,-8862,0,-26,-27
1,199,28862,4819,-12752,-8833,-1,-24,-26
1,200,28867,4804,-12762,-8800,1,-22,-28
1,201,28872,4708,-12781,-8787,3,-26,-26
1,202,28877,4652,-12794,-8837,7,-29,-29
1,203,28882,4865,-12808,-8791,14,-31,-33
1,204,28887,4989,-12684,-8728,14,-41,-34
1,205,28892,4814,-12773,-8795,9,-39,-27
1,206,28897,4752,-12817,-8790,9,-38,-26
1,207,28902,4886,-12744,-8755,13,-41,-31
1,208,28907,4912,-12800,-8768,8,-36,-30
1,209,28912,4810,-12881,-8776,1,-24,-30
1,210,28917,4830,-12871,-8766,-1,-12,-32
1,211,28922,4968,-12752,-8848,-2,1,-33
1,212,28927,4956,-12720,-8857,-7,12,-33
1,213,28932,4848,-12785,-8776,-8,13,-35
1,214,28937,4754,-12858,-8839,-6,7,-37
1,215,28942,4704,-12910,-8931,-3,-3,-34
1,216,28947,4783,-12945,-8886,5,-18,-36
1,217,28952,4929,-12894,-8659,13,-33,-37
1,218,28957,5001,-12826,-8793,16,-36,-37
1,219,28962,4928,-12848,-8922,11,-27,-36
1,220,28967,4911,-12863,-8959,11,-26,-38
1,221,28972,5002,-12826,-8813,11,-25,-39
1,222,28977,5036,-12785,-8771,10,-14,-40
1,223,28982,4961,-12794,-8829,4,-2,-39
1,224,28987,4920,-12813,-8862,1,1,-40
1,225,28992,4913,-12809,-8783,3,-3,-43
1,226,28997,5004,-12775,-8714,5,-7,-43
1,227,29002,4966,-12786,-8821,8,-7,-41
1,228,29007,4957,-12791,-8901,10,-13,-39
1,229,29012,5003,-12783,-8813,16,-25,-39
1,230,29017,5028,-12810,-8784,17,-36,-39
1,231,29022,4987,-12900,-8844,23,-47,-39
1,232,29027,4828,-12985,-8886,27,-56,-37
1,233,29032,4815,-12996,-8901,31,-67,-38
1,234,29037,4906,-12898,-8890,34,-73,-39
1,235,29042,4970,-12830,-8934,34,-68,-38
1,236,29047,4844,-12859,-8917,34,-66,-36
1,237,29052,4744,-12865,-8834,32,-63,-38
1,238,29057,4689,-12851,-8901,32,-61,-41
1,239,29062,4726,-12854,-8900,34,-62,-41
1,240,29067,4743,-12806,-8903,36,-61,-41
1,241,29072,4776,-12794,-8913,35,-57,-41
1,242,29077,4747,-12789,-8886,32,-50,-41
1,243,29082,4774,-12749,-8862,25,-39,-43
1,244,29087,4765,-12748,-8824,21,-21,-44
1,245,29092,4762,-12787,-8896,13,-1,-42
1,246,29097,4702,-12909,-8916,8,14,-40
1,247,29102,4734,-12953,-8846,5,24,-41
1,248,29107,4779,-12895,-8752,1,32,-41
1,249,29112,4767,-12913,-8796,-3,38,-38
1,250,29117,4750,-12949,-8807,-3,39,-36
1,251,29122,4774,-12974,-8801,1,33,-33
1,252,29127,4781,-13007,-8806,3,23,-30
1,253,29132,4790,-13044,-8796,5,12,-24
1,254,29137,4877,-13003,-8738,7,-3,-20
1,255,29142,4941,-12886,-8741,14,-12,-18
1,256,29147,4996,-12872,-8846,16,-17,-13
1,257,29152,4970,-12900,-8921,15,-27,-7
1,258,29157,4958,-12927,-8870,17,-37,-5
1,259,29162,5052,-12863,-8742,21,-43,-1
1,260,29167,5053,-12803,-8790,22,-46,3
1,261,29172,5076,-12831,-8868,23,-48,6
1,262,29177,4987,-12891,-8944,21,-50,9
1,263,29182,4969,-12955,-8847,19,-53,12
1,264,29187,5052,-12907,-8793,23,-53,11
1,265,29192,5102,-12858,-8858,20,-44,13
1,266,29197,5005,-12851,-9007,16,-37,16
1,267,29202,4867,-12915,-8964,17,-36,17
1,268,29207,4886,-12909,-8771,16,-38,16
1,269,29212,4835,-12828,-8734,18,-36,15
1,270,29217,4710,-12873,-8870,17,-37,17
1,271,29222,4702,-12920,-8925,19,-41,19
1,272,29227,4709,-12944,-8873,21,-43,15
1,273,29232,4690,-12915,-8760,21,-39,16
1,274,29237,4679,-12918,-8757,18,-31,13
1,275,29242,4763,-12851,-8764,12,-17,11
1,276,29247,4777,-12892,-8858,5,-1,11
1,277,29252,4701,-12991,-8952,-2,13,10
1,278,29257,4692,-13001,-8837,-6,17,9
1,279,29262,4764,-12921,-8679,-3,17,7
1,280,29267,4786,-12909,-8672,-2,15,6
1,281,29272,4769,-12946,-8770,-4,15,8
1,282,29277,4789,-12941,-8790,-3,12,7
1,283,29282,4940,-12868,-8808,1,8,7
1,284,29287,4984,-12803,-8767,-1,10,6
1,285,29292,4914,-12856,-8802,-4,14,7
1,286,29297,4910,-12814,-8737,-5,15,7
1,287,29302,5000,-12766,-8691,-5,16,7
1,288,29307,5023,-12790,-8783,-8,20,8
1,289,29312,4968,-12896,-8789,-9,18,10
1,290,29317,4952,-12862,-8767,-6,13,10
1,291,29322,4987,-12839,-8829,-4,8,11
1,292,29327,4956,-12873,-8852,-2,-3,14
1,293,29332,4829,-12925,-8736,4,-17,16
1,294,29337,4739,-12956,-8801,9,-28,15
1,295,29342,4771,-12939,-8892,14,-38,15
1,296,29347,4847,-12891,-8846,18,-46,17
1,297,29352,4887,-12835,-8835,18,-47,17
1,298,29357,4828,-12815,-8841,14,-42,18
1,299,29362,4773,-12822,-8920,12,-35,18
1,300,29367,4714,-12833,-8876,12,-33,19
1,301,29372,4745,-12763,-8791,13,-34,19
1,302,29377,4768,-12773,-8780,12,-32,17
1,303,29382,4751,-12801,-8805,11,-30,15
1,304,29387,4740,-12793,-8797,10,-26,15
1,305,29392,4807,-12759,-8761,12,-22,15
1,306,29397,4845,-12869,-8696,10,-22,18
1,307,29402,4848,-12883,-8647,8,-23,17
1,308,29407,4852,-12919,-8636,7,-19,16
1,309,29412,4917,-12918,-8669,4,-8,15
1,310,29417,5029,-12874,-8802,-1,7,16
1,311,29422,4995,-12907,-8866,-8,22,14
1,312,29427,4934,-12981,-8838,-12,33,14
1,313,29432,4811,-13052,-8782,-11,34,16
1,314,29437,4698,-13066,-8704,-8,27,15
1,315,29442,4671,-13071,-8684,-3,15,16
1,316,29447,4700,-13070,-8667,5,0,17
1,317,29452,4748,-12979,-8698,9,-15,18
1,318,29457,4724,-12921,-8784,9,-21,19
1,319,29462,4761,-12921,-8833,10,-20,16
1,320,29467,4794,-12893,-8837,7,-15,14
1,321,29472,4812,-12834,-8904,5,-1,14
1,322,29477,4746,-12845,-8860,0,12,12
1,323,29482,4679,-12858,-8833,-4,20,10
1,324,29487,4638,-12893,-8764,-3,23,12
1,325,29492,4637,-12916,-8741,-2,20,11
1,326,29497,4667,-12936,-8812,-1,16,11
1,327,29502,4736,-12936,-8824,2,7,11
1,328,29507,4821,-12920,-8817,3,3,12
1,329,29512,4933,-12930,-8797,2,8,10
1,330,29517,4979,-12939,-8839,-4,22,8
1,331,29522,5012,-12932,-8901,-10,34,8
1,332,29527,4952,-12996,-8814,-15,45,6
1,333,29532,4884,-13049,-8698,-19,52,5
1,334,29537,4830,-13062,-8669,-19,56,4
1,335,29542,4728,-13049,-8748,-18,52,7
1,336,29547,4792,-13035,-8776,-16,43,8
1,337,29552,4859,-13023,-8841,-13,28,6
1,338,29557,4859,-12998,-8914,-10,19,6
1,339,29562,4826,-13001,-8958,-3,5,10
1,340,29567,4709,-12983,-8876,6,-12,10
1,341,29572,4735,-12956,-8812,12,-27,9
1,342,29577,4812,-12894,-8837,19,-43,10
1,343,29582,4888,-12842,-8827,21,-51,9
1,344,29587,4903,-12839,-8796,17,-51,8
1,345,29592,4849,-12874,-8834,14,-45,6
1,346,29597,4868,-12783,-8821,8,-31,5
1,347,29602,4978,-12692,-8771,2,-13,3
1,348,29607,4938,-12734,-8826,-11,9,5
1,349,29612,4834,-12817,-8819,-19,28,5
1,350,29617,4759,-12840,-8835,-21,35,4
1,351,29622,4772,-12835,-8753,-24,40,3
1,352,29627,4788,-12823,-8741,-26,41,4
1,353,29632,4821,-12856,-8776,-27,38,5
1,354,29637,4833,-12857,-8770,-23,33,5
1,355,29642,4870,-12808,-8792,-21,27,3
1,356,29647,4854,-12828,-8845,-20,16,5
1,357,29652,4852,-12837,-8822,-16,7,6
1,358,29657,4837,-12890,-8851,-10,-6,5
1,359,29662,4851,-12864,-8831,-4,-18,7
1,360,29667,4825,-12900,-8843,-2,-31,7
1,361,29672,4805,-12887,-8887,3,-43,9
1,362,29677,4812,-12931,-8797,7,-55,10
1,363,29682,4824,-12915,-8786,10,-60,9
1,364,29687,4862,-12880,-8916,11,-61,10
1,365,29692,4859,-12901,-8949,9,-58,9
1,366,29697,4872,-12916,-8822,5,-48,8
1,367,29702,4947,-12861,-8681,0,-33,5
1,368,29707,4904,-12842,-8791,-10,-11,6
1,369,29712,4752,-12899,-8876,-20,7,6
1,370,29717,4648,-12928,-8810,-21,13,6
1,371,29722,4673,-12932,-8653,-23,17,3
1,372,29727,4675,-12938,-8651,-25,18,3
1,373,29732,4586,-12961,-8746,-25,19,3
1,374,29737,4592,-12992,-8836,-24,15,3
1,375,29742,4642,-12958,-8877,-22,11,2
1,376,29747,4781,-12952,-8838,-19,7,1
1,377,29752,4760,-12879,-8816,-19,7,1
1,378,29757,4695,-12905,-8852,-18,2,-2
1,379,29762,4662,-12949,-8869,-13,-6,-2
1,380,29767,4695,-12940,-8803,-7,-16,2
1,381,29772,4783,-12886,-8754,-3,-28,1
1,382,29777,4837,-12861,-8763,2,-37,0
1,383,29782,4797,-12878,-8798,2,-42,0
1,384,29787,4797,-12954,-8822,2,-46,2
1,385,29792,4867,-12918,-8784,4,-44,1
1,386,29797,4915,-12835,-8801,1,-35,1
1,387,29802,4926,-12851,-8832,-7,-19,-1
1,388,29807,4914,-12837,-8837,-12,-2,0
1,389,29812,4873,-12855,-8830,-17,16,-3
1,390,29817,4837,-12886,-8821,-24,30,-3
1,391,29822,4850,-12883,-8816,-28,38,-3
1,392,29827,4863,-12828,-8767,-30,42,-6
1,393,29832,4838,-12829,-8816,-29,42,-2
1,394,29837,4781,-12871,-8838,-26,35,0
1,395,29842,4795,-12918,-8876,-18,25,-1
1,396,29847,4821,-12935,-8882,-12,10,0
1,397,29852,4857,-12923,-8819,-8,-7,0
1,398,29857,4844,-12876,-8784,3,-26,2
1,399,29862,4848,-12828,-8879,11,-44,4
1,400,29867,4852,-12818,-8879,17,-55,6
1,401,29872,4930,-12849,-8880,22,-68,7
1,402,29877,4918,-12847,-8816,26,-77,6
1,403,29882,4872,-12832,-8765,27,-80,7
1,404,29887,4844,-12783,-8804,29,-76,8
1,405,29892,4873,-12728,-8859,27,-70,9
1,406,29897,4865,-12777,-8911,23,-61,11
1,407,29902,4848,-12772,-8820,18,-49,10
1,408,29907,4766,-12805,-8753,14,-37,10
1,409,29912,4750,-12826,-8810,11,-24,9
1,410,29917,4691,-12829,-8843,6,-13,10
1,411,29922,4646,-12855,-8932,0,-2,12
1,412,29927,4690,-12870,-8928,0,0,13
1,413,29932,4752,-12853,-8809,3,2,9
1,414,29937,4680,-12874,-8800,3,5,10
1,415,29942,4517,-12933,-8928,2,6,11
1,416,29947,4570,-12893,-8991,5,0,11
1,417,29952,4638,-12815,-8866,11,-8,11
1,418,29957,4686,-12780,-8809,13,-12,12
1,419,29962,4536,-12813,-8847,13,-14,15
1,420,29967,4473,-12840,-8853,17,-20,15
1,421,29972,4507,-12810,-8801,18,-26,17
1,422,29977,4642,-12784,-8819,18,-25,16
1,423,29982,4729,-12719,-8856,17,-18,16
1,424,29987,4686,-12764,-8894,14,-7,19
1,425,29992,4656,-12810,-8860,10,3,19
1,426,29997,4629,-12801,-8822,8,14,19
1,427,30002,4538,-12868,-8850,3,24,23
1,428,30007,4463,-12910,-8916,-2,32,27
1,429,30012,4556,-12795,-8898,-4,39,33
1,430,30017,4824,-12430,-8816,-3,45,35
1,431,30022,4792,-12243,-8732,-6,57,39
1,432,30027,4182,-12426,-8796,-17,76,48
1,433,30032,3654,-12612,-8931,-22,83,56
1,434,30037,3714,-12482,-8899,-18,79,59
1,435,30042,3858,-12311,-8834,-15,80,65
1,436,30047,3850,-12294,-8974,-19,89,72
1,437,30052,3694,-12336,-9061,-22,100,74
1,438,30057,3553,-12347,-9023,-24,112,78
1,439,30062,3494,-12515,-9029,-28,127,84
1,440,30067,3599,-12588,-9016,-26,138,89
1,441,30072,3878,-12491,-8916,-23,142,91
1,442,30077,4030,-12539,-8977,-27,154,96
1,443,30082,4010,-12756,-9067,-29,166,106
1,444,30087,4011,-12953,-8956,-23,173,119
1,445,30092,4156,-12960,-8760,-18,172,123
1,446,30097,4404,-12969,-8633,-13,161,127
1,447,30102,4500,-13028,-8551,-6,156,138
1,448,30107,4479,-13121,-8589,-2,149,154
1,449,30112,4619,-13145,-8577,7,135,166
1,450,30117,4809,-13147,-8489,20,114,178
1,451,30122,4993,-13070,-8458,31,98,190
1,452,30127,5057,-13101,-8506,38,84,207
1,453,30132,5121,-13074,-8579,46,69,228
1,454,30137,5378,-12983,-8603,62,46,242
1,455,30142,5601,-12817,-8635,76,27,258
1,456,30147,5543,-12857,-8662,83,16,281
1,457,30152,5094,-12993,-8718,106,-20,319
1,458,30157,5114,-12923,-8722,121,-41,336
1,459,30162,5187,-12840,-8832,133,-57,352
1,460,30167,5124,-12811,-8864,142,-66,370
1,461,30172,4884,-12882,-8836,150,-77,387
1,462,30177,4504,-13001,-8741,158,-88,406
1,463,30182,4238,-13109,-8615,170,-105,420
1,464,30187,4223,-13163,-8523,185,-124,434
1,465,30192,4352,-13157,-8619,197,-141,446
1,466,30197,4512,-13084,-8771,205,-147,458
1,467,30202,4408,-13178,-8717,208,-145,469
1,468,30207,4091,-13317,-8497,205,-134,479
1,469,30212,3850,-13420,-8351,203,-118,492
1,470,30217,3522,-13371,-8345,202,-102,502
1,471,30222,3842,-13475,-8572,205,-101,510
1,472,30227,4158,-13389,-8571,216,-103,514
1,473,30232,4656,-13427,-9019,209,-83,517
1,474,30237,4259,-13526,-8778,200,-41,522
1,475,30242,3754,-13768,-8722,179,3,533
1,476,30247,3532,-13763,-8474,176,27,539
1,477,30252,3673,-13768,-8478,174,32,545
1,478,30257,3805,-13848,-8336,180,30,552
1,479,30262,3774,-13856,-8375,181,30,560
1,480,30267,3672,-13867,-8357,181,33,567
1,481,30272,3636,-13929,-8366,189,28,574
1,482,30277,3803,-13981,-8304,195,15,582
1,483,30282,3829,-13981,-8211,205,-2,584
1,484,30287,3721,-14026,-8266,208,-17,588
1,485,30292,3631,-14050,-8253,210,-26,595
1,486,30297,3664,-14049,-8215,213,-32,599
1,487,30302,3902,-13890,-8254,215,-28,605
1,488,30307,4075,-13760,-8311,212,-18,609
1,489,30312,4038,-13731,-8352,205,0,615
1,490,30317,3843,-13798,-8362,195,17,621
1,491,30322,3691,-13837,-8281,190,25,624
1,492,30327,3683,-13814,-8284,192,22,627
1,493,30332,3683,-13766,-8332,195,13,629
1,494,30337,3618,-13762,-8422,200,-2,633
1,495,30342,3413,-13874,-8395,203,-18,634
1,496,30347,3211,-13903,-8286,208,-40,636
1,497,30352,3235,-13856,-8235,217,-63,635
1,498,30357,3408,-13742,-8289,223,-79,636
1,499,30362,3495,-13679,-8366,223,-88,641
1,500,30367,3424,-13717,-8372,217,-90,641
1,501,30372,3297,-13776,-8318,214,-87,642
1,502,30377,3215,-13774,-8367,215,-86,639
1,503,30382,3118,-13793,-8276,215,-93,637
1,504,30387,2980,-13884,-8156,215,-104,635
1,505,30392,2851,-13983,-8068,217,-119,629
1,506,30397,2728,-14079,-8076,220,-136,624
1,507,30402,2724,-14143,-8111,225,-156,617
1,508,30407,2708,-14222,-8030,229,-178,612
1,509,30412,2573,-14415,-7943,228,-188,605
1,510,30417,2460,-14582,-7914,223,-191,596
1,511,30422,2482,-14649,-7946,216,-185,585
1,512,30427,2575,-14582,-7985,209,-172,572
1,513,30432,2603,-14520,-7910,200,-158,561
1,514,30437,2652,-14492,-7708,184,-148,554
1,515,30442,1979,-14696,-7774,164,-132,552
1,516,30447,1710,-14813,-7888,157,-118,537
1,517,30452,1867,-14617,-7856,168,-137,516
1,518,30457,1912,-14595,-7811,169,-156,506
1,519,30462,1916,-14526,-7619,171,-175,498
1,520,30467,1829,-14551,-7736,176,-195,489
1,521,30472,1699,-14473,-7807,180,-216,475
1,522,30477,1625,-14495,-7864,182,-236,464
1,523,30482,1640,-14551,-7848,183,-251,451
1,524,30487,1854,-14454,-7770,186,-263,433
1,525,30492,1925,-14346,-7864,180,-256,418
1,526,30497,1949,-14329,-8049,167,-236,406
1,527,30502,1870,-14244,-8079,154,-217,388
1,528,30507,1831,-14245,-7879,144,-194,370
1,529,30512,1699,-14330,-7754,130,-170,353
1,530,30517,1458,-14384,-7696,116,-152,338
1,531,30522,1360,-14392,-7683,105,-137,321
1,532,30527,1370,-14401,-7580,99,-132,306
1,533,30532,1352,-14377,-7524,91,-125,288
1,534,30537,1375,-14332,-7585,84,-118,274
1,535,30542,1322,-14302,-7693,75,-108,257
1,536,30547,1214,-14332,-7824,67,-101,237
1,537,30552,1258,-14290,-7731,63,-98,219
1,538,30557,1201,-14314,-7701,56,-98,200
1,539,30562,1153,-14346,-7800,53,-98,181
1,540,30567,1207,-14279,-7840,52,-100,161
1,541,30572,1343,-14154,-7888,49,-103,142
1,542,30577,1519,-14092,-7903,47,-99,120
1,543,30582,1473,-14131,-7903,34,-87,101
1,544,30587,1377,-14274,-8024,25,-76,81
1,545,30592,1043,-14359,-7599,17,-62,59
1,546,30597,1078,-14507,-7783,8,-56,41
1,547,30602,1326,-14311,-7737,9,-59,17
1,548,30607,1557,-14288,-7695,0,-51,-5
1,549,30612,1550,-14353,-7572,-13,-35,-27
1,550,30617,1502,-14487,-7754,-28,-14,-47
1,551,30622,1550,-14457,-7796,-35,2,-71
1,552,30627,1810,-14342,-7910,-45,12,-97
1,553,30632,1978,-14301,-7886,-53,21,-120
1,554,30637,1894,-14397,-7712,-60,24,-145
1,555,30642,1623,-14629,-7682,-69,25,-167
1,556,30647,1572,-14725,-7690,-70,15,-191
1,557,30652,1924,-14605,-7697,-65,2,-221
1,558,30657,2240,-14408,-7630,-68,-11,-248
1,559,30662,2196,-14476,-7606,-76,-12,-274
1,560,30667,1914,-14644,-7565,-89,-7,-300
1,561,30672,1907,-14716,-7758,-94,-5,-327
1,562,30677,2313,-14619,-7995,-99,-3,-360
1,563,30682,2669,-14479,-8083,-107,1,-393
1,564,30687,2593,-14493,-7848,-120,16,-426
1,565,30692,2223,-14552,-7748,-140,44,-457
1,566,30697,2197,-14374,-7839,-156,70,-489
1,567,30702,2597,-14074,-8043,-166,84,-523
1,568,30707,2896,-13984,-8161,-178,90,-557
1,569,30712,2724,-14169,-8267,-190,91,-594
1,570,30717,2264,-14442,-8155,-200,86,-630
1,571,30722,2150,-14464,-8124,-200,67,-667
1,572,30727,2505,-14200,-8264,-193,37,-704
1,573,30732,2779,-13812,-8204,-179,-18,-742
1,574,30737,3067,-14080,-8466,-157,-99,-782
1,575,30742,2180,-14873,-8538,-145,-180,-823
1,576,30747,1933,-15108,-7973,-121,-279,-874
1,577,30752,2262,-14463,-7418,-90,-347,-924
1,578,30757,2965,-13941,-8036,-92,-371,-977
1,579,30762,4212,-13423,-8517,-106,-374,-1058
1,580,30767,4499,-13324,-8494,-145,-341,-1122
1,581,30772,4413,-14093,-7897,-196,-282,-1164
1,582,30777,3705,-14326,-7898,-225,-257,-1202
1,583,30782,3438,-14272,-7877,-231,-260,-1248
1,584,30787,3646,-14045,-8080,-239,-298,-1313
1,585,30792,4082,-13852,-8293,-240,-333,-1387
1,586,30797,4613,-13608,-8488,-247,-349,-1453
1,587,30802,4723,-13423,-8754,-274,-347,-1500
1,588,30807,4488,-13501,-8934,-308,-346,-1538
1,589,30812,3942,-13525,-8755,-326,-371,-1582
1,590,30817,3534,-13372,-8528,-326,-424,-1636
1,591,30822,3382,-13078,-8608,-313,-499,-1695
1,592,30827,3412,-12983,-9010,-302,-586,-1756
1,593,30832,3649,-12963,-9521,-284,-672,-1820
1,594,30837,4182,-12824,-9925,-265,-749,-1897
1,595,30842,4726,-12743,-10143,-250,-818,-1978
1,596,30847,5039,-12593,-9972,-234,-877,-2056
1,597,30852,4975,-12489,-9721,-235,-919,-2123
1,598,30857,-7599,-14988,-5233,-297,-902,-2279
1,599,30862,3678,-11954,-18877,-728,-551,-3110
1,600,30867,20833,-12734,-17965,213,-905,-3513
1,601,30872,8194,-3142,14420,-364,1162,-3529
1,602,30877,-32768,-27345,6693,-2946,3696,-63
1,603,30882,-27412,-21717,-448,-1352,1801,401
1,604,30887,23510,2313,-15048,1088,-1024,-1032
1,605,30892,32767,10665,-3621,1003,-1059,-861
1,606,30897,-3579,-18736,-17565,-1056,637,656
1,607,30902,-28859,-30569,-14129,-1069,1187,1043
1,608,30907,-4010,-16968,-11821,106,302,244
1,609,30912,28993,-1166,-5641,694,-395,-253
1,610,30917,23956,-3568,2145,115,84,49
1,611,30922,-1141,-19491,-10183,-671,782,589
1,612,30927,5814,-16799,-12014,411,-541,92
1,613,30932,21355,-7975,-733,726,-1001,-157
1,614,30937,17261,-9368,-2341,312,-543,5
1,615,30942,3400,-15338,-11912,-177,125,243
1,616,30947,-2425,-18903,-15538,-273,317,231
1,617,30952,6433,-14073,-6317,-84,217,57
1,618,30957,11062,-11084,-1886,-178,364,60
1,619,30962,6992,-12038,-7142,-391,643,144
1,620,30967,881,-14415,-12912,-454,670,196
1,621,30972,-1426,-15690,-11413,-352,456,143
1,622,30977,2334,-14257,-7358,-181,185,39
1,623,30982,4969,-12284,-6398,-104,67,3
1,624,30987,4916,-12379,-10063,-148,74,25
1,625,30992,2815,-13298,-10979,-171,123,13
1,626,30997,2933,-12709,-10517,-207,208,-25
1,627,31002,4341,-12374,-10439,-255,216,-55
1,628,31007,6702,-11360,-9015,-241,245,-152
1,629,31012,4972,-11555,-9461,-316,378,-128
1,630,31017,2327,-13074,-11562,-378,426,-89
1,631,31022,4013,-12239,-10101,-268,268,-152
1,632,31027,6240,-11324,-8554,-196,125,-177
1,633,31032,6240,-11325,-8279,-191,84,-145
1,634,31037,4759,-12425,-10087,-197,46,-109
1,635,31042,4880,-12641,-10585,-163,-20,-98
1,636,31047,6620,-12127,-9603,-136,-67,-97
1,637,31052,7973,-11609,-8705,-146,-34,-89
1,638,31057,7865,-11679,-9015,-179,49,-75
1,639,31062,6220,-12539,-9753,-226,130,-51
1,640,31067,5176,-13148,-9511,-234,145,-31
1,641,31072,5374,-13087,-8552,-199,106,-32
1,642,31077,6780,-12324,-7839,-150,58,-50
1,643,31082,6882,-12286,-8278,-137,39,-36
1,644,31087,5767,-12919,-8727,-143,34,-7
1,645,31092,4609,-13423,-8417,-127,0,10
1,646,31097,4609,-13400,-7940,-93,-48,0
1,647,31102,5666,-12959,-7816,-63,-77,-20
1,648,31107,5865,-12789,-8090,-66,-58,-25
1,649,31112,5305,-13128,-8292,-95,-10,-22
1,650,31117,4611,-13527,-8251,-109,25,-26
1,651,31122,4752,-13329,-7843,-110,57,-33
1,652,31127,4685,-13248,-8045,-130,104,-23
1,653,31132,4555,-13233,-8414,-150,152,-19
1,654,31137,4624,-13245,-8666,-164,188,-17
1,655,31142,4589,-13210,-8653,-181,223,-13
1,656,31147,4637,-13129,-8582,-196,254,-9
1,657,31152,4413,-13152,-8663,-204,272,-3
1,658,31157,4409,-12943,-8771,-195,261,-2
1,659,31162,4321,-12825,-8886,-177,231,-5
1,660,31167,4340,-12753,-8718,-155,190,-7
1,661,31172,4315,-12867,-8700,-132,143,-3
1,662,31177,4490,-12743,-8830,-106,104,-5
1,663,31182,4824,-12508,-9083,-84,72,-6
1,664,31187,5065,-12411,-9178,-70,55,-7
1,665,31192,5234,-12313,-9034,-65,60,-7
1,666,31197,5176,-12270,-8940,-68,78,-6
1,667,31202,5208,-12191,-9010,-72,98,-5
1,668,31207,5235,-12236,-9143,-70,112,-1
1,669,31212,5320,-12275,-9081,-66,116,0
1,670,31217,5433,-12252,-8933,-61,117,2
1,671,31222,5349,-12278,-8885,-56,121,9
1,672,31227,5303,-12298,-9008,-56,123,16
1,673,31232,5459,-12171,-9088,-48,124,23
1,674,31237,5826,-12020,-9099,-39,124,28
1,675,31242,5885,-12032,-9170,-36,133,35
1,676,31247,5715,-12146,-9232,-38,143,45
1,677,31252,5520,-12298,-9315,-34,137,54
1,678,31257,5535,-12338,-9305,-20,123,57
1,679,31262,5525,-12382,-9183,-3,110,62
1,680,31267,5362,-12555,-9166,6,100,71
1,681,31272,5325,-12704,-9174,16,88,81
1,682,31277,5312,-12648,-9097,29,80,84
1,683,31282,5362,-12678,-9091,33,77,86
1,684,31287,5302,-12800,-9175,34,79,88
1,685,31292,5263,-12801,-9133,39,81,90
1,686,31297,5308,-12753,-9204,46,79,92
1,687,31302,5268,-12773,-9174,54,75,93
1,688,31307,5145,-12867,-9130,56,73,95
1,689,31312,5010,-12930,-9113,60,73,98
1,690,31317,5096,-12889,-9082,65,76,100
1,691,31322,5308,-12793,-9020,68,79,99
1,692,31327,5403,-12740,-8998,65,90,97
1,693,31332,5331,-12776,-9049,58,107,100
1,694,31337,5304,-12831,-9107,53,124,101
1,695,31342,5318,-12858,-9047,50,137,103
1,696,31347,5389,-12806,-8999,43,153,100
1,697,31352,5390,-12798,-9111,37,169,101
1,698,31357,5334,-12831,-9259,34,176,103
1,699,31362,5280,-12835,-9163,36,172,104
1,700,31367,5252,-12750,-9020,41,162,105
1,701,31372,5292,-12713,-9145,46,148,108
1,702,31377,5201,-12763,-9249,55,126,112
1,703,31382,5053,-12766,-9227,68,93,115
1,704,31387,4975,-12733,-9042,85,56,116
1,705,31392,4883,-12728,-8927,98,20,118
1,706,31397,4854,-12700,-8938,107,-5,117
1,707,31402,4899,-12652,-9070,113,-17,116
1,708,31407,5068,-12599,-9206,113,-21,113
1,709,31412,5156,-12589,-9217,105,-11,107
1,710,31417,5182,-12525,-9055,93,14,104
1,711,31422,5117,-12555,-8980,79,42,101
1,712,31427,5015,-12645,-8952,66,62,98
1,713,31432,4925,-12800,-8993,54,76,93
1,714,31437,4822,-12860,-8918,47,89,90
1,715,31442,4845,-12817,-8878,33,107,89
1,716,31447,5050,-12640,-8856,24,126,85
1,717,31452,5261,-12533,-8812,11,147,79
1,718,31457,5194,-12572,-8870,-9,175,76
1,719,31462,5059,-12683,-8931,-26,201,76
1,720,31467,4981,-12715,-8942,-35,214,76
1,721,31472,5051,-12676,-8832,-40,216,72
1,722,31477,5146,-12682,-8769,-42,211,70
1,723,31482,5117,-12772,-8782,-44,202,72
1,724,31487,5081,-12845,-8886,-41,186,72
1,725,31492,5040,-12853,-8977,-35,163,73
1,726,31497,5188,-12886,-8938,-27,137,71
1,727,31502,5349,-12826,-8829,-21,116,68
1,728,31507,5418,-12766,-8855,-19,105,69
1,729,31512,5415,-12781,-9063,-21,99,73
1,730,31517,5358,-12829,-9104,-25,95,75
1,731,31522,5384,-12843,-8918,-26,88,74
1,732,31527,5489,-12765,-8795,-27,80,72
1,733,31532,5580,-12708,-8773,-30,83,70
1,734,31537,5533,-12689,-8938,-37,87,73
1,735,31542,5389,-12740,-9048,-42,87,75
1,736,31547,5409,-12709,-8982,-41,81,75
1,737,31552,5482,-12681,-8872,-39,75,72
1,738,31557,5414,-12704,-8832,-41,69,76
1,739,31562,5189,-12814,-8933,-43,63,80
1,740,31567,5164,-12876,-8995,-42,55,78
1,741,31572,5301,-12800,-9081,-42,48,74
1,742,31577,5522,-12681,-9179,-42,53,71
1,743,31582,5518,-12595,-9292,-48,58,69
1,744,31587,5326,-12683,-9222,-52,63,71
1,745,31592,5137,-12784,-9037,-51,56,71
1,746,31597,5041,-12754,-9042,-44,37,71
1,747,31602,5127,-12632,-9056,-32,9,72
1,748,31607,5262,-12564,-8980,-24,-20,70
1,749,31612,5261,-12615,-9013,-16,-44,68
1,750,31617,5190,-12630,-9039,-14,-58,69
1,751,31622,5316,-12644,-8965,-14,-62,69
1,752,31627,5462,-12540,-8960,-13,-59,67
1,753,31632,5453,-12555,-9054,-18,-53,65
1,754,31637,5322,-12610,-8991,-25,-48,63
1,755,31642,5183,-12697,-8893,-28,-48,61
1,756,31647,5142,-12643,-8833,-27,-49,61
1,757,31652,5173,-12595,-8885,-30,-46,59
1,758,31657,5188,-12608,-9009,-36,-38,58
1,759,31662,5290,-12551,-9075,-41,-32,53
1,760,31667,5350,-12502,-8981,-48,-21,49
1,761,31672,5073,-12589,-9023,-59,6,47
1,762,31677,4998,-12650,-8981,-64,10,45
1,763,31682,5005,-12660,-8947,-63,4,41
1,764,31687,5073,-12702,-8947,-61,-4,38
1,765,31692,5112,-12647,-8879,-59,-9,36
1,766,31697,5161,-12587,-8936,-57,-10,33
1,767,31702,5124,-12596,-9127,-58,-9,33
1,768,31707,5083,-12671,-9073,-57,-14,31
1,769,31712,5069,-12710,-8911,-54,-24,27
1,770,31717,5103,-12683,-8867,-49,-34,25
1,771,31722,5111,-12729,-9013,-46,-38,25
1,772,31727,5140,-12795,-9149,-45,-42,23
1,773,31732,5231,-12770,-9125,-42,-45,18
1,774,31737,5287,-12768,-8994,-41,-45,16
1,775,31742,5250,-12741,-8912,-42,-42,15
1,776,31747,5122,-12711,-8970,-41,-38,11
1,777,31752,5031,-12704,-9038,-40,-37,12
1,778,31757,5062,-12682,-8995,-38,-40,11
1,779,31762,5074,-12668,-8909,-32,-49,7
1,780,31767,5103,-12620,-8753,-29,-53,5
1,781,31772,5106,-12578,-8835,-31,-46,3
1,782,31777,5030,-12623,-9024,-35,-35,1
1,783,31782,5080,-12648,-9072,-35,-25,-2
1,784,31787,5204,-12550,-8897,-34,-16,-6
1,785,31792,5145,-12521,-8772,-40,-6,-8
1,786,31797,4946,-12612,-8817,-44,0,-9
1,787,31802,4844,-12698,-8859,-41,-7,-8
1,788,31807,4905,-12687,-8836,-34,-18,-11
1,789,31812,5061,-12686,-8837,-30,-25,-13
1,790,31817,5123,-12640,-8911,-25,-28,-13
1,791,31822,5114,-12646,-8974,-20,-34,-15
1,792,31827,4994,-12685,-8869,-15,-43,-17
1,793,31832,4938,-12671,-8808,-9,-54,-19
1,794,31837,4981,-12575,-8870,-3,-62,-17
1,795,31842,4988,-12521,-8902,2,-67,-18
1,796,31847,5017,-12428,-8934,7,-72,-21
1,797,31852,4995,-12455,-8967,8,-74,-20
1,798,31857,4971,-12471,-8993,10,-67,-21
1,799,31862,5032,-12451,-9008,10,-66,-22
1,800,31867,5063,-12479,-8948,10,-62,-24
1,801,31872,5046,-12479,-8868,9,-52,-26
1,802,31877,4954,-12537,-8916,8,-48,-27
1,803,31882,4861,-12539,-8890,12,-47,-26
1,804,31887,4842,-12598,-8897,14,-49,-28
1,805,31892,4868,-12606,-8844,18,-53,-30
1,806,31897,4940,-12594,-8890,21,-49,-33
1,807,31902,4921,-12574,-8992,22,-49,-33
1,808,31907,4943,-12613,-8927,24,-49,-33
1,809,31912,5035,-12571,-8793,29,-49,-35
1,810,31917,5043,-12579,-8811,26,-42,-36
1,811,31922,5064,-12622,-8892,26,-36,-38
1,812,31927,5090,-12570,-8899,28,-31,-38
1,813,31932,5115,-12529,-8865,29,-30,-39
1,814,31937,5118,-12600,-8823,29,-27,-40
1,815,31942,5069,-12632,-8790,33,-27,-40
1,816,31947,5066,-12606,-8788,39,-32,-40
1,817,31952,5076,-12644,-8810,43,-35,-40
1,818,31957,5111,-12679,-8890,44,-33,-40
1,819,31962,5137,-12696,-8976,49,-38,-39
1,820,31967,5154,-12750,-8972,53,-42,-40
1,821,31972,5136,-12753,-8879,55,-44,-40
1,822,31977,5086,-12783,-8824,58,-43,-41
1,823,31982,5102,-12766,-8876,63,-42,-40
1,824,31987,5140,-12690,-8976,65,-40,-42
1,825,31992,5099,-12754,-9009,65,-37,-42
1,826,31997,5086,-12748,-8957,66,-38,-42
1,827,32002,5095,-12663,-8914,69,-35,-45
1,828,32007,5025,-12615,-8872,70,-34,-46
1,829,32012,4950,-12683,-8915,71,-32,-43
1,830,32017,4895,-12722,-8969,73,-32,-43
1,831,32022,4937,-12694,-8929,76,-33,-45
1,832,32027,4980,-12673,-8801,77,-33,-47
1,833,32032,4916,-12738,-8848,75,-24,-47
1,834,32037,4861,-12744,-8970,71,-10,-50
1,835,32042,4977,-12715,-9084,68,3,-52
1,836,32047,5058,-12765,-9007,61,19,-55
1,837,32052,5022,-12814,-8930,56,35,-57
1,838,32057,4997,-12828,-8898,55,47,-59
1,839,32062,4907,-12819,-8942,54,51,-57
1,840,32067,4852,-12849,-8968,56,42,-56
1,841,32072,4890,-12882,-8913,64,24,-55
1,842,32077,4993,-12813,-8769,76,2,-58
1,843,32082,5059,-12731,-8819,85,-17,-57
1,844,32087,5062,-12703,-8981,92,-32,-55
1,845,32092,5047,-12742,-8965,96,-44,-54
1,846,32097,5146,-12733,-8848,99,-49,-56
1,847,32102,5243,-12688,-8831,100,-45,-56
1,848,32107,5259,-12697,-8860,91,-31,-57
1,849,32112,5228,-12699,-8938,86,-19,-55
1,850,32117,5230,-12674,-8920,84,-14,-55
1,851,32122,5197,-12733,-8850,82,-12,-54
1,852,32127,5128,-12782,-8778,80,-12,-54
1,853,32132,5112,-12830,-8763,80,-16,-53
1,854,32137,5120,-12795,-8784,81,-18,-54
1,855,32142,5095,-12783,-8861,77,-16,-53
1,856,32147,5159,-12741,-8921,71,-8,-52
1,857,32152,5179,-12664,-8920,67,0,-52
1,858,32157,5128,-12661,-8910,63,8,-51
1,859,32162,4988,-12681,-8843,62,6,-50
1,860,32167,4880,-12712,-8807,65,-4,-49
1,861,32172,4834,-12760,-8875,72,-21,-47
1,862,32177,4859,-12777,-8888,78,-41,-48
1,863,32182,4879,-12795,-8936,81,-53,-47
1,864,32187,4918,-12788,-8937,81,-57,-47
1,865,32192,5020,-12687,-8871,77,-52,-47
1,866,32197,5091,-12634,-8885,72,-35,-50
1,867,32202,5080,-12657,-8935,59,-16,-51
1,868,32207,4998,-12767,-8855,46,3,-52
1,869,32212,4979,-12806,-8776,37,21,-54
1,870,32217,4935,-12816,-8811,29,38,-54
1,871,32222,4967,-12796,-8901,20,50,-53
1,872,32227,5103,-12820,-8874,15,53,-56
1,873,32232,5155,-12836,-8775,13,54,-57
1,874,32237,5131,-12870,-8804,10,55,-54
1,875,32242,5011,-12950,-8934,8,53,-51
1,876,32247,5026,-12935,-8853,10,40,-48
1,877,32252,5131,-12876,-8776,14,26,-48
1,878,32257,5259,-12834,-8828,15,23,-49
1,879,32262,5235,-12857,-8842,11,22,-48
1,880,32267,5182,-12857,-8838,8,23,-48
1,881,32272,5196,-12870,-8786,5,26,-46
1,882,32277,5242,-12857,-8715,5,23,-45
1,883,32282,5241,-12866,-8737,4,19,-46
1,884,32287,5189,-12938,-8831,3,10,-42
1,885,32292,5169,-12991,-8797,4,0,-42
1,886,32297,5222,-12993,-8797,5,-7,-41
1,887,32302,5273,-12896,-8870,4,-4,-42
1,888,32307,5332,-12841,-8901,1,-5,-39
1,889,32312,5318,-12840,-8916,-3,-4,-38
1,890,32317,5268,-12904,-8881,-6,-2,-35
1,891,32322,5241,-12928,-8846,-8,-4,-35
1,892,32327,5189,-12875,-8852,-6,-7,-33
1,893,32332,5152,-12836,-8877,-4,-15,-32
1,894,32337,5199,-12836,-8805,-3,-24,-31
1,895,32342,5193,-12857,-8789,-3,-32,-27
1,896,32347,5195,-12841,-8760,-2,-37,-25
1,897,32352,5198,-12759,-8801,-2,-35,-26
1,898,32357,5190,-12768,-8866,-5,-32,-24
1,899,32362,5199,-12798,-8935,-8,-28,-25
1,900,32367,5269,-12773,-8919,-11,-23,-24
1,901,32372,5249,-12818,-8848,-13,-19,-22
1,902,32377,5182,-12848,-8860,-17,-14,-20
1,903,32382,5160,-12855,-8902,-18,-12,-19
1,904,32387,5262,-12803,-8877,-18,-14,-19
1,905,32392,5284,-12777,-8877,-18,-15,-18
1,906,32397,5270,-12740,-8879,-18,-20,-16
1,907,32402,5224,-12772,-8855,-16,-24,-15
1,908,32407,5166,-12769,-8878,-14,-31,-9
1,909,32412,5143,-12764,-8926,-11,-41,-6
1,910,32417,5145,-12730,-8907,-5,-52,-5
1,911,32422,5170,-12717,-8847,-1,-59,-3
1,912,32427,5143,-12754,-8868,1,-65,-2
1,913,32432,5084,-12819,-8972,3,-69,2
1,914,32437,5127,-12834,-8927,-1,-68,1
1,915,32442,5172,-12794,-8811,-4,-59,1
1,916,32447,5189,-12735,-8876,-7,-46,1
1,917,32452,5111,-12761,-8925,-14,-34,2
1,918,32457,5043,-12774,-8916,-17,-27,3
1,919,32462,5072,-12808,-8836,-16,-24,1
1,920,32467,5056,-12815,-8717,-15,-24,1
1,921,32472,5069,-12821,-8711,-15,-26,1
1,922,32477,5133,-12850,-8723,-16,-26,3
1,923,32482,5184,-12875,-8781,-20,-22,4
1,924,32487,5250,-12841,-8846,-22,-14,6
1,925,32492,5312,-12794,-8810,-26,-4,4
1,926,32497,5213,-12763,-8751,-30,5,4
1,927,32502,5081,-12809,-8755,-30,8,7
1,928,32507,4977,-12836,-8749,-26,0,9
1,929,32512,4981,-12835,-8758,-19,-13,11
1,930,32517,5099,-12841,-8756,-10,-34,13
1,931,32522,5254,-12809,-8708,-2,-49,15
1,932,32527,5303,-12897,-8662,-4,-58,14
1,933,32532,5257,-12987,-8576,-7,-55,13
1,934,32537,5349,-12831,-8689,-7,-42,12
1,935,32542,5481,-12682,-8860,-11,-28,11
1,936,32547,5427,-12692,-8778,-22,-12,13
1,937,32552,5265,-12784,-8601,-27,-3,14
1,938,32557,5081,-12826,-8594,-25,0,16
1,939,32562,4938,-12845,-8809,-22,-6,20
1,940,32567,4888,-12867,-8913,-16,-21,23
1,941,32572,4965,-12787,-8819,-3,-44,25
1,942,32577,5026,-12756,-8766,7,-59,26
1,943,32582,4935,-12728,-8832,13,-69,28
1,944,32587,4886,-12748,-8904,20,-84,31
1,945,32592,4930,-12757,-8857,30,-102,30
1,946,32597,5079,-12764,-8723,37,-113,30
1,947,32602,5194,-12799,-8640,43,-119,29
1,948,32607,5111,-12882,-8655,39,-117,27
1,949,32612,5070,-12903,-8534,31,-104,24
1,950,32617,5199,-12670,-8522,22,-72,20
1,951,32622,5357,-12447,-8733,5,-24,19
1,952,32627,5294,-12424,-8902,-18,27,19
1,953,32632,5125,-12579,-8797,-36,64,19
1,954,32637,4926,-12686,-8584,-43,84,20
1,955,32642,4818,-12701,-8504,-45,95,23
1,956,32647,4834,-12639,-8657,-42,92,26
1,957,32652,4994,-12639,-8728,-34,76,28
1,958,32657,5134,-12620,-8735,-27,60,28
1,959,32662,5124,-12679,-8748,-21,48,28
1,960,32667,5042,-12828,-8835,-13,32,29
1,961,32672,5013,-12872,-8812,1,9,31
1,962,32677,5091,-12864,-8744,12,-13,29
1,963,32682,5166,-12847,-8694,20,-29,28
1,964,32687,5162,-12786,-8807,25,-32,27
1,965,32692,5173,-12739,-8935,22,-27,29
1,966,32697,5210,-12663,-8935,19,-14,30
1,967,32702,5227,-12650,-8821,14,-3,31
1,968,32707,5155,-12637,-8765,8,10,34
1,969,32712,5064,-12709,-8765,6,16,36
1,970,32717,4964,-12788,-8797,11,14,39
1,971,32722,4922,-12822,-8864,16,4,40
1,972,32727,5004,-12814,-8860,21,-8,41
1,973,32732,5068,-12849,-8778,26,-14,40
1,974,32737,5083,-12844,-8825,27,-16,37
1,975,32742,5054,-12788,-8884,28,-9,32
1,976,32747,5036,-12803,-8912,30,1,31
1,977,32752,5049,-12835,-8897,28,8,28
1,978,32757,5064,-12836,-8854,25,14,25
1,979,32762,5061,-12843,-8794,21,21,24
1,980,32767,5048,-12848,-8768,22,25,27
1,981,32772,5076,-12846,-8825,20,31,27
1,982,32777,5101,-12839,-8837,17,36,29
1,983,32782,5093,-12823,-8851,16,39,29
1,984,32787,5070,-12840,-8714,15,39,30
1,985,32792,5057,-12850,-8652,17,39,29
1,986,32797,5058,-12808,-8790,17,41,30
1,987,32802,5083,-12820,-8809,19,37,27
1,988,32807,5120,-12869,-8769,22,30,26
1,989,32812,5147,-12879,-8686,24,23,25
1,990,32817,5124,-12895,-8715,28,14,24
1,991,32822,5062,-12894,-8756,35,3,25
1,992,32827,5086,-12852,-8716,37,-8,24
1,993,32832,5170,-12826,-8714,41,-18,25
1,994,32837,5198,-12828,-8828,40,-21,26
1,995,32842,5213,-12853,-8874,39,-20,27
1,996,32847,5209,-12858,-8809,39,-22,28
1,997,32852,5170,-12884,-8748,38,-19,29
1,998,32857,5124,-12873,-8728,33,-13,28
1,999,32862,5130,-12789,-8733,30,-6,25
