event_id,seq,ts_us,ax,ay,az,gx,gy,gz
11,0,1122693572,-57,-4047,-814,-1,11,10
11,1,1122701141,-57,-4047,-814,-2,6,11
11,2,1122708679,-43,-4042,-801,0,1,9
11,3,1122716217,-50,-4043,-788,0,2,11
11,4,1122723754,-44,-4046,-824,0,2,9
11,5,1122731323,-41,-4050,-828,0,0,10
11,6,1122738891,-41,-4050,-828,0,2,10
11,7,1122746429,-64,-4045,-802,-2,5,10
11,8,1122753997,-73,-4045,-804,0,5,9
11,9,1122761566,-58,-4048,-828,1,6,10
11,10,1122769134,-58,-4048,-828,1,5,8
11,11,1122776702,-55,-4039,-816,-2,7,6
11,12,1122784271,-67,-4046,-796,0,4,8
11,13,1122791809,-65,-4045,-807,-4,7,7
11,14,1122799377,-65,-4045,-807,-2,5,7
11,15,1122806945,-51,-4043,-811,-1,6,6
11,16,1122814514,-53,-4040,-815,-1,7,6
11,17,1122822174,-64,-4049,-819,-4,8,6
11,18,1122829742,-64,-4049,-819,-1,7,6
11,19,1122837280,-70,-4046,-814,2,7,6
11,20,1122844818,-66,-4041,-816,1,9,4
11,21,1122852416,-58,-4042,-807,-1,11,4
11,22,1122859954,-58,-4042,-807,1,11,5
11,23,1122867584,-61,-4046,-796,-3,15,4
11,24,1122875152,-50,-4046,-818,0,15,3
11,25,1122882720,-36,-4046,-822,-1,12,2
11,26,1122890350,-48,-4046,-807,1,11,5
11,27,1122897918,-48,-4046,-807,-1,13,2
11,28,1122905517,-59,-4043,-797,-1,13,5
11,29,1122913085,-42,-4047,-802,-2,14,2
11,30,1122920654,-50,-4045,-817,1,10,4
11,31,1122928192,-50,-4045,-817,0,14,4
11,32,1122935760,-58,-4045,-831,1,15,4
11,33,1122943298,-66,-4045,-828,-1,19,2
11,34,1122950866,-63,-4044,-824,0,31,2
11,35,1122958435,-63,-4044,-824,-2,37,3
11,36,1122965972,-41,-4043,-833,-1,48,0
11,37,1122973510,-38,-4045,-828,-1,55,0
11,38,1122981048,-44,-4046,-794,-1,71,-1
11,39,1122988586,-44,-4046,-794,-1,78,-1
11,40,1122996154,-60,-4042,-795,-2,79,0
11,41,1123003723,-88,-4049,-832,-2,77,-1
11,42,1123011260,-122,-4049,-811,-3,60,-5
11,43,1123018798,-122,-4049,-811,0,51,-4
11,44,1123026397,-146,-4050,-795,1,30,-5
11,45,1123033966,-151,-4051,-821,2,18,-6
11,46,1123041564,-143,-4053,-828,4,4,-10
11,47,1123049133,-118,-4055,-816,4,9,-11
11,48,1123056732,-118,-4055,-816,6,11,-13
11,49,1123064300,-107,-4044,-813,5,22,-16
11,50,1123071899,-100,-4046,-809,3,29,-18
11,51,1123079467,-69,-4043,-800,2,41,-19
11,52,1123087127,-69,-4043,-800,2,45,-18
11,53,1123094726,-46,-4047,-805,1,51,-21
11,54,1123102294,-38,-4046,-789,-1,55,-22
11,55,1123109893,-28,-4035,-768,-1,58,-22
11,56,1123117431,-28,-4035,-768,0,59,-19
11,57,1123125000,1,-4037,-764,-2,46,-20
11,58,1123132568,0,-4040,-765,-2,43,-18
11,59,1123140106,-27,-4038,-762,-5,26,-16
11,60,1123147674,-27,-4038,-762,-4,19,-15
11,61,1123155242,1,-4039,-757,-4,1,-14
11,62,1123162780,36,-4034,-777,-6,-3,-12
11,63,1123170349,54,-4040,-786,-6,4,-9
11,64,1123177947,54,-4040,-786,-7,4,-7
11,65,1123185485,17,-4038,-764,-9,4,-8
11,66,1123193023,20,-4031,-763,-8,0,-3
11,67,1123200561,59,-4031,-787,-9,-2,0
11,68,1123208099,57,-4031,-785,-10,0,1
11,69,1123215667,57,-4031,-785,-12,0,3
11,70,1123223236,45,-4035,-771,-14,-4,10
11,71,1123230773,54,-4034,-762,-16,-5,10
11,72,1123238342,56,-4029,-767,-15,-11,10
11,73,1123245910,56,-4029,-767,-14,-13,15
11,74,1123253479,44,-4035,-764,-13,-27,22
11,75,1123261016,24,-4035,-765,-16,-35,21
11,76,1123268554,9,-4032,-750,-16,-56,24
11,77,1123276153,9,-4032,-750,-18,-65,26
11,78,1123283691,-1,-4033,-755,-20,-85,28
11,79,1123291320,-15,-4033,-769,-19,-95,30
11,80,1123298889,-23,-4035,-775,-18,-111,32
11,81,1123306457,-23,-4035,-775,-20,-116,32
11,82,1123314086,-31,-4040,-772,-20,-120,35
11,83,1123321655,-38,-4040,-765,-20,-118,35
11,84,1123329254,-45,-4038,-793,-23,-116,33
11,85,1123336822,-45,-4038,-793,-22,-114,33
11,86,1123344390,-60,-4038,-795,-24,-111,34
11,87,1123351928,-72,-4041,-792,-23,-107,35
11,88,1123359497,-66,-4042,-814,-24,-103,32
11,89,1123367034,-57,-4042,-839,-25,-104,32
11,90,1123374572,-57,-4042,-839,-25,-101,32
11,91,1123382110,-58,-4040,-835,-22,-101,33
11,92,1123389678,-68,-4042,-847,-22,-100,34
11,93,1123397216,-77,-4041,-861,-27,-90,31
11,94,1123404785,-77,-4041,-861,-22,-83,30
11,95,1123412322,-79,-4043,-866,-23,-69,31
11,96,1123419891,-92,-4047,-882,-23,-64,32
11,97,1123427459,-100,-4041,-889,-21,-51,28
11,98,1123435028,-100,-4041,-889,-18,-45,28
11,99,1123442596,-100,-4049,-903,-20,-40,25
11,100,1123450164,-107,-4039,-934,-15,-39,27
11,101,1123457733,-123,-4046,-920,-12,-35,25
11,102,1123465332,-123,-4046,-920,-9,-33,26
11,103,1123472869,-133,-4049,-902,-7,-30,22
11,104,1123480438,-142,-4050,-913,-7,-27,19
11,105,1123488006,-147,-4049,-904,-5,-20,18
11,106,1123495635,-147,-4049,-904,-7,-11,17
11,107,1123503204,-137,-4046,-866,-4,6,14
11,108,1123510772,-110,-4046,-857,-1,13,12
11,109,1123518402,-87,-4043,-850,-4,29,9
11,110,1123525970,-88,-4041,-834,-6,41,9
11,111,1123533569,-88,-4041,-834,-4,46,10
11,112,1123541137,-74,-4043,-837,-4,55,8
11,113,1123548706,-60,-4041,-848,-3,59,10
11,114,1123556243,-59,-4040,-854,-4,58,10
11,115,1123563812,-59,-4040,-854,-3,55,14
11,116,1123571380,-74,-4035,-850,-2,45,12
11,117,1123578948,-92,-4039,-845,-1,33,14
11,118,1123586517,-99,-4033,-837,2,19,14
11,119,1123594085,-99,-4033,-837,1,11,13
11,120,1123601654,-99,-4041,-851,3,-2,17
11,121,1123609222,-107,-4045,-845,3,-5,12
11,122,1123616790,-116,-4047,-838,4,4,11
11,123,1123624328,-116,-4047,-838,8,8,12
11,124,1123631835,-96,-4042,-842,5,11,13
11,125,1123639404,-84,-4038,-866,6,15,10
11,126,1123646972,-88,-4046,-838,3,23,11
11,127,1123654541,-88,-4046,-838,3,23,12
11,128,1123662109,-98,-4036,-810,2,27,8
11,129,1123669647,-97,-4037,-830,4,26,9
11,130,1123677276,-85,-4039,-843,4,22,10
11,131,1123684997,-103,-4039,-818,2,19,13
11,132,1123692565,-103,-4039,-818,5,16,12
11,133,1123700134,-101,-4038,-814,7,2,13
11,134,1123707702,-82,-4040,-822,7,-3,14
11,135,1123715270,-80,-4038,-795,4,-7,12
11,136,1123722839,-80,-4038,-795,5,-5,12
11,137,1123730529,-101,-4035,-802,4,-6,13
11,138,1123738128,-100,-4037,-809,3,-8,11
11,139,1123745666,-102,-4035,-802,1,-12,13
11,140,1123753326,-102,-4035,-802,3,-10,14
11,141,1123760894,-134,-4035,-808,1,-11,10
11,142,1123768463,-133,-4039,-806,1,-14,10
11,143,1123776000,-146,-4048,-793,0,-20,10
11,144,1123783569,-146,-4048,-793,1,-24,7
11,145,1123791137,-173,-4043,-804,0,-36,11
11,146,1123798675,-176,-4040,-821,2,-41,9
11,147,1123806213,-178,-4046,-817,1,-60,4
11,148,1123813751,-178,-4046,-817,4,-69,3
11,149,1123821289,-201,-4047,-796,0,-83,2
11,150,1123828857,-194,-4045,-813,6,-88,-2
11,151,1123836425,-175,-4040,-826,2,-97,-3
11,152,1123843963,-190,-4049,-802,1,-102,-7
11,153,1123851501,-190,-4049,-802,-1,-98,-5
11,154,1123859039,-209,-4049,-792,-1,-93,-12
11,155,1123866607,-195,-4042,-797,-1,-88,-14
11,156,1123874145,-202,-4044,-791,-2,-90,-19
11,157,1123881683,-202,-4044,-791,-2,-92,-19
11,158,1123889312,-220,-4046,-792,0,-106,-24
11,159,1123896881,-227,-4044,-782,-3,-114,-24
11,160,1123904449,-198,-4040,-782,-2,-135,-27
11,161,1123911987,-198,-4040,-782,-1,-148,-31
11,162,1123919555,-198,-4038,-786,-1,-170,-28
11,163,1123927093,-223,-4040,-790,0,-179,-32
11,164,1123934722,-166,-4046,-796,0,-192,-33
11,165,1123942291,-166,-4046,-796,-1,-201,-37
11,166,1123949981,-116,-4013,-825,-8,-184,-34
11,167,1123957580,-149,-4053,-659,-15,-192,-40
11,168,1123965148,-234,-4056,-929,-7,-174,-33
11,169,1123972808,-234,-4056,-929,-4,-219,-57
11,170,1123980377,-250,-4050,-899,0,-232,-49
11,171,1123987976,-158,-4025,-655,2,-247,-48
11,172,1123995513,-212,-4051,-836,-5,-267,-54
11,173,1124003082,-174,-4044,-845,-1,-265,-55
11,174,1124010650,-174,-4044,-845,2,-248,-48
11,175,1124018188,-138,-4040,-808,-7,-237,-54
11,176,1124025726,-44,-4040,-796,-8,-214,-51
11,177,1124033294,-75,-4036,-755,-4,-201,-52
11,178,1124040863,-75,-4036,-755,-6,-218,-56
11,179,1124048400,-150,-4041,-787,-8,-279,-52
11,180,1124055969,-253,-4035,-690,-4,-330,-52
11,181,1124063537,-385,-4048,-666,-1,-455,-56
11,182,1124071105,-385,-4048,-666,1,-506,-53
11,183,1124078674,-355,-4043,-731,4,-583,-51
11,184,1124086242,-294,-4044,-736,1,-610,-56
11,185,1124093811,-170,-4031,-749,-1,-634,-58
11,186,1124101379,-170,-4031,-749,0,-631,-59
11,187,1124108917,-154,-4038,-795,-5,-616,-64
11,188,1124116485,-178,-4043,-784,-8,-603,-62
11,189,1124124053,-151,-4033,-757,-9,-571,-67
11,190,1124131622,-151,-4033,-757,-13,-561,-70
11,191,1124139190,-197,-4045,-780,-19,-533,-77
11,192,1124146759,-291,-4044,-714,-24,-507,-78
11,193,1124154327,-273,-4038,-716,-32,-449,-88
11,194,1124161895,-185,-4039,-807,-42,-379,-98
11,195,1124169586,-185,-4039,-807,-47,-332,-102
11,196,1124177154,-128,-4044,-821,-50,-252,-111
11,197,1124184722,-105,-4038,-820,-52,-212,-112
11,198,1124192382,-172,-4036,-831,-60,-166,-119
11,199,1124199951,-172,-4036,-831,-60,-157,-118
11,200,1124207550,-187,-4025,-767,-58,-155,-115
11,201,1124215118,-108,-4028,-757,-58,-164,-115
11,202,1124222686,-107,-4035,-813,-57,-206,-116
11,203,1124230224,-107,-4035,-813,-60,-234,-114
11,204,1124237792,-157,-4031,-811,-52,-284,-109
11,205,1124245330,-121,-4031,-817,-50,-302,-109
11,206,1124252899,-36,-4027,-837,-50,-313,-108
11,207,1124260559,-36,-4027,-837,-51,-310,-107
11,208,1124268096,-39,-4023,-809,-52,-289,-103
11,209,1124275634,-43,-4026,-804,-54,-281,-102
11,210,1124283172,-40,-4026,-808,-59,-282,-100
11,211,1124290710,-40,-4026,-808,-59,-297,-101
11,212,1124298278,-138,-4025,-756,-55,-334,-98
11,213,1124305847,-202,-4034,-772,-58,-379,-99
11,214,1124313415,-175,-4039,-847,-61,-393,-100
11,215,1124320983,-134,-4027,-879,-59,-399,-102
11,216,1124328521,-134,-4027,-879,-56,-384,-103
11,217,1124336059,-67,-4030,-970,-54,-328,-104
11,218,1124343688,-16,-4038,-1000,-61,-291,-106
11,219,1124351226,-65,-4031,-898,-68,-215,-108
11,220,1124358795,-65,-4031,-898,-68,-179,-109
11,221,1124366363,-131,-4026,-864,-75,-115,-108
11,222,1124373962,-38,-4018,-883,-81,-83,-111
11,223,1124381530,33,-4009,-814,-86,-28,-115
11,224,1124389160,33,-4009,-814,-83,-4,-115
11,225,1124396820,32,-4015,-878,-83,27,-111
11,226,1124404541,23,-4031,-953,-84,27,-109
11,227,1124412139,-43,-4029,-860,-84,-4,-109
11,228,1124419677,-43,-4029,-860,-82,-25,-108
11,229,1124427276,-102,-4018,-779,-77,-80,-102
11,230,1124434814,-61,-4013,-827,-76,-104,-99
11,231,1124442443,-11,-4016,-868,-74,-161,-97
11,232,1124449981,-39,-4013,-818,-72,-198,-97
11,233,1124457550,-39,-4013,-818,-69,-200,-93
11,234,1124465118,37,-4021,-844,-69,-176,-87
11,235,1124472656,156,-4049,-894,-69,-164,-85
11,236,1124480194,149,-4097,-780,-68,-172,-83
11,237,1124487731,149,-4097,-780,-64,-187,-79
11,238,1124495269,50,-4132,-684,-46,-241,-79
11,239,1124502838,246,-4201,-694,-41,-268,-81
11,240,1124510406,222,-4296,-752,-34,-302,-83
11,241,1124517944,222,-4296,-752,-32,-305,-80
11,242,1124525482,160,-4372,-699,-23,-299,-79
11,243,1124533020,219,-4414,-683,-25,-285,-78
11,244,1124540557,175,-4440,-760,-31,-216,-87
11,245,1124548126,175,-4440,-760,-30,-155,-85
11,246,1124555694,191,-4411,-795,-36,-30,-88
11,247,1124563323,188,-4372,-754,-39,15,-91
11,248,1124570892,38,-4323,-725,-36,64,-96
11,249,1124578430,38,-4323,-725,-34,58,-95
11,250,1124585998,-11,-4282,-677,-24,9,-100
11,251,1124593566,42,-4264,-673,-21,-19,-108
11,252,1124601104,36,-4235,-703,-16,-53,-112
11,253,1124608825,36,-4235,-703,-14,-64,-113
11,254,1124616424,66,-4225,-696,-13,-71,-117
11,255,1124623962,82,-4210,-728,-15,-68,-124
11,256,1124631591,44,-4225,-747,-18,-65,-126
11,257,1124639160,84,-4232,-660,-22,-45,-131
11,258,1124646728,84,-4232,-660,-23,-34,-134
11,259,1124654266,58,-4188,-706,-25,-41,-138
11,260,1124661804,39,-4189,-728,-28,-55,-139
11,261,1124669372,101,-4179,-620,-26,-102,-142
11,262,1124676940,101,-4179,-620,-23,-136,-144
11,263,1124684478,69,-4111,-683,-13,-237,-140
11,264,1124692047,19,-4054,-714,-10,-295,-139
11,265,1124699615,47,-4024,-698,2,-387,-136
11,266,1124707183,47,-4024,-698,5,-415,-139
11,267,1124714721,65,-4045,-807,0,-410,-137
11,268,1124722290,140,-4088,-845,-4,-358,-136
11,269,1124729858,191,-4130,-852,-14,-191,-132
11,270,1124737426,191,-4130,-852,-22,-95,-133
11,271,1124744995,183,-4174,-886,-42,102,-130
11,272,1124752563,196,-4204,-845,-44,186,-128
11,273,1124760131,151,-4190,-823,-44,269,-125
11,274,1124767700,151,-4190,-823,-43,257,-121
11,275,1124775268,25,-4158,-706,-23,171,-114
11,276,1124782867,44,-4099,-688,0,51,-106
11,277,1124790435,109,-4042,-796,11,-3,-103
11,278,1124798004,163,-4003,-856,29,-82,-88
11,279,1124805572,163,-4003,-856,43,-129,-82
11,280,1124813171,93,-3974,-797,61,-217,-75
11,281,1124820739,30,-3967,-811,73,-239,-69
11,282,1124828369,161,-3964,-926,77,-199,-60
11,283,1124835906,161,-3964,-926,75,-150,-56
11,284,1124843505,246,-3939,-976,74,-28,-55
11,285,1124851165,84,-3878,-971,76,26,-49
11,286,1124858734,13,-3835,-987,83,92,-38
11,287,1124866302,13,-3835,-987,88,98,-36
11,288,1124873840,37,-3824,-936,102,73,-37
11,289,1124881378,-70,-3827,-926,108,41,-34
11,290,1124888916,-73,-3840,-949,125,-38,-29
11,291,1124896453,-73,-3840,-949,134,-74,-27
11,292,1124903991,40,-3837,-927,147,-126,-24
11,293,1124911529,-45,-3822,-960,154,-149,-23
11,294,1124919097,14,-3845,-946,157,-157,-16
11,295,1124926635,14,-3845,-946,156,-131,-13
11,296,1124934204,150,-3849,-964,151,-44,-9
11,297,1124941772,84,-3828,-1032,146,28,-2
11,298,1124949310,40,-3819,-988,146,50,-1
11,299,1124956878,37,-3813,-991,146,65,0
11,300,1124964447,37,-3813,-991,147,66,0
11,301,1124972076,2,-3813,-1018,145,83,6
11,302,1124979614,82,-3794,-973,145,99,10
11,303,1124987152,86,-3777,-971,148,88,16
11,304,1124994720,86,-3777,-971,149,47,17
11,305,1125002288,-92,-3797,-888,157,-59,18
11,306,1125009857,-112,-3798,-860,163,-107,19
11,307,1125017547,-41,-3828,-974,157,-158,19
11,308,1125025146,-41,-3828,-974,150,-136,20
11,309,1125032714,122,-3800,-968,145,-41,25
11,310,1125040313,50,-3768,-986,139,-21,25
11,311,1125047851,-106,-3773,-966,130,-45,21
11,312,1125055419,-106,-3773,-966,131,-55,23
11,313,1125062988,-49,-3710,-887,136,-71,26
11,314,1125070556,8,-3659,-1016,131,-85,26
11,315,1125078094,48,-3705,-971,120,-82,26
11,316,1125085662,48,-3705,-971,117,-57,27
11,317,1125093231,70,-3785,-924,103,16,29
11,318,1125100769,90,-3816,-986,84,69,32
11,319,1125108306,43,-3871,-903,80,82,32
11,320,1125115844,10,-3894,-906,71,89,38
11,321,1125123382,10,-3894,-906,65,93,41
11,322,1125130950,98,-3901,-961,54,89,44
11,323,1125138519,102,-3961,-901,49,92,43
11,324,1125146057,54,-3981,-904,45,83,55
11,325,1125153594,54,-3981,-904,42,61,60
11,326,1125161132,64,-4003,-934,27,3,55
11,327,1125168670,35,-4024,-911,26,-8,57
11,328,1125176300,22,-4004,-991,16,0,66
11,329,1125183868,22,-4004,-991,11,5,66
11,330,1125191436,54,-4002,-1043,-4,7,61
11,331,1125198974,13,-4022,-954,-10,17,61
11,332,1125206573,-24,-4031,-974,-18,31,67
11,333,1125214111,-24,-4031,-974,-27,30,64
11,334,1125221740,47,-4058,-999,-47,42,59
11,335,1125229309,77,-4075,-935,-52,58,62
11,336,1125236846,30,-4092,-977,-64,73,65
11,337,1125244506,30,-4092,-977,-75,72,62
11,338,1125252044,27,-4109,-975,-87,71,58
11,339,1125259613,39,-4154,-1001,-90,68,60
11,340,1125267181,32,-4155,-1009,-105,61,54
11,341,1125274749,31,-4147,-1005,-110,47,52
11,342,1125282318,31,-4147,-1005,-116,22,52
11,343,1125289886,-14,-4181,-975,-123,-33,43
11,344,1125297424,-14,-4180,-948,-126,-44,43
11,345,1125304992,17,-4123,-980,-130,-49,39
11,346,1125312530,17,-4123,-980,-136,-52,39
11,347,1125320098,19,-4107,-984,-142,-49,31
11,348,1125327667,27,-4086,-937,-145,-46,29
11,349,1125335205,1,-4058,-950,-151,-48,26
11,350,1125342742,1,-4058,-950,-155,-51,22
11,351,1125350280,0,-4055,-904,-162,-32,20
11,352,1125357818,43,-4027,-915,-160,-12,19
11,353,1125365386,46,-3972,-944,-165,14,16
11,354,1125372955,46,-3972,-944,-166,16,13
11,355,1125380493,23,-3972,-853,-167,7,12
11,356,1125388061,48,-3985,-799,-164,-2,10
11,357,1125395629,105,-3984,-825,-159,-10,10
11,358,1125403167,105,-3984,-825,-157,-19,12
11,359,1125410766,67,-4004,-820,-151,-48,11
11,360,1125418304,64,-4025,-816,-149,-57,14
11,361,1125425964,115,-4042,-842,-143,-56,13
11,362,1125433563,115,-4042,-842,-142,-43,13
11,363,1125441131,123,-4038,-816,-129,-52,16
11,364,1125448791,14,-4071,-818,-117,-117,15
11,365,1125456359,-28,-4093,-805,-111,-149,13
11,366,1125463928,12,-4102,-869,-99,-164,10
11,367,1125471466,12,-4102,-869,-96,-143,8
11,368,1125479003,85,-4080,-982,-91,-57,8
11,369,1125486541,79,-4068,-961,-90,-20,8
11,370,1125494110,-12,-4097,-907,-84,23,1
11,371,1125501678,-12,-4097,-907,-83,32,-1
11,372,1125509246,-35,-4087,-891,-71,59,-4
11,373,1125516815,1,-4048,-904,-67,58,-5
11,374,1125524353,-33,-4015,-889,-55,27,-12
11,375,1125531890,-33,-4015,-889,-48,6,-12
11,376,1125539459,-35,-4020,-871,-36,-30,-16
11,377,1125547027,37,-4021,-921,-34,-29,-15
11,378,1125554595,90,-4022,-915,-28,1,-14
11,379,1125562164,90,-4022,-915,-25,12,-15
11,380,1125569702,29,-4054,-883,-22,4,-19
11,381,1125577239,-29,-4065,-881,-19,-4,-20
11,382,1125584808,5,-4049,-892,-16,-2,-20
11,383,1125592376,5,-4049,-892,-14,5,-23
11,384,1125599945,34,-4014,-914,-12,35,-24
11,385,1125607513,7,-3978,-920,-7,30,-25
11,386,1125615081,-39,-3943,-902,-4,11,-27
11,387,1125622619,-58,-3934,-888,6,-44,-29
11,388,1125630187,-58,-3934,-888,12,-70,-27
11,389,1125637817,-21,-3939,-931,16,-98,-31
11,390,1125645355,37,-3958,-940,19,-100,-31
11,391,1125652893,18,-3971,-923,19,-90,-30
11,392,1125660430,18,-3971,-923,25,-81,-31
11,393,1125667999,-40,-3977,-948,25,-77,-32
11,394,1125675567,12,-3990,-961,29,-73,-32
11,395,1125683105,21,-4036,-965,30,-81,-35
11,396,1125690673,21,-4036,-965,30,-84,-40
11,397,1125698242,-11,-4055,-967,34,-49,-32
11,398,1125705810,56,-4025,-1016,37,-26,-33
11,399,1125713348,37,-4018,-949,36,-16,-36
11,400,1125720886,37,-4018,-949,40,-24,-35
11,401,1125728424,-27,-4025,-906,53,-71,-33
11,402,1125735961,-17,-4054,-928,53,-103,-34
11,403,1125743530,19,-4084,-895,52,-124,-34
11,404,1125751098,19,-4084,-895,56,-112,-32
11,405,1125758636,38,-4062,-941,51,-79,-31
11,406,1125766174,35,-4041,-972,49,-71,-32
11,407,1125773803,-7,-4034,-896,45,-49,-33
11,408,1125781372,-25,-4024,-933,51,-37,-28
11,409,1125788940,-25,-4024,-933,48,-39,-30
11,410,1125796508,-2,-4019,-928,46,-45,-28
11,411,1125804107,-23,-4013,-897,46,-41,-28
11,412,1125811645,-47,-4004,-940,43,-45,-26
11,413,1125819305,-47,-4004,-940,44,-55,-23
11,414,1125826904,-8,-4002,-877,49,-84,-22
11,415,1125834472,-49,-3996,-858,47,-103,-20
11,416,1125842071,-51,-4006,-912,45,-132,-22
11,417,1125849639,-51,-4006,-912,42,-122,-18
11,418,1125857177,82,-3994,-907,37,-52,-11
11,419,1125864715,71,-3976,-976,34,-20,-9
11,420,1125872283,-3,-3978,-915,22,14,-8
11,421,1125879852,-3,-3978,-915,25,16,-6
11,422,1125887359,8,-4000,-824,26,-15,3
11,423,1125894897,-43,-4016,-852,27,-45,4
11,424,1125902465,-24,-4016,-830,33,-89,9
11,425,1125910034,-24,-4016,-830,35,-104,13
11,426,1125917602,4,-4035,-845,28,-135,12
11,427,1125925140,-13,-4066,-876,28,-135,14
11,428,1125932708,30,-4064,-853,22,-85,23
11,429,1125940246,30,-4064,-853,19,-63,24
11,430,1125947814,32,-4039,-870,14,-46,23
11,431,1125955383,-77,-4040,-828,11,-66,30
11,432,1125962951,-87,-4037,-815,15,-77,33
11,433,1125970581,-24,-4023,-852,14,-100,35
11,434,1125978149,-24,-4023,-852,13,-104,36
11,435,1125985687,-72,-4035,-869,15,-95,44
11,436,1125993255,-78,-4046,-869,15,-87,46
11,437,1126000823,-65,-4054,-861,5,-67,50
11,438,1126008422,-65,-4054,-861,5,-58,52
11,439,1126015960,-61,-4044,-824,4,-69,61
11,440,1126023559,-158,-4087,-816,-1,-87,64
11,441,1126031097,-2,-4070,-798,-3,-77,79
11,442,1126038665,-2,-4070,-798,-2,-63,86
11,443,1126046295,35,-4062,-827,-6,-88,98
11,444,1126053833,-202,-4099,-828,-11,-117,108
11,445,1126061370,-84,-4121,-762,-3,-159,134
11,446,1126068939,-84,-4121,-762,1,-177,143
11,447,1126076477,59,-4091,-850,-5,-240,159
11,448,1126084014,-270,-4124,-879,-7,-274,171
11,449,1126091552,-179,-4121,-774,-2,-285,208
11,450,1126099334,-75,-4073,-825,-13,-280,226
11,451,1126106872,-75,-4073,-825,-17,-284,240
11,452,1126114410,-340,-4060,-889,-19,-287,275
11,453,1126121978,-305,-4067,-787,-19,-291,290
11,454,1126129547,-239,-4071,-884,-31,-274,310
11,455,1126137084,-239,-4071,-884,-42,-243,328
11,456,1126144622,-343,-4071,-930,-45,-171,372
11,457,1126152313,-270,-4055,-861,-48,-152,391
11,458,1126159881,-344,-4036,-884,-52,-184,417
11,459,1126167449,-344,-4036,-884,-53,-225,436
11,460,1126175018,-589,-4054,-838,-43,-306,480
11,461,1126182556,-453,-4039,-826,-42,-340,496
11,462,1126190124,-429,-4028,-936,-49,-358,518
11,463,1126197692,-429,-4028,-936,-54,-331,540
11,464,1126205261,-568,-4039,-1024,-65,-209,586
11,465,1126212890,-349,-3961,-992,-70,-132,603
11,466,1126220428,-537,-3927,-989,-87,-15,629
11,467,1126227996,-537,-3927,-989,-93,12,650
11,468,1126235565,-798,-3948,-961,-81,-7,692
11,469,1126243133,-635,-3962,-805,-78,-54,703
11,470,1126250701,-785,-4007,-865,-77,-175,726
11,471,1126258392,-785,-4007,-865,-74,-209,745
11,472,1126265991,-800,-4008,-962,-65,-196,785
11,473,1126273559,-550,-3957,-939,-66,-149,808
11,474,1126281158,-756,-3982,-1003,-70,-143,820
11,475,1126288696,-846,-3994,-899,-69,-129,850
11,476,1126296264,-846,-3994,-899,-65,-117,860
11,477,1126303833,-706,-3912,-795,-92,-58,883
11,478,1126311370,-993,-4003,-1001,-63,-77,861
11,479,1126318908,-736,-3852,-1045,-68,16,919
11,480,1126326446,-736,-3852,-1045,-70,5,911
11,481,1126333984,-935,-3924,-832,-67,-7,920
11,482,1126341552,-1042,-3978,-963,-61,3,935
11,483,1126349121,-907,-3924,-1020,-65,-11,946
11,484,1126356689,-907,-3924,-1020,-61,-22,933
11,485,1126364257,-907,-3954,-902,-62,51,944
11,486,1126371795,-987,-3967,-1056,-61,88,952
11,487,1126379333,-792,-3965,-1004,-72,158,950
11,488,1126386901,-792,-3965,-1004,-78,191,948
11,489,1126394470,-940,-3995,-873,-72,176,948
11,490,1126402038,-1168,-4012,-960,-73,149,953
11,491,1126409606,-919,-3996,-893,-72,133,948
11,492,1126417236,-919,-3996,-893,-72,140,943
11,493,1126424804,-954,-3987,-914,-71,113,937
11,494,1126432403,-1157,-4004,-913,-72,38,929
11,495,1126439941,-1038,-4016,-818,-69,24,923
11,496,1126447509,-926,-3982,-978,-71,53,914
11,497,1126455078,-926,-3982,-978,-80,81,910
11,498,1126462646,-1042,-3976,-992,-88,146,902
11,499,1126470184,-1022,-3956,-891,-90,166,897
11,500,1126477905,-1107,-3965,-950,-99,164,875
11,501,1126485504,-1107,-3965,-950,-102,165,871
11,502,1126493072,-1121,-3935,-949,-96,149,856
11,503,1126500732,-1165,-3900,-927,-94,121,845
11,504,1126508300,-1232,-3861,-980,-92,65,823
11,505,1126515838,-1232,-3861,-980,-89,38,816
11,506,1126523406,-1230,-3840,-956,-89,6,792
11,507,1126530944,-1195,-3810,-992,-88,5,780
11,508,1126538482,-1224,-3779,-1017,-90,40,759
11,509,1126546020,-1224,-3779,-1017,-94,57,747
11,510,1126553558,-1246,-3745,-999,-93,82,724
11,511,1126561126,-1259,-3735,-969,-93,81,708
11,512,1126568695,-1342,-3741,-1007,-92,73,677
11,513,1126576232,-1342,-3741,-1007,-93,77,664
11,514,1126583770,-1290,-3711,-1010,-88,82,635
11,515,1126591339,-1297,-3692,-983,-82,48,600
11,516,1126598907,-1392,-3690,-967,-82,34,585
11,517,1126606445,-1313,-3676,-969,-71,6,553
11,518,1126614013,-1313,-3676,-969,-71,8,536
11,519,1126621582,-1293,-3668,-990,-73,35,505
11,520,1126629150,-1309,-3656,-1039,-74,69,490
11,521,1126636779,-1262,-3630,-999,-73,143,453
11,522,1126644348,-1262,-3630,-999,-74,158,435
11,523,1126651977,-1372,-3643,-1010,-73,159,395
11,524,1126659545,-1422,-3631,-962,-67,156,380
11,525,1126667114,-1382,-3610,-958,-58,142,341
11,526,1126674652,-1382,-3610,-958,-54,123,320
11,527,1126682281,-1434,-3607,-980,-39,56,280
11,528,1126689849,-1464,-3618,-936,-30,10,259
11,529,1126697357,-1480,-3629,-945,-19,-58,213
11,530,1126704956,-1480,-3629,-945,-15,-67,191
11,531,1126712524,-1410,-3637,-1006,-9,-22,147
11,532,1126720092,-1285,-3652,-1075,-10,23,126
11,533,1126727661,-1322,-3638,-1062,-15,132,78
11,534,1126735198,-1322,-3638,-1062,-10,164,53
11,535,1126742736,-1447,-3636,-1011,-3,179,4
11,536,1126750305,-1436,-3604,-975,7,154,-47
11,537,1126757873,-1406,-3576,-992,14,133,-76
11,538,1126765502,-1420,-3544,-990,31,79,-128
11,539,1126773071,-1420,-3544,-990,42,40,-154
11,540,1126780639,-1406,-3521,-960,67,-69,-212
11,541,1126788208,-1504,-3556,-944,73,-132,-244
11,542,1126795745,-1438,-3610,-985,78,-147,-296
11,543,1126803314,-1438,-3610,-985,80,-76,-320
11,544,1126810882,-928,-3574,-1098,72,126,-374
11,545,1126818450,-1026,-3578,-1098,61,193,-406
11,546,1126826019,-1376,-3604,-907,72,232,-455
11,547,1126833557,-1376,-3604,-907,83,208,-476
11,548,1126841125,-1193,-3594,-851,98,87,-538
11,549,1126848693,-1130,-3579,-898,103,25,-568
11,550,1126856262,-1195,-3567,-897,132,-94,-610
11,551,1126863800,-1195,-3567,-897,144,-167,-638
11,552,1126871398,-1110,-3548,-891,161,-313,-698
11,553,1126878936,-1152,-3597,-904,167,-367,-725
11,554,1126886505,-1181,-3648,-919,175,-401,-775
11,555,1126894073,-1181,-3648,-919,172,-369,-801
11,556,1126901672,-850,-3688,-985,159,-222,-855
11,557,1126909240,-771,-3780,-1010,138,-60,-905
11,558,1126916931,-901,-3861,-912,136,0,-926
11,559,1126924499,-892,-3899,-785,145,2,-979
11,560,1126932037,-892,-3899,-785,147,-52,-1008
11,561,1126939636,-1005,-3951,-811,157,-180,-1051
11,562,1126947174,-923,-3975,-817,164,-239,-1071
11,563,1126954742,-747,-4015,-804,170,-341,-1119
11,564,1126962341,-747,-4015,-804,168,-372,-1141
11,565,1126969879,-786,-4080,-881,166,-404,-1175
11,566,1126977447,-684,-4116,-864,167,-409,-1196
11,567,1126985015,-650,-4152,-851,155,-412,-1243
11,568,1126992584,-650,-4152,-851,144,-394,-1266
11,569,1127000122,-729,-4225,-934,128,-301,-1296
11,570,1127007659,-489,-4246,-895,122,-249,-1312
11,571,1127015197,-587,-4270,-853,103,-211,-1359
11,572,1127022735,-587,-4270,-853,92,-226,-1374
11,573,1127030303,-768,-4300,-881,90,-258,-1401
11,574,1127037872,-514,-4243,-812,89,-274,-1419
11,575,1127045410,-566,-4176,-903,78,-333,-1454
11,576,1127052978,-566,-4176,-903,76,-369,-1469
11,577,1127060546,-640,-4153,-942,68,-434,-1492
11,578,1127068115,-501,-4192,-955,39,-409,-1532
11,579,1127075653,-496,-4228,-1050,24,-341,-1538
11,580,1127083190,-413,-4212,-1007,-1,-163,-1552
11,581,1127090820,-413,-4212,-1007,-16,-99,-1562
11,582,1127098358,-361,-4219,-984,-42,-28,-1582
11,583,1127105926,-366,-4247,-921,-48,-25,-1585
11,584,1127113494,-428,-4261,-825,-48,-106,-1594
11,585,1127121124,-428,-4261,-825,-48,-165,-1597
11,586,1127128692,-368,-4246,-900,-52,-285,-1599
11,587,1127136260,-263,-4260,-948,-52,-328,-1601
11,588,1127143890,-315,-4287,-975,-63,-361,-1599
11,589,1127151458,-315,-4287,-975,-71,-342,-1597
11,590,1127159057,-385,-4328,-1079,-101,-193,-1582
11,591,1127166595,-210,-3913,-603,-58,-123,-1544
11,592,1127174163,-7230,-5276,-196,-431,389,-434
11,593,1127181732,-7230,-5276,-196,204,-776,-2179
11,594,1127189300,4323,-3469,-3015,67,57,-1508
11,595,1127196868,2812,-4220,752,-390,722,-1102
11,596,1127204437,-5567,-4547,-2114,-216,413,-1029
11,597,1127212005,-5567,-4547,-2114,26,-161,-1081
11,598,1127219573,2396,-3863,-469,-83,-188,-1206
11,599,1127227111,991,-4256,402,-161,112,-1114
11,600,1127234649,-2815,-4296,-3372,-87,-47,-1030
11,601,1127242462,2146,-4101,956,-74,55,-1027
11,602,1127250000,2146,-4101,956,-145,298,-1013
11,603,1127257568,139,-4257,-1143,-144,37,-934
11,604,1127265136,-2183,-4327,-1795,-129,-142,-868
11,605,1127272705,2394,-4051,715,-61,14,-834
11,606,1127280273,2394,-4051,715,-49,35,-864
11,607,1127287841,-264,-4171,-1844,-127,-202,-776
11,608,1127295379,-1038,-4188,-913,-91,-181,-678
11,609,1127302917,1920,-4001,132,-12,-103,-648
11,610,1127310485,1920,-4001,132,-61,-181,-664
11,611,1127318054,-590,-4112,-1661,-95,-268,-542
11,612,1127325622,-129,-4052,-449,-41,-183,-465
11,613,1127333160,1505,-3894,-428,-32,-114,-463
11,614,1127340789,1505,-3894,-428,-81,-163,-461
11,615,1127348327,-604,-4001,-1344,-55,-189,-327
11,616,1127355865,141,-3935,-344,-13,-169,-275
11,617,1127363555,1045,-3826,-846,-32,-224,-289
11,618,1127371093,1045,-3826,-846,-58,-255,-267
11,619,1127378631,-464,-3918,-1210,-19,-199,-149
11,620,1127386199,329,-3838,-612,3,-205,-129
11,621,1127393768,625,-3845,-1015,-21,-247,-135
11,622,1127401336,-349,-3962,-1028,-17,-247,-65
11,623,1127408874,-349,-3962,-1028,8,-215,-23
11,624,1127416442,409,-3916,-788,4,-184,-16
11,625,1127423980,431,-3903,-1114,-20,-153,-14
11,626,1127431549,-117,-3960,-1059,-17,-31,42
11,627,1127439117,-117,-3960,-1059,-2,15,70
11,628,1127446685,433,-3913,-885,-19,31,63
11,629,1127454254,314,-3911,-1061,-30,34,69
11,630,1127461822,15,-3919,-990,-16,66,112
11,631,1127469390,15,-3919,-990,-8,63,128
11,632,1127476928,450,-3888,-928,-17,8,124
11,633,1127484497,278,-3928,-1022,-20,-28,130
11,634,1127492034,68,-3967,-976,-4,-75,161
11,635,1127499603,68,-3967,-976,0,-99,169
11,636,1127507141,463,-3978,-991,-14,-111,165
11,637,1127514709,406,-4033,-1061,-22,-94,170
11,638,1127522247,306,-4058,-1041,-25,-25,193
11,639,1127529815,306,-4058,-1041,-30,10,198
11,640,1127537384,600,-4011,-1021,-50,89,199
11,641,1127545135,452,-4005,-1027,-57,115,204
11,642,1127552703,260,-4011,-998,-58,93,220
11,643,1127560272,477,-3998,-908,-54,26,222
11,644,1127567932,477,-3998,-908,-57,-9,223
11,645,1127575500,438,-4005,-1011,-55,-61,236
11,646,1127583068,409,-3990,-1046,-56,-79,241
11,647,1127590637,552,-3986,-999,-60,-100,243
11,648,1127598205,552,-3986,-999,-66,-98,245
11,649,1127605743,451,-3990,-1082,-77,-60,254
11,650,1127613311,432,-3970,-1111,-82,-24,257
11,651,1127620880,531,-3940,-1068,-94,43,254
11,652,1127628448,531,-3940,-1068,-100,62,255
11,653,1127635986,367,-3931,-1081,-107,75,256
11,654,1127643554,332,-3911,-1054,-109,75,259
11,655,1127651092,485,-3891,-1071,-111,89,249
11,656,1127658660,485,-3891,-1071,-116,102,246
11,657,1127666229,379,-3907,-1133,-122,109,249
11,658,1127673797,351,-3912,-1092,-122,98,249
11,659,1127681335,431,-3922,-1009,-124,68,243
11,660,1127688903,431,-3922,-1009,-123,50,240
11,661,1127696441,346,-3919,-1053,-123,24,234
11,662,1127704071,376,-3897,-1091,-125,18,234
11,663,1127711608,434,-3898,-1095,-123,18,228
11,664,1127719177,356,-3936,-1120,-131,32,219
11,665,1127726745,356,-3936,-1120,-132,61,219
11,666,1127734313,414,-3926,-1111,-141,132,210
11,667,1127741882,420,-3909,-1142,-141,151,208
11,668,1127749572,306,-3892,-1099,-142,149,200
11,669,1127757171,306,-3892,-1099,-141,141,197
11,670,1127764739,303,-3873,-1057,-136,107,190
11,671,1127772369,378,-3911,-1075,-136,83,183
11,672,1127779937,401,-3941,-1041,-136,79,177
11,673,1127787506,401,-3941,-1041,-138,96,172
11,674,1127795074,436,-3941,-1120,-143,148,169
11,675,1127802642,468,-3921,-1131,-146,169,166
11,676,1127810180,376,-3918,-1059,-137,177,160
11,677,1127817749,376,-3918,-1059,-137,164,157
11,678,1127825317,316,-3904,-1085,-131,121,150
11,679,1127832885,393,-3955,-1060,-130,113,146
11,680,1127840454,423,-3979,-1055,-127,140,141
11,681,1127848022,423,-3979,-1055,-125,160,138
11,682,1127855560,404,-3955,-1154,-128,194,132
11,683,1127863128,403,-3963,-1085,-120,205,124
11,684,1127870697,327,-3976,-1032,-118,190,121
11,685,1127878265,288,-3967,-1049,-109,141,110
11,686,1127885833,288,-3967,-1049,-105,125,107
11,687,1127893371,353,-3935,-1050,-96,126,106
11,688,1127900939,373,-3923,-1090,-93,129,103
11,689,1127908508,325,-3923,-1068,-90,128,93
11,690,1127916076,325,-3923,-1068,-85,130,89
11,691,1127923645,343,-3934,-1053,-77,133,79
11,692,1127931213,360,-3940,-1104,-74,136,77
11,693,1127938812,327,-3946,-1094,-71,147,69
11,694,1127946380,327,-3946,-1094,-66,158,65
11,695,1127953979,324,-3943,-1086,-59,182,59
11,696,1127961547,351,-3948,-1128,-59,197,55
11,697,1127969207,354,-3938,-1104,-57,224,48
11,698,1127976806,354,-3938,-1104,-50,226,44
11,699,1127984375,317,-3928,-1069,-41,181,40
11,700,1127992004,258,-3914,-1041,-33,143,34
11,701,1127999542,291,-3907,-1050,-19,71,27
11,702,1128007110,362,-3897,-1122,-11,51,21
11,703,1128014678,362,-3897,-1122,-7,55,17
11,704,1128022247,391,-3908,-1165,-5,88,13
11,705,1128029785,393,-3906,-1175,-1,107,10
11,706,1128037353,385,-3893,-1159,-1,136,3
11,707,1128044891,385,-3893,-1159,1,141,1
11,708,1128052429,349,-3875,-1117,9,137,-1
11,709,1128059967,313,-3859,-1119,13,127,-3
11,710,1128067504,329,-3846,-1131,21,93,-8
11,711,1128075073,329,-3846,-1131,26,77,-10
11,712,1128082641,361,-3813,-1125,39,50,-11
11,713,1128090209,340,-3781,-1141,43,28,-12
11,714,1128097778,323,-3775,-1127,53,-25,-14
11,715,1128105316,323,-3775,-1127,60,-52,-16
11,716,1128112854,333,-3781,-1112,74,-81,-18
11,717,1128120422,328,-3803,-1159,78,-83,-17
11,718,1128127960,351,-3813,-1190,78,-42,-20
11,719,1128135528,351,-3813,-1190,79,-1,-21
11,720,1128143127,402,-3806,-1197,78,88,-26
11,721,1128150695,319,-3816,-1202,75,116,-29
11,722,1128158264,255,-3809,-1077,79,153,-30
11,723,1128165802,255,-3809,-1077,86,154,-32
11,724,1128173431,254,-3817,-1053,93,127,-36
11,725,1128180999,316,-3846,-1065,98,99,-36
11,726,1128188568,356,-3883,-1007,105,85,-36
11,727,1128196228,363,-3926,-1035,112,44,-37
11,728,1128203796,363,-3926,-1035,113,22,-37
11,729,1128211364,384,-3965,-1021,117,-1,-35
11,730,1128218902,404,-4002,-1026,118,-4,-33
11,731,1128226470,384,-4025,-1065,116,-4,-34
11,732,1128234008,384,-4025,-1065,114,5,-31
11,733,1128241546,393,-4040,-1047,113,44,-27
11,734,1128249114,400,-4032,-1048,109,62,-26
11,735,1128256652,405,-4024,-1064,105,90,-23
11,736,1128264221,405,-4024,-1064,104,95,-22
11,737,1128271789,364,-4020,-1040,104,83,-14
11,738,1128279357,329,-4019,-1042,102,66,-14
11,739,1128286926,339,-4019,-1010,100,27,-13
11,740,1128294494,339,-4019,-1010,104,7,-10
11,741,1128302032,310,-4022,-1025,102,-40,-9
11,742,1128309600,293,-4038,-1054,102,-57,-5
11,743,1128317138,337,-4029,-1047,98,-60,-3
11,744,1128324676,337,-4029,-1047,97,-51,0
11,745,1128332244,311,-4034,-1116,84,-28,0
11,746,1128339782,323,-4038,-1089,83,-10,-1
11,747,1128347351,312,-4041,-1088,79,24,2
11,748,1128354919,261,-4040,-1138,72,31,4
11,749,1128362457,261,-4040,-1138,69,34,4
11,750,1128369995,290,-4037,-1089,64,45,4
11,751,1128377655,283,-4031,-1112,61,56,6
11,752,1128385253,265,-4025,-1105,54,72,4
11,753,1128392822,265,-4025,-1105,53,71,7
11,754,1128400421,277,-4026,-1055,49,64,7
11,755,1128407958,280,-4026,-1067,46,55,8
11,756,1128415496,290,-4024,-1043,44,45,8
11,757,1128423065,290,-4024,-1043,44,44,10
11,758,1128430633,332,-4026,-1020,37,25,13
11,759,1128438232,323,-4028,-1036,35,16,10
11,760,1128445800,317,-4017,-1020,32,-4,15
11,761,1128453369,317,-4017,-1020,33,-12,18
11,762,1128460937,338,-4024,-1009,26,-30,18
11,763,1128468505,330,-4036,-1027,23,-32,15
11,764,1128476074,360,-4022,-1039,14,3,20
11,765,1128483642,360,-4022,-1039,12,28,21
11,766,1128491180,379,-3990,-1070,-3,67,18
11,767,1128498748,317,-3998,-1055,-6,72,18
11,768,1128506317,311,-3993,-1029,-7,80,25
11,769,1128513885,328,-3999,-1062,-13,79,23
11,770,1128521453,328,-3999,-1062,-15,70,25
11,771,1128529022,326,-4007,-1066,-15,44,24
11,772,1128536590,291,-4004,-1010,-14,26,23
11,773,1128544158,308,-3999,-1033,-13,-9,26
11,774,1128551757,308,-3999,-1033,-14,-22,26
11,775,1128559295,328,-4003,-1059,-19,-34,23
11,776,1128566864,352,-3987,-1034,-20,-32,24
11,777,1128574401,337,-3971,-1049,-21,-25,28
11,778,1128582031,337,-3971,-1049,-23,-27,25
11,779,1128589599,302,-3984,-1071,-30,-31,24
11,780,1128597167,323,-3989,-1057,-31,-21,23
11,781,1128604797,348,-3962,-1098,-37,25,23
11,782,1128612365,348,-3962,-1098,-40,43,25
11,783,1128619964,315,-3967,-1080,-42,47,23
11,784,1128627502,279,-3974,-1030,-42,50,21
11,785,1128635040,283,-3946,-1046,-44,47,22
11,786,1128642608,283,-3946,-1046,-45,39,23
11,787,1128650146,329,-3944,-1043,-44,14,22
11,788,1128657684,314,-3956,-1009,-41,-3,21
11,789,1128665222,302,-3963,-1032,-38,-33,26
11,790,1128672760,302,-3963,-1032,-39,-39,26
11,791,1128680297,392,-3975,-1033,-41,-26,27
11,792,1128687866,413,-3953,-1053,-42,-16,32
11,793,1128695434,293,-3935,-1035,-40,-27,33
11,794,1128702972,265,-3959,-993,-35,-64,31
11,795,1128710540,265,-3959,-993,-34,-75,31
11,796,1128718078,298,-3993,-1041,-43,-40,29
11,797,1128725616,369,-3942,-1096,-47,13,30
11,798,1128733184,353,-3888,-1122,-47,95,34
11,799,1128740814,353,-3888,-1122,-50,107,30
11,800,1128748382,207,-3893,-1050,-44,69,26
11,801,1128755950,168,-3898,-988,-41,47,27
11,802,1128763519,272,-3905,-1042,-34,3,28
11,803,1128771087,272,-3905,-1042,-35,-9,27
11,804,1128778656,329,-3902,-1054,-29,-11,27
11,805,1128786285,299,-3907,-1062,-26,-21,28
11,806,1128793884,259,-3932,-1069,-23,-42,30
11,807,1128801452,259,-3932,-1069,-25,-40,27
11,808,1128809051,299,-3982,-1033,-23,-10,28
11,809,1128816589,383,-3987,-1078,-26,8,29
11,810,1128824127,345,-3955,-1042,-29,18,31
11,811,1128831665,345,-3955,-1042,-25,11,32
11,812,1128839202,241,-3953,-988,-20,-21,34
11,813,1128846771,252,-3975,-1017,-19,-31,31
11,814,1128854339,342,-3984,-1041,-18,-23,34
11,815,1128861907,356,-3977,-1076,-17,1,36
11,816,1128869476,356,-3977,-1076,-16,4,37
11,817,1128877044,293,-3977,-1053,-14,-11,39
11,818,1128884613,230,-3968,-1027,-9,-24,38
11,819,1128892181,205,-3986,-1064,-5,-55,39
11,820,1128899749,205,-3986,-1064,-11,-50,36
11,821,1128907318,259,-4027,-1043,-15,20,35
11,822,1128914886,347,-3984,-1067,-14,60,38
11,823,1128922454,275,-3962,-1080,-18,89,36
11,824,1128930023,275,-3962,-1080,-20,76,35
11,825,1128937591,168,-3987,-991,-8,31,36
11,826,1128945220,175,-3988,-1037,-6,8,32
11,827,1128952789,287,-3995,-1079,-10,2,33
11,828,1128960357,287,-3995,-1079,-11,25,33
11,829,1128967926,334,-4007,-1074,-10,60,34
11,830,1128975494,298,-3967,-1099,-12,69,37
11,831,1128983062,248,-3965,-1065,-6,59,37
11,832,1128990692,248,-3965,-1065,-2,46,34
11,833,1128998291,205,-3970,-1059,-1,8,37
11,834,1129005889,253,-4002,-1091,-3,4,35
11,835,1129013488,319,-3981,-1048,-3,23,38
11,836,1129021057,279,-3950,-1096,-1,62,41
11,837,1129028625,279,-3950,-1096,-1,62,39
11,838,1129036193,226,-3944,-1085,2,46,40
11,839,1129043731,211,-3943,-1024,8,30,42
11,840,1129051269,204,-3994,-1056,4,-9,39
11,841,1129058807,204,-3994,-1056,2,-12,36
11,842,1129066375,322,-4022,-1054,-1,45,37
11,843,1129073913,367,-3984,-1080,-5,86,36
11,844,1129081451,279,-3969,-1106,-10,123,45
11,845,1129088989,279,-3969,-1106,-11,117,43
11,846,1129096527,231,-3994,-991,-2,71,43
11,847,1129104064,210,-3983,-1019,-2,41,42
11,848,1129111633,260,-3964,-1083,-2,2,40
11,849,1129119201,260,-3964,-1083,-1,5,42
11,850,1129126739,345,-3960,-1057,-2,37,44
11,851,1129134307,319,-3958,-1088,-10,42,44
11,852,1129141845,282,-3981,-1044,-12,31,45
11,853,1129149414,282,-3981,-1044,-12,25,44
11,854,1129156982,287,-3990,-1008,-10,7,44
11,855,1129164581,263,-3977,-1069,-15,2,43
11,856,1129172088,284,-3978,-1065,-18,14,44
11,857,1129179718,294,-3962,-1068,-20,35,46
11,858,1129187255,294,-3962,-1068,-23,38,45
11,859,1129194793,228,-3961,-1099,-23,29,43
11,860,1129202362,224,-3948,-1058,-23,20,44
11,861,1129210113,243,-3951,-1077,-21,-10,42
11,862,1129217651,243,-3951,-1077,-22,-28,41
11,863,1129225219,257,-3941,-1096,-21,-26,41
11,864,1129232788,285,-3941,-1115,-24,-15,40
11,865,1129240356,274,-3935,-1109,-32,17,38
11,866,1129247924,274,-3935,-1109,-35,26,36
11,867,1129255493,237,-3958,-1074,-34,33,37
11,868,1129263061,229,-3965,-1071,-34,31,33
11,869,1129270629,242,-3957,-1076,-35,25,36
11,870,1129278198,242,-3957,-1076,-35,21,31
11,871,1120202606,-187,-4083,-946,-87,828,-52
11,872,1120210266,-111,-4063,-815,-90,877,-56
11,873,1120217773,20,-4049,-663,-89,973,-65
11,874,1120225341,20,-4049,-663,-94,1020,-69
11,875,1120232940,22,-4055,-785,-100,1115,-72
11,876,1120240905,557,-3954,-699,-74,1052,-131
11,877,1120248474,-586,-4192,-1154,-160,991,-97
11,878,1120256042,-586,-4192,-1154,-165,921,-88
11,879,1120263580,-741,-4160,-690,-71,936,-46
11,880,1120271118,363,-3920,-543,-88,795,-70
11,881,1120278656,-889,-4196,-624,-136,456,-126
11,882,1120286193,-889,-4196,-624,-105,498,-59
11,883,1120293792,-577,-4152,-351,-43,386,-46
11,884,1120301330,-177,-4007,-298,-69,209,-92
11,885,1120308959,-555,-4116,-398,-70,-88,-119
11,886,1120316528,-555,-4116,-398,-31,-145,-104
11,887,1120324096,-545,-4153,-741,-17,-295,-88
11,888,1120331726,-49,-4028,-641,-23,-480,-104
11,889,1120339294,113,-4018,-590,-10,-534,-100
11,890,1120346954,96,-4061,-865,15,-647,-70
11,891,1120354522,96,-4061,-865,18,-725,-65
11,892,1120362060,297,-4012,-928,40,-876,-54
11,893,1120369628,426,-4012,-1043,53,-951,-51
11,894,1120377197,385,-4016,-1077,71,-1046,-30
11,895,1120384765,385,-4016,-1077,77,-1072,-21
11,896,1120392303,377,-4013,-1033,89,-1075,-10
11,897,1120399871,504,-3938,-1020,86,-986,-8
11,898,1120407440,361,-4062,-1198,74,-705,29
11,899,1120414978,361,-4062,-1198,64,-700,8
11,900,1120422546,229,-4067,-1011,42,-608,-6
11,901,1120430114,186,-4022,-893,32,-452,12
11,902,1120437652,485,-4018,-1134,18,-77,2
11,903,1120445190,485,-4018,-1134,5,29,-13
11,904,1120452758,189,-4032,-846,-18,121,-33
11,905,1120460296,54,-4048,-759,-10,171,-30
11,906,1120467864,-35,-4076,-758,-16,228,-15
11,907,1120475433,-35,-4076,-758,-22,229,-22
11,908,1120483062,108,-4020,-668,-21,230,-24
11,909,1120490631,92,-4024,-610,-25,204,-11
11,910,1120498229,74,-4048,-695,-23,165,-9
11,911,1120505767,33,-4028,-586,-14,22,-3
11,912,1120513366,33,-4028,-586,-11,-38,5
11,913,1120520935,156,-4019,-654,0,-77,19
11,914,1120528503,213,-4026,-777,2,-106,22
11,915,1120536102,90,-4052,-802,3,-155,27
11,916,1120543670,90,-4052,-802,6,-164,29
11,917,1120551239,71,-4052,-820,5,-180,33
11,918,1120558807,87,-4059,-744,2,-172,35
11,919,1120566345,182,-4026,-826,-12,-19,41
11,920,1120573944,182,-4026,-826,-14,63,37
11,921,1120581512,227,-4018,-719,-28,104,25
11,922,1120589050,63,-4033,-669,-34,125,21
11,923,1120596588,24,-4048,-780,-28,143,32
11,924,1120604125,24,-4048,-780,-30,129,35
11,925,1120611663,-40,-4058,-759,-37,85,32
11,926,1120619201,-5,-4038,-669,-29,70,33
11,927,1120626770,24,-4050,-669,-34,58,38
11,928,1120634338,24,-4050,-669,-24,53,36
11,929,1120641876,-33,-4061,-901,-20,32,36
11,930,1120649414,-166,-4096,-1080,-22,17,36
11,931,1120656982,-31,-4062,-839,-14,30,32
11,932,1120664550,35,-4058,-759,-10,60,22
11,933,1120672180,35,-4058,-759,-11,83,18
11,934,1120679748,-20,-4070,-949,-14,111,14
11,935,1120687347,-149,-4068,-899,-12,110,14
11,936,1120694915,-112,-4046,-743,-7,74,11
11,937,1120702514,-112,-4046,-743,-4,51,11
11,938,1120710052,-103,-4054,-706,-7,13,15
11,939,1120717651,-37,-4050,-693,-5,12,15
11,940,1120725189,10,-4049,-749,-5,14,13
11,941,1120732818,10,-4049,-749,-11,19,9
11,942,1120740417,13,-4054,-779,-11,41,13
11,943,1120748016,0,-4045,-716,-11,44,11
11,944,1120755584,-73,-4049,-738,-16,36,6
11,945,1120763153,-73,-4049,-738,-15,23,4
11,946,1120770690,-161,-4062,-775,-12,2,2
11,947,1120778259,-175,-4064,-777,-13,-1,-1
11,948,1120785797,-190,-4056,-712,-14,0,-11
11,949,1120793334,-190,-4056,-712,-22,-6,-19
11,950,1120800903,-244,-4048,-458,-27,-25,-19
11,951,1120808441,-69,-4035,-670,-18,-38,-26
11,952,1120815979,-133,-4085,-1076,-31,-51,-28
11,953,1120823547,-109,-4066,-842,-19,-64,-27
11,954,1120831085,-109,-4066,-842,-15,-56,-27
11,955,1120838623,-130,-4062,-584,-20,-81,-39
11,956,1120846160,-214,-4101,-768,-7,-109,-40
11,957,1120853729,-246,-4082,-819,-6,-197,-36
11,958,1120861297,-246,-4082,-819,0,-231,-31
11,959,1120868835,71,-4040,-864,5,-218,-34
11,960,1120876403,156,-4037,-1044,4,-187,-37
11,961,1120883941,125,-4051,-1080,1,-99,-41
11,962,1120891571,125,-4051,-1080,6,-77,-38
11,963,1120899108,81,-4055,-950,12,-83,-41
11,964,1120906677,-4,-4061,-948,20,-95,-35
11,965,1120914245,-13,-4062,-946,26,-114,-33
11,966,1120921844,-13,-4062,-946,25,-107,-34
11,967,1120929473,102,-4036,-844,26,-84,-33
11,968,1120937072,68,-4038,-766,26,-81,-34
11,969,1120944610,41,-4046,-784,26,-84,-32
11,970,1120952239,41,-4046,-784,29,-91,-26
11,971,1120959838,11,-4047,-817,35,-119,-25
11,972,1120967376,11,-4065,-967,42,-108,-23
11,973,1120975067,65,-4066,-997,42,-97,-25
11,974,1120982574,67,-4050,-840,37,-62,-30
11,975,1120990142,67,-4050,-840,38,-40,-34
11,976,1120997711,57,-4045,-710,38,-28,-32
11,977,1121005340,61,-4040,-675,36,-36,-31
11,978,1121012878,69,-4032,-625,30,-64,-26
11,979,1121020416,69,-4032,-625,31,-72,-19
11,980,1121027954,73,-4031,-590,27,-67,-19
11,981,1121035583,105,-4029,-615,21,-58,-19
11,982,1121043151,130,-4032,-638,15,-44,-17
11,983,1121050720,130,-4032,-638,12,-37,-13
11,984,1121058258,157,-4024,-629,2,-24,-14
11,985,1121065795,179,-4022,-604,1,-20,-8
11,986,1121073333,169,-4018,-587,-7,-7,-4
11,987,1121080902,169,-4018,-587,-10,6,-2
11,988,1121088439,134,-4034,-642,-10,8,3
11,989,1121095977,78,-4047,-736,-19,8,2
11,990,1121103515,46,-4045,-690,-21,10,5
11,991,1121111083,46,-4045,-690,-21,14,8
11,992,1121118652,68,-4041,-622,-27,11,8
11,993,1121126220,58,-4035,-607,-33,12,9
11,994,1121133789,34,-4039,-588,-38,12,9
11,995,1121141387,-57,-4042,-544,-50,19,5
11,996,1121148956,-57,-4042,-544,-57,34,0
11,997,1121156555,-56,-4034,-567,-75,93,-7
11,998,1121164123,107,-4036,-689,-76,153,-7
11,999,1121171844,25,-4049,-812,-84,275,-4
