event_id,seq,ts_ms,ax,ay,az,gx,gy,gz
1,0,19545,-877,3847,852,1,8,-44
1,1,19558,-876,3826,838,1,-3,9
1,2,19570,-859,3865,843,4,-14,30
1,3,19583,-852,3894,858,-5,-5,23
1,4,19596,-850,3883,861,-18,11,-14
1,5,19608,-864,3828,851,-14,16,-12
1,6,19621,-881,3800,844,-7,12,-3
1,7,19633,-891,3821,859,-1,12,-4
1,8,19646,-901,3842,849,6,7,-16
1,9,19658,-907,3866,852,8,-6,-16
1,10,19671,-835,3875,865,-3,-7,8
1,11,19684,-829,3852,872,-13,13,10
1,12,19696,-871,3844,876,-14,32,-8
1,13,19709,-912,3838,855,-9,17,-47
1,14,19721,-858,3751,849,2,-7,-33
1,15,19734,-821,3748,866,7,4,4
1,16,19747,-846,3793,866,8,41,19
1,17,19759,-910,3839,849,17,38,-28
1,18,19772,-957,3865,863,20,25,-55
1,19,19784,-946,3924,829,-5,-4,-40
1,20,19797,-864,3854,843,9,-12,-109
1,21,19810,-783,3749,892,19,47,-50
1,22,19822,-938,3869,816,28,56,2
1,23,19835,-972,3889,817,18,3,21
1,24,19847,-896,3860,851,18,-14,31
1,25,19860,-826,3873,872,10,26,25
1,26,19872,-922,3873,837,7,57,-55
1,27,19885,-948,3793,830,18,46,-71
1,28,19898,-956,3778,830,18,34,29
1,29,19910,-991,3802,826,22,12,68
1,30,19923,-960,3883,849,18,-11,35
1,31,19936,-918,3868,873,21,3,-8
1,32,19948,-914,3846,854,22,16,-14
1,33,19961,-942,3850,845,19,6,23
1,34,19973,-932,3928,854,10,-13,38
1,35,19986,-899,3942,856,1,-6,-1
1,36,19998,-881,3905,865,-9,31,-44
1,37,20011,-904,3858,859,-6,41,-50
1,38,20024,-981,3796,813,-2,3,-15
1,39,20036,-948,3793,824,12,-21,0
1,40,20049,-904,3822,831,9,-27,32
1,41,20062,-854,3896,829,3,-16,-3
1,42,20074,-835,3887,841,-1,-1,-25
1,43,20087,-846,3846,833,0,29,-35
1,44,20099,-879,3799,831,1,36,-13
1,45,20112,-970,3798,818,8,4,31
1,46,20125,-954,3803,821,18,-18,28
1,47,20137,-921,3831,823,27,-44,36
1,48,20150,-871,3868,831,23,-45,31
1,49,20162,-788,3910,867,10,-4,9
1,50,20175,-803,3905,870,1,43,-29
1,51,20188,-900,3880,834,-3,63,-74
1,52,20200,-977,3820,789,6,22,-56
1,53,20213,-945,3787,809,16,-30,56
1,54,20225,-905,3885,828,16,-40,76
1,55,20238,-862,3955,849,2,-10,2
1,56,20251,-849,3936,856,-6,32,-48
1,57,20263,-928,3836,802,-14,45,-50
1,58,20276,-972,3801,797,-13,32,-10
1,59,20288,-983,3805,812,-2,-5,25
1,60,20301,-969,3853,816,-1,-22,10
1,61,20314,-877,3843,858,9,-9,-21
1,62,20326,-888,3864,854,4,11,-4
1,63,20339,-918,3905,844,-9,16,-31
1,64,20352,-934,3898,837,-19,17,-46
1,65,20364,-956,3800,831,-8,27,-59
1,66,20377,-979,3774,810,-2,11,-32
1,67,20389,-984,3791,820,16,-28,37
1,68,20402,-949,3876,829,2,-56,57
1,69,20414,-827,3918,903,-12,-39,-16
1,70,20427,-847,3873,856,-39,36,0
1,71,20440,-897,3765,796,-2,-2,-56
1,72,20452,-901,3725,822,-9,14,56
1,73,20465,-977,3847,813,16,-1,51
1,74,20478,-971,3871,811,22,-38,21
1,75,20490,-925,3856,842,16,-57,43
1,76,20503,-876,3885,844,13,-38,35
1,77,20515,-872,3907,846,-1,-4,-1
1,78,20528,-893,3874,832,1,3,-19
1,79,20541,-914,3872,827,-7,-5,18
1,80,20553,-916,3881,819,-10,-15,13
1,81,20566,-889,3849,820,-13,-15,6
1,82,20579,-867,3839,833,-6,-14,3
1,83,20591,-843,3842,826,-8,-1,-2
1,84,20604,-852,3846,823,-9,10,-12
1,85,20616,-875,3821,818,2,1,-28
1,86,20629,-868,3823,811,2,2,-12
1,87,20641,-880,3829,809,3,-6,5
1,88,20654,-876,3839,809,10,-15,-6
1,89,20667,-843,3833,839,8,12,0
1,90,20679,-885,3849,827,11,29,8
1,91,20692,-948,3896,825,3,2,20
1,92,20705,-962,3933,818,-9,-21,2
1,93,20717,-857,3866,861,-11,-4,-15
1,94,20730,-865,3864,862,-13,31,-16
1,95,20742,-924,3864,839,-14,44,-20
1,96,20759,-991,3858,820,-14,3,-4
1,97,20771,-957,3853,830,-15,-31,13
1,98,20784,-898,3837,854,-13,-19,25
1,99,20796,-907,3883,843,-16,13,-2
1,100,20809,-938,3869,820,-15,-2,-30
1,101,20822,-911,3833,830,-16,-27,-16
1,102,20834,-860,3801,849,-13,-16,27
1,103,20847,-861,3834,855,-8,4,11
1,104,20859,-886,3826,852,-4,13,-20
1,105,20872,-894,3815,852,-9,18,-19
1,106,20884,-914,3811,839,-5,10,-24
1,107,20897,-896,3773,834,6,-5,-30
1,108,20910,-874,3770,847,16,5,-26
1,109,20922,-889,3797,848,22,22,-28
1,110,20935,-925,3830,844,21,18,-33
1,111,20948,-941,3837,844,31,10,-32
1,112,20960,-939,3872,835,29,6,-35
1,113,20973,-924,3911,835,20,6,-63
1,114,20985,-914,3905,842,19,15,-84
1,115,20998,-927,3823,814,13,31,-61
1,116,21010,-936,3792,820,-4,44,20
1,117,21023,-1003,3810,780,31,-29,4
1,118,21036,-983,3857,780,24,-75,69
1,119,21048,-796,3947,849,-1,-63,75
1,120,21061,-762,3961,866,-7,-5,-4
1,121,21074,-806,3911,841,-13,59,-69
1,122,21086,-890,3850,807,-15,49,-42
1,123,21099,-966,3815,790,-9,-12,43
1,124,21111,-907,3845,809,-6,-38,54
1,125,21124,-848,3879,842,-7,-6,8
1,126,21137,-844,3875,852,-5,29,-29
1,127,21149,-956,3829,814,-9,41,8
1,128,21162,-992,3836,800,-11,2,40
1,129,21174,-960,3847,820,-9,-23,25
1,130,21187,-911,3845,845,-10,-8,-3
1,131,21200,-911,3816,849,3,26,-35
1,132,21212,-947,3805,841,2,23,-11
1,133,21225,-969,3821,838,5,-7,9
1,134,21237,-954,3838,834,2,-20,8
1,135,21250,-898,3838,853,6,-11,4
1,136,21263,-905,3861,847,1,-4,13
1,137,21275,-907,3868,840,-6,-9,6
1,138,21288,-892,3832,838,-1,-5,-13
1,139,21300,-878,3807,834,9,17,-8
1,140,21313,-922,3825,806,20,15,-7
1,141,21326,-940,3862,800,11,-21,19
1,142,21338,-910,3856,822,7,-27,24
1,143,21351,-830,3850,836,5,-4,19
1,144,21363,-842,3841,828,8,27,-6
1,145,21376,-904,3832,826,11,50,-15
1,146,21389,-977,3831,795,20,23,-14
1,147,21401,-955,3833,804,21,-27,31
1,148,21414,-897,3855,837,19,-35,60
1,149,21426,-876,3912,850,14,-10,32
1,150,21439,-903,3916,832,4,10,-21
1,151,21452,-928,3904,825,-2,10,-17
1,152,21464,-925,3891,800,-10,-16,-17
1,153,21477,-880,3868,820,-11,-13,-9
1,154,21490,-867,3830,828,-6,9,15
1,155,21502,-900,3847,811,-8,5,17
1,156,21515,-903,3847,821,-10,-11,22
1,157,21527,-872,3835,825,-13,2,8
1,158,21540,-890,3778,833,-3,27,-1
1,159,21552,-933,3763,815,7,20,20
1,160,21565,-970,3773,810,27,-21,51
1,161,21578,-971,3808,815,34,-48,77
1,162,21590,-874,3932,849,26,-61,70
1,163,21603,-822,3941,860,16,-32,41
1,164,21616,-828,3905,860,1,25,2
1,165,21628,-893,3862,828,7,29,-6
1,166,21641,-962,3837,789,10,-23,28
1,167,21653,-917,3885,797,8,-52,47
1,168,21666,-852,3909,795,11,-58,-1
1,169,21678,-820,3841,794,25,-44,14
1,170,21691,-1039,3919,639,38,-164,-32
1,171,21704,-1138,3754,711,109,-162,-218
1,172,21716,-1224,3682,671,204,-379,-309
1,173,21729,-1156,3684,776,178,-449,-156
1,174,21742,-887,3843,863,184,-537,52
1,175,21754,-565,3935,1012,43,-352,240
1,176,21768,-600,4004,981,84,-91,-142
1,177,21781,-875,3866,846,29,-15,-43
1,178,21794,-939,3922,793,-38,-82,134
1,179,21806,-865,3846,824,-12,-103,79
1,180,21819,-792,3837,850,-36,-50,143
1,181,21831,-927,3784,790,-6,8,62
1,182,21844,-1010,3732,763,-1,-21,40
1,183,21857,-990,3617,752,53,-112,162
1,184,21869,-940,3711,756,58,-173,239
1,185,21882,-690,3847,834,89,-140,88
1,186,21894,-656,3877,841,77,-67,115
1,187,21907,-752,3936,795,32,-21,83
1,188,21919,-766,3869,755,80,-51,-25
1,189,21932,-566,3840,635,-10,-16,196
1,190,21945,-35,3742,133,-6,-275,237
1,191,21957,1431,3419,-453,113,-1183,924
1,192,21970,3967,3361,13,240,-641,1966
1,193,21982,7264,6366,473,-280,1634,4334
1,194,21995,8051,7868,-427,-1038,3142,5230
1,195,22008,10644,9596,100,-1402,7271,386
1,196,22024,6406,7140,-3457,-2228,11753,-1080
1,197,22037,2626,5158,-4841,-2635,13080,-1946
1,198,22049,64,2952,-4864,-3353,14264,-795
1,199,22062,-4220,436,-4806,-2773,14096,275
1,200,22075,-14239,331,-5908,-704,8485,382
1,201,22087,-14208,1754,-5522,510,2822,-1130
1,202,22100,-8563,3337,-2848,-640,-3064,2137
1,203,22113,507,3044,1067,1322,-1066,-2255
1,204,22130,-973,5066,1052,-198,2242,-12
1,205,22142,-3533,4560,460,-578,1857,825
1,206,22155,-2847,4557,651,-336,969,445
1,207,22167,-2010,4621,842,-504,1033,206
1,208,22180,-2207,4023,815,-525,1228,-170
1,209,22192,-2907,3571,412,-492,977,-184
1,210,22205,-2910,2766,288,-287,567,-355
1,211,22218,-2643,2688,445,-44,277,-469
1,212,22230,-1990,2916,533,85,34,-399
1,213,22243,-1703,2977,822,117,152,-323
1,214,22256,-1786,3206,713,62,16,-263
1,215,22268,-1678,2985,751,176,-111,-353
1,216,22281,-1533,3110,875,156,-34,-69
1,217,22293,-1523,3337,835,153,-89,-77
1,218,22306,-1223,3405,918,173,-92,-12
1,219,22319,-1228,3625,922,137,-42,36
1,220,22331,-1350,3673,864,128,-32,-37
1,221,22344,-1429,3705,799,117,-104,-32
1,222,22357,-1091,3918,906,72,-51,-84
1,223,22369,-1231,3823,850,60,4,-111
1,224,22382,-1404,3797,781,53,-54,-35
1,225,22394,-1409,3832,766,85,-133,-85
1,226,22407,-1314,3846,845,50,-72,-63
1,227,22419,-1428,3786,792,34,-100,-1
1,228,22432,-1369,3774,831,94,-99,-82
1,229,22445,-1317,3917,848,87,-95,-113
1,230,22457,-1171,3953,909,52,-32,-141
1,231,22470,-1283,3947,858,18,-8,-147
1,232,22483,-1387,3933,812,-21,-35,-105
1,233,22495,-1335,3758,821,-43,-41,-100
1,234,22508,-1394,3662,806,-47,-43,-71
1,235,22520,-1414,3646,784,-38,-80,-71
1,236,22533,-1336,3577,799,-19,-81,-95
1,237,22545,-1285,3479,842,26,-73,-42
1,238,22558,-1351,3628,846,46,-62,-29
1,239,22571,-1373,3706,825,26,-109,-10
1,240,22583,-1239,3721,874,22,-86,-1
1,241,22596,-1259,3794,899,-32,-8,-2
1,242,22610,-1353,3686,849,-64,-3,16
1,243,22622,-1263,3518,879,29,14,-83
1,244,22635,-1337,3671,844,-37,15,35
1,245,22647,-1379,3569,838,6,27,-6
1,246,22660,-1402,3669,826,8,13,4
1,247,22672,-1352,3686,851,2,34,0
1,248,22685,-1346,3683,867,12,61,-23
1,249,22698,-1465,3715,834,-2,41,-14
1,250,22710,-1439,3699,839,-4,37,-14
1,251,22723,-1439,3668,825,1,31,1
1,252,22735,-1457,3686,845,1,41,-6
1,253,22748,-1526,3652,834,24,53,-57
1,254,22760,-1486,3661,820,30,28,-81
1,255,22773,-1430,3668,844,35,45,-80
1,256,22786,-1467,3676,838,31,43,-67
1,257,22798,-1522,3706,809,24,-9,-63
1,258,22811,-1443,3654,831,21,-18,-65
1,259,22823,-1409,3634,841,44,-20,-37
1,260,22836,-1400,3697,831,19,-22,-8
1,261,22849,-1388,3717,831,17,-24,-6
1,262,22861,-1369,3703,844,9,-17,-5
1,263,22874,-1384,3692,851,8,-16,6
1,264,22886,-1388,3721,847,1,-17,-6
1,265,22899,-1385,3650,828,10,-13,-8
1,266,22912,-1392,3680,824,17,-7,-31
1,267,22924,-1415,3685,814,11,-4,-51
1,268,22937,-1446,3658,809,12,-17,-45
1,269,22949,-1329,3701,824,21,-23,-11
1,270,22962,-1355,3747,854,17,31,-24
1,271,22975,-1500,3771,801,-1,3,-26
1,272,22987,-1515,3735,785,-1,-17,-27
1,273,23000,-1383,3695,833,20,5,-48
1,274,23013,-1451,3773,810,18,11,-53
1,275,23025,-1458,3765,820,-1,11,-40
1,276,23038,-1475,3741,812,-18,8,-30
1,277,23050,-1550,3614,785,1,-21,-31
1,278,23063,-1507,3627,792,17,-64,1
1,279,23075,-1379,3724,838,15,-43,-24
1,280,23088,-1324,3747,872,6,0,-29
1,281,23101,-1459,3707,810,-20,-7,-17
1,282,23113,-1433,3637,818,-15,-10,-8
1,283,23126,-1447,3622,805,-13,-2,-12
1,284,23139,-1469,3556,792,8,-10,-15
1,285,23151,-1419,3615,824,22,-26,28
1,286,23164,-1383,3633,837,34,-12,0
1,287,23176,-1407,3647,826,32,-3,9
1,288,23189,-1414,3675,817,33,-3,14
1,289,23201,-1450,3692,811,21,1,17
1,290,23214,-1478,3668,797,29,1,20
1,291,23227,-1479,3694,785,30,-21,17
1,292,23239,-1366,3773,840,30,1,16
1,293,23252,-1383,3784,820,4,17,17
1,294,23264,-1440,3704,819,11,37,26
1,295,23277,-1486,3728,780,-3,6,36
1,296,23293,-1427,3700,824,10,11,35
1,297,23306,-1436,3724,810,15,3,6
1,298,23318,-1436,3725,800,5,-1,5
1,299,23331,-1407,3728,828,12,20,-20
1,300,23344,-1476,3747,795,0,21,-27
1,301,23356,-1480,3708,783,2,-10,-40
1,302,23369,-1430,3659,804,6,-3,-27
1,303,23381,-1463,3716,802,26,-9,-13
1,304,23394,-1445,3777,802,2,-28,-5
1,305,23407,-1402,3706,825,1,-6,-12
1,306,23419,-1453,3680,801,-4,-7,-16
1,307,23432,-1446,3677,805,4,-26,-12
1,308,23445,-1440,3699,824,5,-11,-15
1,309,23458,-1488,3719,799,-1,-29,-11
1,310,23470,-1467,3729,800,-5,-35,-23
1,311,23483,-1392,3664,819,-12,-22,-14
1,312,23496,-1421,3634,809,-11,-20,22
1,313,23508,-1447,3613,803,4,-29,9
1,314,23521,-1414,3634,797,9,-48,9
1,315,23533,-1378,3640,816,20,-33,9
1,316,23546,-1404,3700,816,9,-22,10
1,317,23559,-1430,3682,808,13,-20,1
1,318,23571,-1428,3654,806,30,-41,22
1,319,23584,-1386,3734,820,32,-30,24
1,320,23596,-1398,3740,799,3,-11,0
1,321,23609,-1443,3611,787,20,5,20
1,322,23622,-1471,3658,761,40,-34,30
1,323,23634,-1407,3695,802,50,-40,5
1,324,23647,-1413,3717,809,47,-30,10
1,325,23659,-1449,3721,799,42,-44,25
1,326,23672,-1415,3710,809,51,-39,20
1,327,23684,-1433,3722,796,48,-52,27
1,328,23697,-1417,3728,816,49,-48,30
1,329,23710,-1412,3758,809,34,-54,48
1,330,23722,-1316,3784,837,43,-31,35
1,331,23735,-1360,3812,831,31,-3,12
1,332,23747,-1409,3802,786,-2,-22,28
1,333,23760,-1341,3726,798,-2,-1,20
1,334,23773,-1410,3628,773,12,-3,44
1,335,23785,-1378,3735,796,16,-12,53
1,336,23798,-1341,3726,795,-3,4,32
1,337,23810,-1358,3648,769,8,-1,46
1,338,23823,-1359,3673,796,21,16,29
1,339,23835,-1417,3704,781,26,11,19
1,340,23848,-1448,3727,781,16,-9,8
1,341,23861,-1416,3683,775,22,-17,18
1,342,23873,-1454,3733,791,40,-2,11
1,343,23886,-1512,3727,767,31,-20,5
1,344,23898,-1491,3705,769,47,-53,14
1,345,23911,-1456,3764,790,46,-38,-17
1,346,23923,-1593,3746,746,39,-69,-56
1,347,23936,-1528,3624,725,49,-119,-62
1,348,23949,-1379,3567,763,103,-111,-17
1,349,23961,-1371,3728,808,103,-74,-61
1,350,23974,-1420,3688,720,43,-143,40
1,351,23987,-1162,3634,815,70,-136,55
1,352,23999,-1166,3788,829,50,-32,14
1,353,24012,-1359,3834,776,28,-33,-2
1,354,24024,-1427,3649,777,9,-28,4
1,355,24037,-1434,3614,738,46,-69,-15
1,356,24049,-1333,3728,777,35,-66,9
1,357,24062,-1231,3847,825,2,-15,-14
1,358,24075,-1437,3718,753,-24,5,11
1,359,24087,-1436,3664,717,-30,-43,59
1,360,24100,-1355,3641,752,-30,-48,120
1,361,24113,-1338,3653,772,-23,-38,120
1,362,24125,-1415,3770,769,-22,-67,98
1,363,24138,-1344,3721,780,-20,-95,99
1,364,24150,-1222,3685,824,24,-82,58
1,365,24163,-1127,3812,852,28,-19,18
1,366,24175,-1272,3854,830,-23,54,-25
1,367,24188,-1392,3723,758,-13,23,-16
1,368,24201,-1333,3698,780,-1,5,31
1,369,24213,-1272,3767,816,-3,25,10
1,370,24226,-1355,3765,760,-22,11,-1
1,371,24239,-1300,3690,783,-19,17,-12
1,372,24251,-1351,3677,774,5,38,-34
1,373,24264,-1451,3715,739,7,1,-22
1,374,24276,-1398,3772,786,12,-9,-20
1,375,24289,-1363,3785,751,-2,-39,-11
1,376,24301,-1207,3732,812,6,4,39
1,377,24314,-1204,3839,863,-8,61,-1
1,378,24327,-1462,3763,751,-48,-17,24
1,379,24339,-1288,3659,791,-34,-22,30
1,380,24352,-1249,3687,802,-16,14,32
1,381,24364,-1313,3778,803,-32,15,35
1,382,24377,-1286,3694,792,-56,-12,38
1,383,24390,-1176,3609,809,-38,9,43
1,384,24402,-1207,3603,816,-3,75,27
1,385,24415,-1381,3654,776,-4,57,4
1,386,24427,-1350,3618,766,8,0,23
1,387,24440,-1236,3663,812,16,21,29
1,388,24453,-1271,3718,808,0,66,19
1,389,24465,-1391,3693,777,-6,60,13
1,390,24478,-1475,3557,736,17,23,30
1,391,24491,-1442,3613,756,42,4,27
1,392,24503,-1389,3715,784,56,-9,34
1,393,24516,-1332,3847,810,37,12,21
1,394,24528,-1432,3822,775,15,16,18
1,395,24541,-1434,3794,749,12,-20,19
1,396,24557,-1312,3867,809,12,-1,-5
1,397,24570,-1342,3827,775,-3,-18,6
1,398,24582,-1288,3818,802,5,-17,10
1,399,24595,-1208,3902,804,-22,-12,-4
1,400,24608,-1116,3782,837,-29,56,-4
1,401,24620,-1289,3796,765,-36,57,-5
1,402,24633,-1318,3741,746,-42,16,11
1,403,24645,-1216,3671,776,-27,30,4
1,404,24658,-1212,3751,802,-10,50,23
1,405,24670,-1233,3787,802,-39,63,22
1,406,24683,-1275,3683,798,-32,63,32
1,407,24696,-1316,3645,781,-36,49,97
1,408,24708,-1333,3696,788,-31,56,112
1,409,24721,-1365,3726,776,-39,30,132
1,410,24733,-1297,3751,798,-59,23,194
1,411,24747,-1261,3775,821,-77,46,217
1,412,24760,-1370,3678,778,-82,35,258
1,413,24772,-1363,3687,792,-69,40,259
1,414,24785,-1416,3741,778,-47,49,134
1,415,24797,-1471,3688,748,-15,34,59
1,416,24810,-1419,3675,759,41,8,-20
1,417,24823,-1389,3764,778,61,-19,-36
1,418,24836,-1349,3859,790,38,-32,-7
1,419,24848,-1293,3913,789,0,-37,14
1,420,24861,-1234,3776,789,-11,-19,33
1,421,24874,-1262,3777,774,-20,-23,29
1,422,24886,-1238,3745,790,-9,-18,27
1,423,24899,-1216,3757,779,-1,-26,20
1,424,24911,-1144,3788,806,8,-21,5
1,425,24924,-1103,3796,822,1,21,-10
1,426,24937,-1186,3743,808,9,24,14
1,427,24949,-1298,3763,769,-11,-11,13
1,428,24962,-1260,3658,769,-3,-18,4
1,429,24974,-1224,3616,776,40,-21,15
1,430,24987,-1223,3723,818,38,-4,9
1,431,25000,-1332,3817,794,19,-34,16
1,432,25012,-1276,3769,804,10,-33,19
1,433,25025,-1299,3709,784,26,-38,15
1,434,25038,-1315,3710,770,31,-44,28
1,435,25050,-1285,3765,794,22,-47,26
1,436,25063,-1253,3786,797,26,-52,15
1,437,25075,-1230,3787,812,15,-24,-20
1,438,25088,-1317,3718,766,22,-50,6
1,439,25100,-1322,3728,759,38,-84,22
1,440,25113,-1300,3732,774,32,-89,12
1,441,25126,-1353,3695,757,41,-102,-9
1,442,25138,-1377,3642,725,52,-139,-13
1,443,25151,-1342,3613,793,127,-110,-35
1,444,25164,-1563,3763,742,92,-73,-44
1,445,25176,-1761,3602,625,141,-263,-65
1,446,25189,-1659,3629,676,159,-319,-88
1,447,25201,-1779,3799,703,159,-333,-143
1,448,25214,-1936,3717,646,122,-413,-138
1,449,25226,-2056,3519,600,160,-576,-185
1,450,25239,-2153,3397,552,203,-665,-193
1,451,25252,-2852,3141,371,359,-827,-342
1,452,25264,-3789,2798,189,473,-861,-637
1,453,25277,-5473,2094,-383,838,-1384,-699
1,454,25289,-6617,1340,-1232,832,-2388,374
1,455,25302,-7379,395,-3283,1600,-4753,732
1,456,25315,-6316,1037,-3937,1766,-6299,1398
1,457,25327,-5216,1221,-4359,2116,-7230,945
1,458,25340,-4596,1224,-5177,3113,-7596,-1022
1,459,25352,-5048,1359,-6998,4954,-7848,-2865
1,460,25365,-5595,3945,-9106,5156,-9018,-1853
1,461,25378,-3921,5797,-9321,5093,-11476,-1658
1,462,25390,-347,6703,-8271,4854,-11961,-1679
1,463,25403,5123,7274,-4198,4840,-10937,-1880
1,464,25416,7254,9193,-3588,4781,-9957,-2160
1,465,25428,8946,10382,-1820,2983,-6885,-1746
1,466,25441,9968,8809,254,2377,-3819,-1806
1,467,25453,4209,6690,303,1853,-80,-1342
1,468,25466,393,6969,-528,1225,579,-455
1,469,25478,-1756,6560,-772,929,127,-983
1,470,25491,-2953,5793,-1155,986,-868,-1647
1,471,25504,-1811,5085,-851,307,-1939,-454
1,472,25516,-476,5255,-490,-80,-1981,-264
1,473,25529,450,4610,-201,-133,-1189,-1250
1,474,25541,560,3569,-240,-115,-717,-1066
1,475,25554,-281,2872,-560,-55,-593,-146
1,476,25567,-152,3063,-479,-11,-396,213
1,477,25579,-47,3174,-372,122,153,160
1,478,25592,-394,3193,-273,310,440,19
1,479,25604,-1509,3747,-267,214,503,600
1,480,25617,-1959,4079,-218,220,498,464
1,481,25630,-2298,4264,-212,59,340,243
1,482,25642,-2462,4172,-183,-55,256,185
1,483,25655,-2462,3907,-259,-193,-14,-42
1,484,25668,-2202,3564,-269,-224,-101,-56
1,485,25680,-1955,3294,-273,-161,-105,-78
1,486,25693,-1789,3144,-262,-65,-77,-73
1,487,25705,-1495,3328,-148,-13,-19,142
1,488,25718,-1535,3480,-99,70,128,56
1,489,25730,-1742,3740,-109,37,191,141
1,490,25743,-1913,3960,-107,-34,200,141
1,491,25756,-2192,3919,-144,-75,234,-80
1,492,25768,-2387,3858,-335,-160,37,-130
1,493,25781,-2126,3450,-280,-168,-103,-75
1,494,25793,-1843,3184,-216,-88,-69,-74
1,495,25806,-1747,3312,-283,-15,-106,10
1,496,25822,-1505,3444,-164,-53,-33,201
1,497,25835,-1503,3499,-144,104,190,-94
1,498,25847,-1754,3660,-176,39,223,154
1,499,25860,-1865,3913,-133,-78,290,225
1,500,25873,-2086,3975,-229,-69,244,-81
1,501,25885,-2299,3568,-401,-102,-34,-77
1,502,25898,-1920,3469,-293,-140,-167,133
1,503,25910,-1595,3454,-196,-69,-27,-44
1,504,25923,-1546,3413,-257,-33,48,-136
1,505,25936,-1657,3216,-286,53,59,10
1,506,25948,-1600,3459,-255,59,19,176
1,507,25961,-1432,3649,-154,59,149,112
1,508,25973,-1392,3731,-99,56,302,-29
1,509,25986,-1672,3576,-255,27,308,-89
1,510,25999,-1617,3477,-261,27,288,51
1,511,26011,-1469,3543,-222,35,308,153
1,512,26024,-1294,3627,-177,31,406,136
1,513,26036,-1465,3568,-182,38,629,55
1,514,26049,-1969,3653,-276,43,688,24
1,515,26062,-2502,3763,-388,-11,464,29
1,516,26074,-2653,3766,-382,-94,303,127
1,517,26087,-2377,3749,-368,-150,-22,2
1,518,26099,-1971,3493,-282,-158,-39,-20
1,519,26112,-1780,3378,-299,-77,9,-52
1,520,26125,-1695,3328,-316,-31,39,37
1,521,26137,-1701,3505,-287,33,91,76
1,522,26150,-1803,3600,-260,52,143,57
1,523,26163,-2010,3703,-282,36,128,27
1,524,26175,-2166,3793,-309,6,38,27
1,525,26188,-1986,3791,-271,-49,-53,23
1,526,26200,-1802,3721,-266,-65,-53,-9
1,527,26213,-1690,3615,-279,-53,14,-35
1,528,26225,-1677,3542,-300,-26,43,-24
1,529,26238,-1665,3542,-309,-12,73,3
1,530,26251,-1673,3518,-292,17,102,-11
1,531,26263,-1749,3565,-309,32,121,11
1,532,26276,-1856,3639,-298,28,122,14
1,533,26289,-2143,3807,-343,-8,51,-25
1,534,26301,-2090,3760,-358,-67,-65,-24
1,535,26314,-1870,3567,-308,-68,-98,-30
1,536,26326,-1728,3475,-264,-50,-66,-3
1,537,26339,-1587,3440,-270,-22,-48,18
1,538,26351,-1535,3414,-257,18,-5,54
1,539,26364,-1560,3484,-237,58,87,79
1,540,26377,-1812,3717,-276,48,92,15
1,541,26389,-1810,3677,-280,21,75,-9
1,542,26402,-1874,3587,-257,49,103,-61
1,543,26415,-2032,3646,-328,26,1,6
1,544,26427,-1700,3712,-266,-33,-70,24
1,545,26440,-1530,3585,-241,-19,18,-54
1,546,26452,-1600,3476,-307,14,91,-28
1,547,26465,-1684,3377,-396,49,-11,162
1,548,26478,-1449,3618,-242,33,60,274
1,549,26490,-1529,3665,-263,64,185,155
1,550,26503,-1841,3698,-347,53,193,96
1,551,26515,-2098,3701,-387,30,110,111
1,552,26528,-2217,3774,-402,-14,-48,93
1,553,26541,-2067,3745,-385,-39,-150,65
1,554,26553,-1790,3664,-310,-53,-176,61
1,555,26566,-1539,3615,-245,-37,-94,21
1,556,26578,-1462,3549,-255,-3,21,-19
1,557,26591,-1553,3550,-286,11,74,3
1,558,26604,-1703,3582,-282,47,102,-16
1,559,26616,-1817,3662,-309,31,76,10
1,560,26629,-1904,3727,-290,11,68,-55
1,561,26641,-1992,3721,-320,2,54,-107
1,562,26654,-2004,3686,-386,-42,-81,-79
1,563,26667,-1798,3540,-345,-31,-90,-31
1,564,26679,-1547,3490,-308,24,-7,-32
1,565,26692,-1639,3536,-331,46,22,-26
1,566,26704,-1698,3590,-315,55,24,32
1,567,26717,-1744,3665,-320,50,24,5
1,568,26729,-1831,3616,-319,53,38,-15
1,569,26742,-1984,3685,-348,56,18,-2
1,570,26755,-2043,3797,-359,7,-100,-1
1,571,26767,-1907,3802,-343,-25,-134,-38
1,572,26780,-1600,3640,-282,-31,-78,-69
1,573,26792,-1584,3618,-307,-30,-50,-69
1,574,26805,-1573,3581,-320,-27,-14,-33
1,575,26818,-1559,3509,-330,-5,18,-11
1,576,26830,-1678,3493,-354,35,77,-4
1,577,26843,-1834,3541,-371,57,76,-7
1,578,26855,-1934,3608,-367,52,2,46
1,579,26868,-1942,3687,-353,41,-47,49
1,580,26880,-1807,3787,-305,0,-68,19
1,581,26893,-1691,3723,-288,-15,-55,-36
1,582,26906,-1611,3641,-278,-18,15,-30
1,583,26918,-1656,3606,-317,-4,33,-50
1,584,26931,-1677,3502,-335,19,3,22
1,585,26943,-1618,3565,-309,26,20,78
1,586,26956,-1652,3699,-281,27,105,-1
1,587,26968,-1819,3758,-295,14,106,-82
1,588,26981,-1995,3604,-371,-38,-32,-41
1,589,26994,-1801,3473,-319,-36,-66,-18
1,590,27006,-1669,3413,-316,25,-31,-47
1,591,27019,-1622,3406,-325,60,-32,-6
1,592,27032,-1525,3619,-267,75,13,62
1,593,27044,-1541,3734,-261,68,61,11
1,594,27057,-1595,3712,-272,50,127,-42
1,595,27069,-1704,3645,-305,54,157,-44
1,596,27086,-2086,3780,-404,37,79,-46
1,597,27098,-2076,3761,-417,-21,-49,-19
1,598,27111,-1923,3658,-385,-22,-59,-32
1,599,27123,-1740,3577,-370,-5,-35,-34
1,600,27136,-1719,3567,-390,7,-9,-20
1,601,27149,-1705,3523,-383,34,15,-15
1,602,27161,-1782,3637,-400,43,19,29
1,603,27174,-1809,3692,-398,31,16,26
1,604,27187,-1833,3685,-398,32,17,-3
1,605,27199,-1879,3735,-420,11,-28,18
1,606,27212,-1704,3762,-368,-31,-29,14
1,607,27224,-1678,3702,-357,-35,17,-50
1,608,27237,-1738,3621,-387,-35,26,-19
1,609,27250,-1792,3576,-408,-34,-9,22
1,610,27262,-1725,3525,-350,-7,4,30
1,611,27275,-1758,3577,-342,11,13,17
1,612,27288,-1792,3628,-337,6,-5,17
1,613,27300,-1780,3649,-325,-7,-7,17
1,614,27313,-1741,3605,-320,-12,9,-25
1,615,27325,-1746,3556,-312,-13,5,-3
1,616,27338,-1736,3534,-318,10,16,11
1,617,27350,-1750,3577,-329,16,18,-11
1,618,27363,-1799,3540,-355,22,2,-4
1,619,27376,-1814,3543,-341,38,-1,24
1,620,27388,-1833,3671,-357,30,-34,45
1,621,27401,-1803,3762,-349,8,-39,11
1,622,27414,-1828,3692,-346,0,9,-66
1,623,27426,-1903,3661,-397,-11,-27,-79
1,624,27439,-1865,3595,-397,-20,-90,4
1,625,27451,-1773,3584,-386,-19,-101,36
1,626,27464,-1603,3605,-345,-7,-62,19
1,627,27476,-1560,3563,-346,2,-28,7
1,628,27489,-1594,3513,-339,32,51,18
1,629,27502,-1710,3554,-377,45,48,15
1,630,27514,-1855,3691,-353,38,20,20
1,631,27527,-1894,3765,-349,23,5,10
1,632,27540,-1914,3797,-346,-38,-34,-29
1,633,27552,-1879,3723,-350,-46,-57,-70
1,634,27565,-1724,3542,-343,-27,-49,-34
1,635,27577,-1685,3585,-365,-29,-74,-2
1,636,27590,-1572,3520,-315,2,-9,-43
1,637,27603,-1549,3449,-306,38,48,-45
1,638,27615,-1800,3590,-354,60,66,28
1,639,27628,-1917,3761,-352,40,40,37
1,640,27640,-1938,3830,-361,-19,-25,-52
1,641,27653,-1848,3731,-358,-33,-40,-86
1,642,27666,-1632,3505,-360,-20,-40,-27
1,643,27678,-1591,3561,-345,-8,-16,10
1,644,27691,-1560,3602,-337,0,44,19
1,645,27703,-1578,3617,-334,9,81,-3
1,646,27716,-1677,3562,-328,34,97,88
1,647,27728,-1729,3831,-335,-1,105,204
1,648,27741,-1778,4074,-352,-96,61,-8
1,649,27753,-1661,4028,-295,-159,92,-178
1,650,27766,-1561,3610,-330,-191,197,-41
1,651,27779,-1439,3500,-313,-172,199,132
1,652,27791,-1365,3800,-272,-196,290,181
1,653,27804,-1274,3898,-256,-147,373,16
1,654,27817,-1021,4039,-228,-266,501,232
1,655,27829,-851,4129,-203,-316,622,169
1,656,27842,-819,3849,-300,-295,877,-66
1,657,27854,-809,3581,-366,-362,1017,314
1,658,27867,-993,4091,-549,-270,1137,188
1,659,27879,-881,4285,-533,-440,1033,382
1,660,27892,-589,4201,-337,-612,1209,573
1,661,27905,-442,4249,-249,-731,1538,533
1,662,27917,-1364,3898,-545,-824,1815,208
1,663,27930,-1828,3427,-630,-845,1827,299
1,664,27942,-2199,3216,-805,-703,1471,370
1,665,27955,-2256,3236,-819,-673,1341,343
1,666,27968,-2150,2976,-709,-446,1357,-5
1,667,27980,-2348,3029,-790,-320,1231,64
1,668,27993,-2412,3355,-791,-272,631,390
1,669,28005,-1649,4048,-338,-484,749,701
1,670,28018,-900,4438,-116,-217,941,-562
1,671,28031,-901,4291,-113,-509,1164,-106
1,672,28043,-987,4106,-127,-494,1385,-460
1,673,28056,-1106,3914,-107,-599,1467,-355
1,674,28068,-1283,3064,-45,-511,1608,-217
1,675,28081,-1384,3135,-107,-481,1787,-28
1,676,28094,-1916,3327,-396,-547,1894,234
1,677,28106,-2604,3304,-736,-368,1520,-20
1,678,28119,-2527,3585,-595,-140,887,-146
1,679,28131,-2326,3862,-606,-261,686,140
1,680,28144,-1973,4073,-514,-288,300,206
1,681,28157,-1376,4520,-422,-465,209,153
1,682,28169,153,4555,-112,-721,548,-115
1,683,28182,537,4387,-29,-880,1226,-177
1,684,28194,85,4305,-229,-1273,2061,237
1,685,28207,-811,4142,-730,-1357,1893,366
1,686,28220,-454,3585,-908,-1369,1427,759
1,687,28232,452,3816,-572,-1264,1523,1087
1,688,28245,1139,4330,-457,-1183,1897,764
1,689,28257,2227,5220,38,-1374,3082,990
1,690,28270,1668,6209,-341,-1878,4225,793
1,691,28283,232,5837,-1229,-2224,4960,-1217
1,692,28295,-768,4164,-2041,-2449,5038,-1073
1,693,28308,-2191,1260,-1724,-1816,4782,126
1,694,28321,-3429,2587,-1706,-1090,4295,459
1,695,28333,-4226,4798,-1776,-1309,2505,815
1,696,28350,-1943,4531,-384,-1532,1489,-328
1,697,28363,-585,3165,203,-1463,1616,-380
1,698,28380,-433,2200,276,-1008,2437,407
1,699,28392,-1893,2601,16,-688,2735,1165
1,700,28405,-3169,3541,-209,-693,2155,2824
1,701,28417,-3569,4036,-321,-612,1571,3373
1,702,28430,-2439,5931,-397,-748,-321,1657
1,703,28443,-266,4728,721,-686,-119,655
1,704,28455,345,4155,1152,-655,1485,-223
1,705,28468,-363,3495,683,-732,1841,184
1,706,28480,-2335,2901,-189,-416,1363,158
1,707,28493,-2541,3172,-214,-311,413,775
1,708,28506,-1935,3776,225,-370,-279,1404
1,709,28518,-936,4731,654,-646,-45,1110
1,710,28531,-422,3395,542,-162,365,-745
1,711,28543,-691,2781,494,-193,479,-106
1,712,28556,-983,2889,464,-10,492,295
1,713,28569,-1390,3564,368,98,287,-70
1,714,28581,-1102,3625,416,97,-26,-125
1,715,28594,-726,3555,485,142,-78,-208
1,716,28607,-441,3419,481,265,-61,-176
1,717,28619,-400,3637,562,226,10,112
1,718,28632,-727,4335,496,142,88,-188
1,719,28644,-809,4007,408,148,95,-353
1,720,28657,-925,3812,350,151,76,-260
1,721,28670,-1360,3904,186,239,33,-415
1,722,28682,-1504,3917,92,257,-57,-457
1,723,28695,-1699,3889,52,358,-26,-714
1,724,28707,-2251,3947,-45,467,-24,-1019
1,725,28720,-3829,4129,-295,462,95,-891
1,726,28733,-5179,4411,-816,653,25,-1860
1,727,28745,-6553,4243,-1615,705,-177,-2542
1,728,28758,-7895,3306,-2866,868,-1222,-3180
1,729,28770,-9166,1701,-3975,1491,-2426,-3044
1,730,28783,-10467,1541,-6015,2738,-4949,-2619
1,731,28795,-9801,2685,-7333,3769,-8420,-2673
1,732,28808,-7892,4009,-7476,3809,-9724,-2052
1,733,28821,-3502,6292,-7166,2760,-11993,602
1,734,28833,-660,7375,-6463,1633,-13027,1364
1,735,28846,2832,6995,-4749,679,-13585,2086
1,736,28858,15994,11525,-5469,-11921,-6195,17930
1,737,28871,19415,-18400,6656,4352,9335,-4454
1,738,28883,1723,6644,1465,-8,3356,1821
1,739,28896,1393,4724,751,-60,3249,3999
1,740,28909,585,3351,340,444,3557,5040
1,741,28921,-301,4228,-274,601,2059,5273
1,742,28934,-1626,768,-1268,2251,77,2169
1,743,28946,635,5277,864,-207,-560,3725
1,744,28959,901,6443,1596,-1715,-725,3918
1,745,28972,-2298,3956,735,-577,-1875,-825
1,746,28984,538,3657,1863,-702,-1273,-815
1,747,28997,-214,3624,1644,-766,-875,267
1,748,29009,-162,2237,1816,-72,-356,170
1,749,29022,428,3872,1474,298,25,-773
1,750,29035,624,3796,1502,291,47,-931
1,751,29047,763,3959,1433,159,-179,-896
1,752,29060,621,4083,1349,56,-350,-872
1,753,29072,595,3877,1123,-50,-358,-756
1,754,29085,550,3942,1140,-57,-244,-589
1,755,29098,79,4252,936,332,-198,-1569
1,756,29110,1049,6188,1513,239,789,-3562
1,757,29123,-1427,2824,326,55,265,-978
1,758,29135,-971,3892,447,21,-532,64
1,759,29148,420,4632,1047,8,-298,-528
1,760,29161,640,4560,1087,32,-86,-1090
1,761,29173,515,3789,889,-113,-121,-520
1,762,29186,464,4589,996,-110,-102,-677
1,763,29199,1054,4227,1303,-217,511,-1580
1,764,29211,149,2984,554,170,-152,-1497
1,765,29224,626,3029,997,407,-66,-486
1,766,29236,1095,4191,1413,1234,630,-2486
1,767,29249,193,4394,878,754,1198,-1975
1,768,29261,-1100,4671,400,305,821,-1941
1,769,29274,-1260,4110,610,377,252,-2004
1,770,29287,-1007,4514,678,55,-179,-1435
1,771,29299,-290,4689,1012,251,-207,-2797
1,772,29312,427,4551,1147,131,150,-3283
1,773,29325,434,3603,1209,106,875,-3208
1,774,29337,64,3877,1060,102,1186,-3016
1,775,29350,-355,3959,784,-860,1836,-1028
1,776,29362,-1123,2783,504,-434,1991,-1115
1,777,29375,-2979,3926,-15,-672,1376,279
1,778,29387,-3118,4374,-9,-872,626,239
1,779,29400,-2587,4188,342,-575,-45,-1270
1,780,29413,-1692,3854,485,-902,-150,-779
1,781,29425,-762,2824,878,-887,158,-677
1,782,29438,-390,2518,973,-546,548,-864
1,783,29451,-369,2712,1122,-488,1466,-258
1,784,29463,-821,2902,1079,-399,2013,-196
1,785,29476,-2583,3192,602,-246,2293,-293
1,786,29488,-3475,3398,338,-250,2005,-210
1,787,29501,-4080,3464,236,-281,1088,-170
1,788,29514,-4232,3336,266,-262,397,-81
1,789,29526,-3265,3263,546,-348,-356,494
1,790,29539,-2622,3243,774,-352,-547,632
1,791,29552,-2086,3053,952,-187,-351,532
1,792,29564,-1831,2941,1020,-38,-99,515
1,793,29577,-2315,3413,858,55,39,525
1,794,29589,-2618,3603,756,107,-68,395
1,795,29602,-2748,3784,698,116,-488,227
1,796,29618,-2205,4140,860,-112,-853,406
1,797,29631,-1733,3980,1049,-188,-728,83
1,798,29644,-1418,3662,1127,-144,-489,-98
1,799,29656,-1435,3264,1055,-110,-160,-3
1,800,29669,-1673,3247,980,-26,-17,-4
1,801,29682,-1885,3421,877,30,-59,12
1,802,29695,-1956,3667,862,-44,-167,61
1,803,29708,-1816,3733,947,-66,-281,-100
1,804,29720,-1630,3647,970,-145,-325,-65
1,805,29733,-1461,3467,986,-93,-246,-268
1,806,29745,-1357,3391,1056,-103,-87,-262
1,807,29758,-1603,3373,993,-16,38,-351
1,808,29770,-1726,3527,946,-73,5,-246
1,809,29783,-1780,3450,958,-95,-57,-262
1,810,29796,-1759,3261,969,-51,-84,-225
1,811,29808,-1783,3424,996,-40,-130,-35
1,812,29821,-1768,3654,991,-63,-185,-33
1,813,29833,-1670,3704,1027,-118,-193,-170
1,814,29846,-1524,3578,1068,-123,-125,-214
1,815,29858,-1522,3297,1100,-92,46,-176
1,816,29871,-1695,3313,1047,-47,117,-141
1,817,29883,-1903,3394,967,-20,61,-79
1,818,29896,-2039,3498,923,-33,-53,-36
1,819,29909,-2046,3667,942,-80,-250,-37
1,820,29921,-1939,3666,1036,-95,-354,-65
1,821,29934,-1705,3653,1135,-128,-374,-48
1,822,29947,-1421,3685,1237,-118,-216,-163
1,823,29959,-1398,3564,1207,-202,104,-386
1,824,29972,-1548,3135,1167,-133,261,-489
1,825,29984,-1795,2969,1071,-20,326,-171
1,826,29997,-2091,3237,970,-30,145,39
1,827,30009,-1943,3844,1109,-128,-101,37
1,828,30022,-1613,3814,1238,-223,-112,3
1,829,30035,-1331,3631,1298,-298,119,-97
1,830,30047,-1225,3364,1240,-244,338,-283
1,831,30060,-1680,2816,1059,-115,562,-277
1,832,30073,-2072,2890,978,-31,512,-64
1,833,30085,-2311,3265,923,-32,179,242
1,834,30098,-2310,3714,989,-95,-94,346
1,835,30110,-1501,4516,1257,-414,-382,598
1,836,30123,-908,4431,1415,-632,-304,478
1,837,30135,-485,4069,1490,-636,212,-5
1,838,30148,-245,3796,1565,-780,746,237
1,839,30161,-1052,3359,1262,-783,1477,-82
1,840,30173,-1910,2862,1044,-541,1740,-499
1,841,30186,-2782,2513,764,-398,1404,-235
1,842,30199,-3620,3363,449,-267,209,140
1,843,30211,-2873,3852,730,-377,-529,445
1,844,30224,-1814,4100,1214,-401,-837,577
1,845,30236,-1049,4841,1543,-726,-692,859
1,846,30249,25,5061,1913,-1445,146,681
1,847,30261,-76,3806,1744,-1315,1021,-349
1,848,30274,-743,2929,1136,-1184,1529,-405
1,849,30287,-1374,2407,554,-1007,1197,97
1,850,30299,-1381,2984,924,-540,638,743
1,851,30312,-854,4558,1438,-714,525,1562
1,852,30325,-364,5847,1957,-1363,1346,1234
1,853,30337,-129,5973,2110,-1715,2360,88
1,854,30350,-1659,3079,1628,-1930,3973,-1311
1,855,30362,-3370,1416,783,-1792,4281,-1382
1,856,30375,-5055,565,-114,-1184,2863,-815
1,857,30388,-6130,497,-303,-752,1143,-183
1,858,30400,-4801,1738,506,-395,-1048,723
1,859,30413,-3112,2569,1193,-293,-1647,827
1,860,30426,-1594,3152,1960,-435,-975,491
1,861,30438,-675,3112,2417,-511,122,75
1,862,30451,-1633,2255,1911,-371,1526,-566
1,863,30463,-2908,1967,1314,-361,1700,-421
1,864,30476,-3881,1591,809,-58,795,-324
1,865,30488,-4217,1398,590,233,-135,-182
1,866,30501,-2882,2073,1248,347,-946,535
1,867,30514,-2139,2671,1620,468,-879,308
1,868,30526,-1726,3101,1776,388,-325,24
1,869,30539,-1724,3202,1795,293,64,-177
1,870,30552,-2653,2533,1471,409,425,-657
1,871,30564,-3303,2239,1255,438,370,-538
1,872,30577,-3826,2060,1148,597,12,-416
1,873,30589,-4221,2021,1029,759,-354,-579
1,874,30602,-4461,1608,867,929,-882,-656
1,875,30614,-4269,1161,572,1275,-1281,-798
1,876,30627,-3975,1146,584,1607,-1709,-370
1,877,30640,-3771,1135,747,1934,-1675,-574
1,878,30652,-4508,433,300,2619,-1503,-1174
1,879,30665,-5002,530,-399,2932,-1919,-707
1,880,30678,-5281,962,-1061,3663,-3233,-341
1,881,30690,-4687,2425,-1465,3373,-4567,1302
1,882,30703,-1053,5815,-394,2800,-5618,1201
1,883,30715,1253,6378,580,2425,-5398,853
1,884,30728,3026,6612,1368,1563,-3897,1118
1,885,30740,3975,6652,1810,1204,-1943,925
1,886,30753,4227,15760,-11345,-1572,-18478,8057
1,887,30766,9319,-5635,12117,3458,3208,-10291
1,888,30778,-3799,5030,10920,951,-1111,-521
1,889,30791,-4196,5650,1836,476,-47,152
1,890,30803,-980,4933,-239,-417,497,511
1,891,30816,190,5564,330,-582,111,-700
1,892,30829,2965,8584,2379,-2305,2425,-3156
1,893,30841,3052,5580,2759,-2199,4380,-5498
1,894,30854,-1488,-142,821,-2016,5293,-3694
1,895,30866,-3735,-1153,159,-1490,4663,-1761
1,896,30883,-6476,395,-266,-49,1351,877
1,897,30896,-6098,2034,-136,321,-745,1345
1,898,30908,-4491,2986,266,498,-2866,1523
1,899,30921,-2312,3374,957,440,-3055,1593
1,900,30934,663,4175,2362,231,-1596,1039
1,901,30946,760,4589,2456,-87,-96,589
1,902,30959,65,4521,1984,-229,1484,-959
1,903,30971,-985,3895,1439,-244,1859,-1302
1,904,30984,-3005,2742,659,-230,1349,-394
1,905,30997,-3487,2747,496,-67,593,-70
1,906,31009,-3428,2894,568,141,-538,140
1,907,31022,-2885,3031,805,165,-979,354
1,908,31034,-1440,3280,1452,162,-877,346
1,909,31047,-1133,3497,1666,130,-462,188
1,910,31060,-1186,3665,1676,-11,194,-92
1,911,31072,-1485,3569,1559,-23,478,-475
1,912,31085,-2234,2917,1239,-41,546,-377
1,913,31097,-2536,2835,1130,-11,392,-121
1,914,31110,-2695,3002,1087,58,-6,71
1,915,31123,-2647,3164,1156,69,-206,97
1,916,31135,-2156,3283,1312,57,-297,111
1,917,31148,-1968,3318,1386,58,-222,36
1,918,31160,-1906,3363,1425,28,-7,-64
1,919,31173,-1980,3410,1405,-16,85,-106
1,920,31186,-2209,3237,1301,-9,123,-278
1,921,31198,-2315,3153,1258,-45,87,-178
1,922,31211,-2356,3070,1243,-23,-27,-159
1,923,31224,-2328,3027,1259,0,-80,-134
1,924,31236,-2178,3029,1305,15,-129,-32
1,925,31249,-2103,3075,1320,47,-122,-37
1,926,31261,-2046,3166,1360,29,-72,-4
1,927,31274,-2034,3241,1377,1,-41,-28
1,928,31286,-1966,3148,1361,27,20,-193
1,929,31299,-1996,3148,1356,-4,68,-114
1,930,31312,-2048,3155,1321,-6,91,-116
1,931,31324,-2079,3161,1292,5,90,-144
1,932,31337,-2156,3214,1297,-21,81,-73
1,933,31350,-2187,3200,1273,-22,75,-114
1,934,31362,-2174,3121,1228,-5,54,-198
1,935,31375,-2146,3036,1220,10,43,-148
1,936,31387,-2189,3121,1267,28,76,-27
1,937,31400,-2243,3250,1228,20,57,11
1,938,31412,-2251,3262,1231,40,-12,-65
1,939,31425,-2204,3202,1266,39,-18,-45
1,940,31438,-2187,3136,1308,40,12,19
1,941,31450,-2232,3170,1300,38,26,10
1,942,31463,-2262,3192,1248,29,1,-21
1,943,31475,-2235,3100,1243,22,-38,-6
1,944,31488,-2201,3091,1261,22,-53,50
1,945,31501,-2158,3141,1283,25,-50,87
1,946,31513,-2117,3181,1298,44,-18,25
1,947,31526,-2114,3268,1303,-8,41,66
1,948,31538,-2160,3238,1292,-14,77,-14
1,949,31551,-2250,3206,1290,-45,81,-93
1,950,31564,-2344,3194,1268,-80,36,-35
1,951,31576,-2359,2959,1182,66,-86,-147
1,952,31589,-2235,3124,1165,54,-235,62
1,953,31602,-2103,3214,1344,19,-217,109
1,954,31614,-1979,3242,1402,8,-84,13
1,955,31627,-1994,3262,1397,-35,90,-24
1,956,31639,-2102,3310,1347,-48,173,-135
1,957,31652,-2199,3306,1282,-109,163,-186
1,958,31664,-2258,3231,1262,-136,100,-169
1,959,31677,-2269,3199,1342,-224,49,63
1,960,31690,-2257,3193,1352,-240,36,51
1,961,31702,-2246,3198,1317,-292,-14,168
1,962,31715,-2204,3250,1232,-343,-64,195
1,963,31727,-2103,3275,1337,-460,-140,215
1,964,31740,-2157,3262,1500,-514,19,383
1,965,31752,-2252,3175,1327,-439,-81,16
1,966,31765,-2162,2742,1440,-128,1,-557
1,967,31778,-2231,2804,1452,-225,99,-55
1,968,31790,-2423,2561,1510,-92,105,-63
1,969,31803,-2452,2746,1291,191,-107,-7
1,970,31815,-2332,3058,1182,175,-258,321
1,971,31828,-1513,2832,1330,543,-327,169
1,972,31840,-776,3432,-227,552,-74,830
1,973,31853,-1007,4424,280,-246,623,2097
1,974,31866,-1171,4819,1295,-779,1129,1437
1,975,31878,-2978,4046,3495,-1031,1411,-2055
1,976,31891,-3116,2380,1487,-381,1159,-4178
1,977,31903,-3195,1386,475,-289,-7,-1575
1,978,31916,-3232,901,1095,-87,-469,90
1,979,31928,-2404,2651,1286,165,-824,1402
1,980,31941,-1635,3222,1521,413,-659,975
1,981,31954,-1200,3704,1585,366,67,183
1,982,31966,-1408,3987,1810,-62,529,350
1,983,31979,-2094,2906,1342,118,842,-711
1,984,31992,-2697,2561,1242,311,826,-917
1,985,32004,-3008,2254,1051,241,302,281
1,986,32017,-2921,2082,1022,445,-19,690
1,987,32029,-2482,3405,1286,424,-306,1012
1,988,32042,-2156,3807,1432,350,-236,707
1,989,32054,-1955,3714,1406,252,56,-1
1,990,32067,-1906,3342,1325,157,243,-171
1,991,32080,-2092,2698,1256,137,349,121
1,992,32092,-2511,2519,1086,433,189,253
1,993,32105,-2767,2971,978,456,-354,1035
1,994,32118,-2657,3546,1094,513,-554,776
1,995,32130,-2228,4157,1241,451,-661,566
1,996,32147,-2005,4317,1297,167,-607,495
1,997,32159,-1801,3933,1202,156,-494,-42
1,998,32172,-1659,3070,1265,-30,-207,20
1,999,32184,-1803,2819,1100,101,-30,-178
1,1000,32197,-1984,2931,1075,-62,-38,506
1,1001,32210,-2158,3133,1213,41,-91,403
1,1002,32222,-2056,3291,1243,-80,-33,473
1,1003,32235,-2049,3255,1138,43,-15,-124
1,1004,32248,-2034,3233,1116,-40,-75,41
1,1005,32260,-2021,3011,1142,119,-110,-81
1,1006,32273,-1873,3068,1035,99,-217,144
1,1007,32285,-1738,3036,1159,289,-93,-13
1,1008,32298,-1714,3274,1101,249,-211,473
1,1009,32310,-1440,3811,1382,38,128,707
1,1010,32323,-1789,3587,1159,238,320,-316
1,1011,32336,-2113,2996,1018,293,144,-165
1,1012,32348,-2196,2651,981,332,-85,526
1,1013,32361,-1984,3440,1105,366,-197,783
1,1014,32374,-1773,3560,1106,386,-161,375
1,1015,32386,-1613,3348,1175,441,74,25
1,1016,32399,-1674,3213,1256,379,247,320
1,1017,32411,-2211,3510,1068,289,275,523
1,1018,32424,-2360,3472,985,334,161,263
1,1019,32436,-2280,3250,903,432,-60,67
1,1020,32449,-2071,3069,962,494,-68,121
1,1021,32462,-1904,3378,897,467,-96,483
1,1022,32474,-1739,3482,830,482,-138,428
1,1023,32487,-1470,3509,944,506,-26,241
1,1024,32500,-1274,3583,1093,390,219,430
1,1025,32512,-1804,4079,927,251,431,156
1,1026,32525,-2020,3957,763,192,341,-241
1,1027,32537,-1935,3542,745,178,160,-435
1,1028,32550,-1712,3195,796,183,166,-212
1,1029,32562,-1764,3715,714,133,261,248
1,1030,32575,-320,4024,1203,-309,79,921
1,1031,32588,-509,3557,1565,386,1317,-882
1,1032,32600,-2717,3519,348,632,1000,-1186
1,1033,32613,-2089,3644,552,670,918,-983
1,1034,32626,-2293,3400,311,793,639,-1054
1,1035,32638,-2206,3178,463,1076,399,-1352
1,1036,32651,-1984,3334,696,1174,333,-988
1,1037,32663,-2436,3824,787,1089,313,-219
1,1038,32676,-2828,3894,396,927,128,50
1,1039,32689,-2635,3639,85,807,4,389
1,1040,32701,-2406,3471,134,826,15,450
1,1041,32714,-1745,3062,170,1055,270,685
1,1042,32726,-1878,2980,-59,1240,342,632
1,1043,32739,-1893,3144,127,1450,603,237
1,1044,32752,-1645,3003,-46,1714,557,246
1,1045,32764,-1374,3179,23,1687,813,619
1,1046,32777,-1653,3317,-7,1491,929,1046
1,1047,32789,-1935,3427,-355,1357,1110,885
1,1048,32802,-1971,3449,-393,1528,1107,750
1,1049,32814,-1827,3624,-326,1368,1056,737
1,1050,32827,-1779,3657,-663,1080,1050,745
1,1051,32840,-1657,4174,-650,761,698,947
1,1052,32852,-1918,3799,-803,622,668,603
1,1053,32865,-1886,4125,-695,318,712,491
1,1054,32877,-2046,4150,-767,206,797,192
1,1055,32890,-1994,4016,-866,189,737,-420
1,1056,32902,-1742,3800,-845,139,783,-616
1,1057,32915,-1541,3839,-931,86,636,-710
1,1058,32928,-1521,3896,-740,-21,625,-544
1,1059,32940,-1257,3889,-686,-324,1227,124
1,1060,32953,-2112,3792,-1181,-18,905,-738
1,1061,32966,-1519,3694,-966,-78,682,-716
1,1062,32978,-1110,3831,-785,-234,777,-330
1,1063,32991,-1635,3674,-964,-216,880,-142
1,1064,33003,-1956,3552,-1156,-319,469,163
1,1065,33016,-1491,3546,-856,-446,419,621
1,1066,33029,-1678,3451,-885,-419,313,596
1,1067,33041,-1755,3393,-897,-266,161,347
1,1068,33054,-1623,3445,-921,-223,150,259
1,1069,33066,-1645,3678,-856,-232,59,49
1,1070,33079,-1776,3529,-838,-372,123,-142
1,1071,33092,-1594,3419,-850,-315,80,-283
1,1072,33104,-1474,3526,-844,-358,-46,-197
1,1073,33117,-1315,3468,-803,-464,-301,308
1,1074,33130,-1389,3383,-778,-573,-270,598
1,1075,33142,-1914,3536,-991,-205,-768,38
1,1076,33155,-1427,3500,-771,-154,-869,319
1,1077,33167,-1418,3494,-839,146,-1078,438
1,1078,33180,-1037,3892,-598,26,-1166,810
1,1079,33192,-1166,3707,-689,113,-1478,817
1,1080,33205,-2245,3636,-1853,-1899,-2436,6735
1,1081,33218,-1590,7052,-1399,-2822,-4817,7107
1,1082,33230,2842,5415,1035,104,-1427,-2459
1,1083,33243,2225,4007,1102,-712,287,-543
1,1084,33255,-45,4482,-168,-804,2512,-66
1,1085,33268,-1771,5529,-1327,-870,1791,-584
1,1086,33281,-1211,4710,-1057,-840,646,-981
1,1087,33293,-17,4191,-252,-1028,883,-744
1,1088,33306,211,3939,-62,-1203,1499,-760
1,1089,33318,-471,3495,-156,-1144,1786,-846
1,1090,33331,-1333,3570,-289,-1082,1678,-430
1,1091,33344,-1917,4071,-443,-1082,1273,-514
1,1092,33356,-1488,4231,-310,-966,665,-1434
1,1093,33369,-643,3861,-26,-986,600,-1542
1,1094,33382,-252,3869,208,-1164,1079,-1428
1,1095,33394,-462,3778,342,-1185,1567,-1630
1,1096,33411,-1893,3369,-50,-1213,1778,-1447
1,1097,33423,-2482,3575,-242,-1136,1203,-1215
1,1098,33436,-2430,3907,-87,-1129,947,-1243
1,1099,33449,-1582,4651,270,-1349,968,-1571
1,1100,33461,-1275,4522,342,-1477,1134,-2046
1,1101,33474,-1271,4264,331,-1803,1403,-2311
1,1102,33487,-1408,3551,429,-1899,1704,-2298
1,1103,33499,-2930,1734,138,-1688,1788,-2042
1,1104,33512,-3817,1405,-105,-1498,1233,-1344
1,1105,33524,-3858,1517,-116,-999,29,-804
1,1106,33537,-3196,2087,267,-985,-281,-628
1,1107,33549,-2065,2154,985,-898,265,-1086
1,1108,33562,-2339,1671,902,-768,613,-1242
1,1109,33575,-2781,1199,830,-477,901,-548
1,1110,33588,-3911,2314,368,-352,515,520
1,1111,33600,-3900,3020,397,-242,49,314
1,1112,33613,-3325,3127,659,-162,-233,46
1,1113,33625,-2696,3171,863,-267,-119,176
1,1114,33638,-2362,2882,1017,-228,274,-97
1,1115,33650,-2662,2638,905,-214,470,4
1,1116,33663,-3090,2483,684,-37,273,81
1,1117,33676,-3248,2462,557,129,-32,106
1,1118,33688,-2561,3037,678,216,-289,575
1,1119,33701,-2275,3748,779,114,-276,700
1,1120,33713,-2084,4029,851,17,-72,177
1,1121,33726,-1980,3869,815,-53,46,95
1,1122,33738,-2009,4164,691,-311,15,600
1,1123,33751,-1743,4285,839,-434,21,387
1,1124,33764,-1482,3987,1033,-536,400,-128
1,1125,33776,-1484,3480,1054,-594,659,-158
1,1126,33789,-2280,2750,765,-510,727,-75
1,1127,33801,-2537,2821,629,-414,491,184
1,1128,33814,-2520,3445,596,-494,86,704
1,1129,33826,-2181,4260,719,-616,11,400
1,1130,33839,-1136,4345,1085,-832,401,-539
1,1131,33852,-1099,3666,1144,-975,789,-960
1,1132,33864,-1385,2793,1125,-920,1221,-1335
1,1133,33877,-1959,2042,1045,-803,1265,-1106
1,1134,33890,-3164,1986,669,-582,804,-468
1,1135,33902,-3171,2587,593,-466,359,-198
1,1136,33915,-2713,3203,709,-473,17,-290
1,1137,33927,-2080,3288,1090,-524,372,-672
1,1138,33940,-2646,2379,1037,-551,964,-664
1,1139,33953,-3494,2400,552,-472,728,-461
1,1140,33965,-3600,2634,482,-333,1,-218
1,1141,33978,-3010,2880,789,-319,-55,-299
1,1142,33991,-2260,2738,1266,-321,472,-669
1,1143,34003,-2831,2523,1057,-364,820,-567
1,1144,34016,-3630,2379,702,-216,527,-635
1,1145,34028,-3866,2121,651,-101,202,-495
1,1146,34041,-3355,1783,911,110,38,-240
1,1147,34053,-3321,2064,898,204,57,-63
1,1148,34066,-3410,2535,763,250,-73,50
1,1149,34079,-3338,2970,710,231,-203,-12
1,1150,34091,-2696,2998,1038,134,-16,-226
1,1151,34104,-2813,2803,1033,86,212,-288
1,1152,34117,-3238,2699,859,79,191,-213
1,1153,34129,-3521,2717,709,79,-43,-94
1,1154,34142,-3131,2479,894,81,-207,50
1,1155,34154,-3023,2395,922,97,-155,183
1,1156,34167,-3081,2582,820,141,-246,282
1,1157,34179,-3020,2888,799,99,-332,300
1,1158,34192,-2568,2961,1094,41,-134,73
1,1159,34205,-2676,2811,983,17,-33,-45
1,1160,34217,-2742,2641,896,75,-119,-88
1,1161,34230,-2631,2625,977,51,-79,68
1,1162,34243,-2711,2930,953,43,-17,-23
1,1163,34255,-2745,2864,929,30,-22,-65
1,1164,34268,-2745,2818,898,4,-72,18
1,1165,34280,-2685,2799,891,12,-71,19
1,1166,34293,-2693,2771,936,-19,-6,199
1,1167,34305,-2810,2853,883,-23,-36,170
1,1168,34318,-2758,2808,890,14,-83,2
1,1169,34331,-2617,2695,958,22,-22,31
1,1170,34343,-2737,2853,918,14,47,88
1,1171,34356,-2832,2909,903,9,26,4
1,1172,34368,-2821,2742,936,31,56,-48
1,1173,34381,-2891,2682,882,28,-6,62
1,1174,34394,-2771,2930,898,42,-118,65
1,1175,34406,-2633,3007,998,6,-39,80
1,1176,34419,-2679,3022,987,-28,79,-81
1,1177,34432,-2784,2876,937,-17,91,-153
1,1178,34444,-2851,2689,861,10,4,-4
1,1179,34457,-2768,2859,889,-8,-42,48
1,1180,34470,-2617,2814,988,8,87,-140
1,1181,34482,-2606,2616,1012,13,195,-94
1,1182,34495,-3058,2697,798,44,106,35
1,1183,34507,-3016,2797,809,68,-34,18
1,1184,34520,-2768,2817,911,58,-27,39
1,1185,34532,-2640,2850,978,25,76,65
1,1186,34545,-2827,2886,894,11,118,-86
1,1187,34558,-2829,2743,881,12,104,-92
1,1188,34570,-2818,2704,847,33,40,2
1,1189,34583,-2732,2842,879,1,45,30
1,1190,34596,-2577,2864,987,-9,206,-183
1,1191,34608,-2689,2728,929,-22,298,-125
1,1192,34621,-2825,2675,848,-12,235,-73
1,1193,34633,-2616,2652,908,32,193,-105
1,1194,34646,-2512,2710,1005,13,302,-57
1,1195,34658,-2559,2832,954,21,434,-230
1,1196,34675,-2493,2813,884,29,474,-381
1,1197,34687,-2328,2802,927,35,551,-515
1,1198,34700,-2209,2720,993,69,817,-759
1,1199,34713,-2169,2700,967,13,1037,-755
1,1200,34725,-2487,2289,783,196,1323,-1352
1,1201,34738,-2695,1929,661,278,1390,-1398
1,1202,34750,-3015,1752,513,325,1221,-1366
1,1203,34763,-3334,1307,425,631,1053,-1664
1,1204,34775,-3331,1123,74,1022,792,-576
1,1205,34788,-3510,2714,-39,1021,623,386
1,1206,34801,-3549,4537,-99,547,184,325
1,1207,34813,-3226,4835,293,298,374,-563
1,1208,34826,-3337,2413,335,-51,833,-574
1,1209,34838,-4003,1494,-29,31,732,-278
1,1210,34851,-4340,1315,-217,265,-102,580
1,1211,34864,-4028,1621,-51,412,-408,814
1,1212,34876,-3004,2559,270,524,-436,507
1,1213,34889,-2785,2698,409,525,-132,209
1,1214,34901,-2997,2857,347,307,303,404
1,1215,34914,-3553,2936,76,294,270,235
1,1216,34927,-3964,2690,-122,278,-140,345
1,1217,34939,-3664,2557,50,176,-277,607
1,1218,34952,-3457,2494,132,188,-258,622
1,1219,34964,-3394,2542,126,182,-248,659
1,1220,34977,-3262,2721,120,159,-265,526
1,1221,34990,-3133,2622,202,153,-184,368
1,1222,35002,-3149,2514,185,151,-51,286
1,1223,35015,-3263,2529,111,175,-45,200
1,1224,35027,-3313,2769,44,152,-111,125
1,1225,35040,-3140,2779,110,122,-113,2
1,1226,35053,-3000,2673,198,55,87,-179
1,1227,35065,-3063,2498,192,37,226,-274
1,1228,35078,-3561,2116,-36,86,225,-321
1,1229,35090,-3742,1906,-99,120,191,-342
1,1230,35103,-4033,1501,-154,252,160,-271
1,1231,35116,-4387,1123,-243,397,50,-152
1,1232,35128,-5255,445,-455,752,-204,-131
1,1233,35141,-5705,-1,-557,1075,-488,-213
1,1234,35153,-6076,-597,-708,1694,-876,-394
1,1235,35166,-6556,-1350,-970,2300,-1122,-618
1,1236,35179,-7454,-2826,-2291,3342,-2038,-437
1,1237,35191,-7595,-3142,-2847,4074,-2661,162
1,1238,35204,-7766,-2296,-3814,4920,-4185,1218
1,1239,35216,-7277,-1487,-4584,5592,-5270,944
1,1240,35229,-4407,-1608,-4602,6117,-5848,2054
1,1241,35242,-3559,-579,-4827,6410,-5675,3087
1,1242,35254,-3705,1736,-5590,6377,-6357,3798
1,1243,35267,-1748,7077,-4983,5384,-7789,4505
1,1244,35279,458,8196,-3693,4492,-7705,4113
1,1245,35292,1926,8484,-2727,3475,-6754,2321
1,1246,35305,6648,8081,-4211,-1788,-9228,13531
1,1247,35317,-6689,2096,-4709,2411,3016,-2714
1,1248,35330,-4469,7000,-4031,1070,958,1927
1,1249,35342,978,4738,-988,528,1455,3750
1,1250,35355,-1870,3291,-822,792,1672,3260
1,1251,35368,477,4199,-644,-842,2635,5563
1,1252,35380,-1079,3627,-1420,-753,2459,4886
1,1253,35393,-401,3302,-1127,-1112,1470,4449
1,1254,35405,-994,4721,-1843,-285,-1220,-154
1,1255,35418,-1542,6205,-859,1642,-4437,-13726
1,1256,35431,3856,-1072,1662,-882,-3232,-1828
1,1257,35443,2940,5767,2307,-1431,1069,-2657
1,1258,35456,2262,4954,1100,-1445,2870,-3461
1,1259,35468,-1685,868,-846,-946,2911,-2205
1,1260,35481,-2142,1847,-1165,-627,1862,-754
1,1261,35494,-726,2899,-502,-515,1489,631
1,1262,35506,758,4694,227,-790,2697,338
1,1263,35519,-316,6260,-546,-1483,4677,-959
1,1264,35531,-1953,5794,-1364,-1886,5074,-1617
1,1265,35544,-3188,4806,-1553,-2409,5063,-1465
1,1266,35557,-4517,4418,-1876,-2671,4449,-1646
1,1267,35569,-5630,1587,-2343,-2058,2459,-2908
1,1268,35582,-4755,486,-1768,-1789,1131,-1656
1,1269,35594,-3552,1014,-996,-1444,485,-34
1,1270,35607,-2711,2587,-505,-1496,750,53
1,1271,35620,-2474,3704,-342,-1629,1413,-609
1,1272,35632,-3013,3548,-490,-1859,1707,-695
1,1273,35645,-3659,3073,-777,-1891,1491,-1195
1,1274,35658,-3869,2264,-1043,-1686,900,-1242
1,1275,35670,-2711,1580,-297,-1475,528,-642
1,1276,35683,-2472,1813,144,-1410,907,-393
1,1277,35695,-2871,1951,88,-1289,1494,-330
1,1278,35708,-3696,2181,-375,-1178,1186,-353
1,1279,35720,-3693,2608,-440,-999,377,-527
1,1280,35733,-2916,2767,-19,-1033,284,-533
1,1281,35746,-2514,2850,285,-1146,850,-929
1,1282,35758,-2664,2465,244,-1018,1224,-1434
1,1283,35771,-3817,1403,-327,-844,1120,-859
1,1284,35783,-4146,1668,-441,-684,652,-259
1,1285,35796,-3894,2360,-305,-569,101,-179
1,1286,35808,-3303,2650,52,-510,268,-581
1,1287,35821,-3181,2228,78,-541,633,-641
1,1288,35833,-3566,1961,-162,-450,583,-556
1,1289,35846,-3727,1886,-228,-282,242,-155
1,1290,35859,-3656,2168,-146,-281,94,164
1,1291,35871,-3319,2663,55,-254,95,-83
1,1292,35884,-3297,2460,93,-247,226,-202
1,1293,35897,-3439,2280,-31,-224,199,-38
1,1294,35909,-3588,2287,-125,-155,32,8
1,1295,35922,-3223,2443,-5,-73,-164,-28
1,1296,35938,-2969,2471,111,-79,9,5
1,1297,35951,-2991,2554,148,-101,153,-29
1,1298,35963,-3400,2425,-32,-51,183,-275
1,1299,35976,-3491,2248,-116,-23,50,-171
1,1300,35989,-3401,2192,-75,51,-161,79
1,1301,36001,-3187,2450,79,63,-96,66
1,1302,36014,-3212,2431,-17,102,-127,-39
1,1303,36026,-3180,2389,21,129,-178,74
1,1304,36039,-3145,2507,94,94,-137,113
1,1305,36052,-3220,2366,-29,163,-101,-198
1,1306,36064,-3129,2225,-107,227,-249,5
1,1307,36077,-2951,2604,27,104,-300,643
1,1308,36089,-2844,3261,200,30,-113,280
1,1309,36102,-2954,2610,117,35,173,-499
1,1310,36115,-3172,2004,-29,84,179,-240
1,1311,36127,-3441,2247,-140,89,-134,439
1,1312,36140,-3486,2826,-92,106,-290,271
1,1313,36153,-2896,2835,107,77,-231,-160
1,1314,36165,-2690,2459,94,95,-107,-232
1,1315,36178,-2708,2375,82,62,54,235
1,1316,36190,-2995,2740,88,7,104,342
1,1317,36203,-3347,2998,-79,11,-87,-188
1,1318,36215,-3009,2467,-3,65,-202,-235
1,1319,36228,-2754,2358,163,-8,-44,354
1,1320,36241,-2861,2755,209,-34,120,203
1,1321,36253,-3268,2609,-21,27,90,-333
1,1322,36266,-3273,2270,-37,50,-22,-127
1,1323,36278,-3265,2412,-46,67,-200,182
1,1324,36291,-3142,2709,-39,101,-271,51
1,1325,36304,-2757,2816,186,27,-75,59
1,1326,36316,-2905,2814,158,-16,89,-15
1,1327,36329,-3146,2700,39,-3,83,-116
1,1328,36341,-3259,2537,-22,13,-36,-19
1,1329,36354,-3145,2592,79,22,-98,90
1,1330,36367,-3123,2636,66,27,-66,20
1,1331,36379,-3066,2542,-9,87,-166,-64
1,1332,36392,-2859,2468,69,70,-113,129
1,1333,36404,-2968,2943,144,-8,91,175
1,1334,36417,-3162,2921,39,-7,101,-152
1,1335,36430,-3174,2538,11,37,23,-192
1,1336,36442,-3131,2366,-4,23,-59,109
1,1337,36455,-3078,2830,98,18,-74,84
1,1338,36467,-3034,2768,94,13,-25,-99
1,1339,36480,-2983,2514,56,42,-7,-89
1,1340,36493,-2996,2419,56,30,1,141
1,1341,36505,-3136,2824,27,33,-44,57
1,1342,36518,-3063,2757,53,46,-71,-71
1,1343,36530,-2975,2671,82,-8,-11,52
1,1344,36543,-3008,2703,83,-8,28,-15
1,1345,36556,-3172,2573,58,5,47,-105
1,1346,36568,-3209,2487,-22,19,-22,-52
1,1347,36581,-3101,2471,-43,85,-167,73
1,1348,36593,-2900,2653,99,22,-89,243
1,1349,36606,-2945,2900,103,2,91,-118
1,1350,36619,-3001,2643,35,23,93,-171
1,1351,36631,-3018,2612,41,-33,47,206
1,1352,36644,-3035,2849,26,-33,12,146
1,1353,36656,-2802,2964,104,-96,33,28
1,1354,36669,-2712,2789,167,-118,157,-1
1,1355,36682,-2861,2742,113,-166,272,110
1,1356,36694,-3082,2747,18,-150,202,70
1,1357,36707,-3105,2639,-6,-122,30,118
1,1358,36719,-2943,2663,47,-110,-20,218
1,1359,36732,-2798,2835,67,-144,-19,344
1,1360,36745,-2691,3011,119,-190,68,327
1,1361,36757,-2733,3038,142,-268,209,218
1,1362,36770,-2840,2909,67,-290,230,165
1,1363,36782,-2841,2775,26,-275,119,106
1,1364,36795,-2700,2656,91,-258,123,116
1,1365,36807,-2608,2711,155,-244,230,176
1,1366,36820,-2700,2904,104,-257,238,95
1,1367,36832,-2697,2828,131,-224,295,-229
1,1368,36845,-2708,2566,159,-218,365,-113
1,1369,36858,-3161,2521,6,-189,307,81
1,1370,36870,-3237,2664,-82,-163,134,82
1,1371,36883,-2983,2564,-49,-73,-14,24
1,1372,36895,-2645,2563,111,-142,143,380
1,1373,36908,-3157,3314,50,-263,403,257
1,1374,36921,-3496,3038,-135,-243,278,-38
1,1375,36933,-3556,2686,-171,-267,-112,598
1,1376,36946,-3512,3103,-164,-335,-378,994
1,1377,36958,-2679,4651,66,-545,-548,599
1,1378,36971,-2069,4747,294,-778,-274,523
1,1379,36984,-1911,5053,334,-1363,268,607
1,1380,36996,-2016,4922,354,-1500,663,-226
1,1381,37009,-2704,2538,211,-1538,1059,-551
1,1382,37021,-3339,1856,-47,-1412,905,-199
1,1383,37034,-3670,1945,-189,-1074,214,170
1,1384,37047,-3381,2435,-128,-1004,-122,352
1,1385,37059,-2207,3115,479,-1063,141,28
1,1386,37072,-2293,2898,532,-1133,585,-269
1,1387,37084,-2886,2485,303,-1134,785,-452
1,1388,37097,-3457,1954,106,-997,533,-409
1,1389,37109,-3571,1396,303,-767,164,-25
1,1390,37122,-3434,1577,431,-546,-24,129
1,1391,37135,-3256,1867,548,-475,-10,177
1,1392,37147,-3174,2649,599,-483,54,79
1,1393,37160,-3181,2751,624,-508,123,-136
1,1394,37173,-3202,2624,648,-568,211,-273
1,1395,37185,-3285,2259,663,-523,277,-303
1,1396,37202,-3780,1716,542,-393,186,-8
1,1397,37214,-3932,1927,398,-242,-272,219
1,1398,37227,-3674,2125,409,-102,-504,132
1,1399,37239,-2817,2503,820,-122,-350,326
1,1400,37252,-2824,2609,806,-88,-137,28
1,1401,37265,-2940,2304,751,21,58,-292
1,1402,37277,-3165,1827,670,148,30,-163
1,1403,37290,-3446,1937,366,372,-378,160
1,1404,37303,-3068,2322,487,460,-612,261
1,1405,37315,-2616,2776,691,413,-445,253
1,1406,37328,-2483,3188,750,338,-202,-99
1,1407,37340,-2880,2520,699,302,139,-423
1,1408,37353,-3422,2087,524,326,128,-306
1,1409,37365,-3903,1835,393,547,-207,-262
1,1410,37378,-4294,1765,455,679,-405,-304
1,1411,37391,-5091,1397,350,863,-780,-616
1,1412,37403,-5058,418,152,1232,-1202,-1077
1,1413,37416,-4701,-547,124,1839,-1631,-539
1,1414,37429,-4462,-472,-78,2086,-1873,173
1,1415,37441,-4463,685,-57,2553,-1887,-223
1,1416,37454,-4670,633,-145,2688,-1796,-296
1,1417,37466,-4957,61,-421,3118,-1955,-50
1,1418,37479,-5152,-247,-773,3312,-2340,834
1,1419,37491,-4716,808,-1387,3633,-3247,1859
1,1420,37504,-3808,1677,-1371,3684,-3685,2398
1,1421,37517,-2883,2414,-1116,3428,-3772,2776
1,1422,37529,-2371,2699,-823,3475,-3455,2352
1,1423,37542,-2124,3431,-1134,3177,-3046,3240
1,1424,37555,-2432,4875,-1533,2884,-3308,3267
1,1425,37567,-1949,5664,-1550,2545,-3819,2035
1,1426,37580,-903,5687,-1302,2188,-3793,1822
1,1427,37592,1804,6220,-4099,1960,-2849,1784
1,1428,37605,15358,17173,-21939,-5082,-17113,-3604
1,1429,37617,59,-4228,16842,-800,-5085,1376
1,1430,37630,432,4266,825,2088,-1774,128
1,1431,37643,-1183,6536,370,1104,-1080,489
1,1432,37655,-412,5528,2066,14,277,824
1,1433,37668,-104,3772,597,114,707,712
1,1434,37681,3773,8364,1850,-2021,2561,6204
1,1435,37693,1878,9953,1561,-2226,5733,-3398
1,1436,37706,-3563,1044,-1085,-1512,3697,-3786
1,1437,37718,-6241,-3982,-2257,-450,-276,1365
1,1438,37731,-441,4643,2091,-197,-1907,630
1,1439,37743,1542,3381,3250,-489,514,-626
1,1440,37756,-1307,2114,1953,-381,1956,-1074
1,1441,37769,-4521,1604,303,-20,410,-454
1,1442,37781,-2100,3047,966,152,-1040,1207
1,1443,37794,-500,4285,1529,109,-505,758
1,1444,37806,-444,4057,1329,47,613,-36
1,1445,37819,-1507,3413,721,73,498,201
1,1446,37832,-1912,3670,607,145,-53,466
1,1447,37844,-1281,3846,792,160,10,266
1,1448,37857,-1731,3626,475,203,-185,41
1,1449,37869,-1794,3607,623,212,-125,76
1,1450,37882,-1699,3746,770,162,-41,163
1,1451,37894,-1580,3643,774,138,20,220
1,1452,37907,-1564,4337,785,-43,67,-326
1,1453,37920,-1290,4313,935,65,412,-1128
1,1454,37932,-2179,2906,465,40,269,151
1,1455,37945,-2225,3472,547,106,-217,212
1,1456,37957,-1532,3529,912,98,-122,180
1,1457,37970,-1339,3550,977,76,65,116
1,1458,37982,-1824,3528,724,97,29,51
1,1459,37995,-1799,3591,737,108,-71,172
1,1460,38008,-1689,3814,787,88,-89,114
1,1461,38020,-1602,3853,778,81,-70,-9
1,1462,38033,-1565,3781,825,32,31,26
1,1463,38046,-1702,3764,799,29,94,-155
1,1464,38058,-1840,3576,741,30,23,-99
1,1465,38071,-1874,3573,754,36,-48,-21
1,1466,38083,-1647,3759,831,21,-45,-32
1,1467,38096,-1584,3796,813,1,1,-46
1,1468,38109,-1575,3737,796,-25,50,-76
1,1469,38121,-1588,3595,791,-29,69,-52
1,1470,38134,-1732,3633,754,-40,25,-6
1,1471,38147,-1673,3606,774,-37,1,-71
1,1472,38159,-1615,3551,774,-46,35,-63
1,1473,38172,-1656,3610,746,-44,30,-84
1,1474,38184,-1639,3627,757,-49,35,-103
1,1475,38197,-1659,3611,757,-56,78,-110
1,1476,38209,-1749,3604,716,-50,45,-147
1,1477,38222,-1744,3574,736,-51,41,-131
1,1478,38235,-1764,3610,752,-52,51,-118
1,1479,38247,-1777,3690,758,-64,5,-72
1,1480,38260,-1666,3628,790,-61,44,-131
1,1481,38273,-1636,3497,812,-58,95,-91
1,1482,38285,-1856,3469,725,-33,25,-47
1,1483,38298,-1776,3507,761,-16,-42,17
1,1484,38310,-1660,3620,812,-9,-2,-44
1,1485,38323,-1614,3617,835,-8,74,-101
1,1486,38335,-1828,3483,729,-3,54,-81
1,1487,38348,-1836,3432,734,14,-23,25
1,1488,38361,-1759,3541,786,18,-51,48
1,1489,38373,-1681,3640,843,5,14,-35
1,1490,38386,-1766,3511,758,5,16,-67
1,1491,38399,-1768,3507,787,2,-10,-6
1,1492,38411,-1758,3571,819,-5,0,-21
1,1493,38424,-1755,3546,818,-2,23,-54
1,1494,38436,-1779,3519,791,4,-11,9
1,1495,38449,-1746,3615,802,7,-17,7
1,1496,38465,-1676,3508,783,14,32,-42
1,1497,38478,-1735,3493,771,17,47,9
1,1498,38490,-1781,3574,774,17,27,-26
1,1499,38503,-1769,3541,772,19,17,-40
1,1500,38516,-1711,3506,802,-35,60,191
1,1501,38528,-1837,3671,742,10,17,31
1,1502,38541,-1777,3604,747,11,-44,53
1,1503,38553,-1656,3587,779,4,-3,49
1,1504,38566,-1737,3678,774,-9,41,-74
1,1505,38578,-1804,3579,750,-15,23,-65
1,1506,38591,-1816,3559,742,-10,-26,-9
1,1507,38604,-1771,3591,775,-10,-15,-19
1,1508,38616,-1766,3543,781,-2,19,-15
1,1509,38629,-1799,3590,761,0,-3,24
1,1510,38642,-1761,3676,762,-10,-21,-39
1,1511,38654,-1674,3630,794,-19,16,-47
1,1512,38667,-1692,3531,787,-47,63,39
1,1513,38679,-1775,3545,754,-20,48,-52
1,1514,38692,-1765,3497,766,-14,16,-6
1,1515,38705,-1693,3514,796,-25,42,-5
1,1516,38717,-1692,3526,798,-24,101,-95
1,1517,38730,-1746,3534,802,-39,134,-78
1,1518,38742,-1818,3591,789,-56,144,-144
1,1519,38755,-1919,3518,825,-55,160,-138
1,1520,38768,-2036,3528,741,-42,13,-115
1,1521,38780,-1807,3566,789,-41,-26,-146
1,1522,38793,-1673,3531,852,-44,83,-136
1,1523,38805,-1779,3547,787,-32,59,-116
1,1524,38818,-1791,3518,761,-5,-4,11
1,1525,38830,-1737,3615,785,0,-14,54
1,1526,38843,-1686,3600,810,-3,24,32
1,1527,38855,-1684,3568,800,-2,55,28
1,1528,38868,-1794,3509,739,13,0,42
1,1529,38881,-1731,3527,746,17,-30,65
1,1530,38893,-1664,3574,776,9,3,22
1,1531,38906,-1660,3549,786,2,39,-27
1,1532,38919,-1775,3461,737,1,39,-21
1,1533,38931,-1805,3504,742,1,13,-18
1,1534,38944,-1782,3528,775,-4,17,-59
1,1535,38956,-1757,3529,781,-5,37,-72
1,1536,38969,-1848,3565,758,-4,30,-58
1,1537,38981,-1845,3524,777,1,10,-55
1,1538,38994,-1819,3509,790,6,21,-4
1,1539,39007,-1824,3499,814,9,28,0
1,1540,39019,-1875,3480,779,25,27,40
1,1541,39032,-1887,3514,774,31,-4,77
1,1542,39045,-1831,3598,785,18,-25,68
1,1543,39057,-1760,3651,805,2,8,-8
1,1544,39070,-1816,3506,800,-17,74,-62
1,1545,39082,-1910,3470,762,-22,39,-33
1,1546,39095,-1880,3469,752,-11,-25,15
1,1547,39107,-1780,3503,770,-9,-7,32
1,1548,39120,-1753,3565,774,-9,47,12
1,1549,39133,-1787,3535,727,-4,44,2
1,1550,39145,-1758,3499,714,9,29,39
1,1551,39158,-1746,3549,724,9,22,34
1,1552,39171,-1744,3607,751,9,49,15
1,1553,39183,-1820,3626,720,9,48,3
1,1554,39196,-1835,3624,700,5,-21,23
1,1555,39208,-1774,3653,727,-1,-26,-10
1,1556,39221,-1718,3558,749,-2,9,-41
1,1557,39234,-1765,3536,737,1,9,-14
1,1558,39246,-1817,3515,732,12,-23,24
1,1559,39259,-1800,3488,737,17,-36,46
1,1560,39272,-1811,3616,797,5,-6,29
1,1561,39284,-1849,3563,787,0,5,-30
1,1562,39297,-1854,3475,792,-1,-9,18
1,1563,39309,-1855,3522,816,-10,-4,35
1,1564,39322,-1814,3419,872,-27,55,4
1,1565,39334,-1905,3323,858,-28,90,70
1,1566,39347,-2012,3351,846,-18,47,113
1,1567,39360,-2005,3351,841,0,-1,138
1,1568,39372,-1726,3469,865,17,13,174
1,1569,39385,-1754,3638,805,-57,72,201
1,1570,39398,-1718,3464,772,-5,108,267
1,1571,39410,-1834,3727,683,27,19,184
1,1572,39423,-1683,3701,728,28,9,123
1,1573,39435,-1662,3734,723,10,42,50
1,1574,39448,-1737,3784,678,6,15,-19
1,1575,39460,-1669,3744,663,2,-48,-59
1,1576,39473,-1602,3661,695,1,-31,-66
1,1577,39486,-1640,3624,700,2,-25,-13
1,1578,39498,-1692,3631,690,13,-44,-34
1,1579,39511,-1641,3518,747,12,-14,-14
1,1580,39524,-1669,3502,732,15,-3,-13
1,1581,39536,-1673,3455,735,20,-6,29
1,1582,39549,-1657,3474,752,24,-1,45
1,1583,39561,-1653,3547,787,19,43,2
1,1584,39574,-1706,3578,767,4,53,-11
1,1585,39586,-1740,3579,759,0,45,-50
1,1586,39599,-1756,3552,767,-5,49,-41
1,1587,39612,-1778,3663,735,-10,14,-32
1,1588,39624,-1724,3691,740,-16,7,-55
1,1589,39637,-1698,3674,772,-27,67,-85
1,1590,39650,-1759,3645,739,-31,64,-84
1,1591,39662,-1837,3601,714,-20,6,-37
1,1592,39675,-1804,3624,732,-18,-10,-12
1,1593,39687,-1755,3605,731,-12,-14,-11
1,1594,39700,-1724,3613,742,-15,4,-16
1,1595,39712,-1724,3571,748,-18,16,-64
1,1596,39729,-1736,3505,761,-19,32,-47
1,1597,39741,-1781,3508,736,-12,13,-40
1,1598,39754,-1734,3504,773,-7,10,-29
1,1599,39766,-1732,3478,773,-5,29,-34
1,1600,39779,-1764,3468,761,3,32,-27
1,1601,39792,-1799,3479,756,6,5,-22
1,1602,39804,-1729,3576,780,5,-7,-16
1,1603,39817,-1697,3624,800,1,26,-61
1,1604,39829,-1742,3614,792,-14,71,-114
1,1605,39842,-1809,3612,739,-47,24,-56
1,1606,39854,-1781,3556,771,-25,108,-149
1,1607,39867,-1893,3521,729,-20,95,-171
1,1608,39879,-1957,3486,724,-18,27,-101
1,1609,39892,-1967,3494,733,-16,-10,-92
1,1610,39905,-1972,3630,818,-43,-14,-99
1,1611,39917,-2074,3701,876,-92,3,-192
1,1612,39930,-2288,3618,954,-161,-34,-386
1,1613,39943,-2303,3591,574,-208,-341,-187
1,1614,39955,-860,1596,768,628,97,-903
1,1615,39968,-2480,3134,863,-147,485,1773
1,1616,39980,-4447,3555,489,603,-308,-799
1,1617,39993,-4662,1371,426,829,-905,294
1,1618,40005,-5273,949,52,1559,-1937,287
1,1619,40018,-5070,113,-197,2206,-2596,169
1,1620,40031,-4761,-91,-658,3231,-3289,46
1,1621,40043,-4796,400,-1079,3750,-3689,-230
1,1622,40056,-4650,481,-2150,4556,-4318,-678
1,1623,40069,-4309,801,-2617,5013,-4589,-813
1,1624,40081,-3114,992,-3826,6005,-5570,-1360
1,1625,40094,3571,7611,-2736,-894,-6327,13085
1,1626,40106,15394,14229,4055,-270,10480,-10871
1,1627,40119,6078,-4523,-2532,565,18554,-12439
1,1628,40131,-17690,-21003,-13937,14287,8375,-12699
1,1629,40144,-32768,-12305,-26715,9236,-17945,12843
1,1630,40157,14347,-1265,-17227,7499,-32768,16543
1,1631,40169,30399,12806,-4693,-1156,-18939,25055
1,1632,40182,31587,17127,10399,1454,1752,-6178
1,1633,40195,7027,5806,-1648,-2417,13483,-15410
1,1634,40207,-3243,-5941,-5960,-1708,11663,-11067
1,1635,40220,-10028,-6828,-6774,96,2734,2201
1,1636,40232,-11748,-862,-6068,1222,-3822,2959
1,1637,40245,1201,1655,345,2013,-4333,1669
1,1638,40257,2352,4273,1030,1447,-1453,2228
1,1639,40270,-58,6920,-206,770,357,-892
1,1640,40283,-1565,5866,-1060,614,80,-1890
1,1641,40295,-1460,3008,-844,397,-94,30
1,1642,40308,-1800,3711,-919,371,-204,88
1,1643,40321,-1708,3455,-776,373,-81,-305
1,1644,40333,-1722,2924,-712,404,88,-296
1,1645,40346,-2358,2918,-1010,482,23,-362
1,1646,40358,-2386,2923,-1087,531,-62,-335
1,1647,40371,-2368,3193,-1118,488,-209,-118
1,1648,40383,-2192,3531,-1135,537,-266,-180
1,1649,40396,-1800,4235,-974,366,-184,202
1,1650,40409,-1747,4373,-926,260,-10,-125
1,1651,40421,-1768,3919,-982,145,299,-177
1,1652,40434,-2151,3681,-1216,56,254,-40
1,1653,40447,-2429,3418,-1246,89,83,-103
1,1654,40459,-2413,3478,-1221,42,2,107
1,1655,40472,-2375,3703,-1190,-19,-100,-45
1,1656,40484,-2165,3581,-1137,-53,-74,-79
1,1657,40497,-1946,3258,-1194,-65,-33,-80
1,1658,40509,-1816,3146,-1183,-64,16,-91
1,1659,40522,-1822,3007,-1110,-27,222,-96
1,1660,40535,-2124,2985,-1150,-17,207,-93
1,1661,40547,-2272,3105,-1220,14,-47,11
1,1662,40560,-1960,3278,-1088,-2,-72,43
1,1663,40573,-1784,3283,-986,-5,217,-297
1,1664,40585,-1953,3031,-1106,33,258,-310
1,1665,40598,-2131,3022,-1294,98,6,0
1,1666,40610,-1847,3311,-1102,99,34,46
1,1667,40623,-1803,3496,-1024,57,310,-148
1,1668,40635,-2035,3480,-1142,37,343,-231
1,1669,40648,-2276,3317,-1208,3,218,-134
1,1670,40661,-2287,3342,-1145,-20,204,-141
1,1671,40674,-2336,3318,-1177,-35,104,-187
1,1672,40686,-2268,3267,-1171,-49,52,-140
1,1673,40699,-2063,3306,-1092,-72,134,-224
1,1674,40711,-2109,3166,-1132,-65,202,-260
1,1675,40724,-2197,3100,-1168,-44,194,-179
1,1676,40736,-2231,3102,-1139,-24,205,-203
1,1677,40749,-2283,3045,-1095,9,257,-216
1,1678,40761,-2434,3085,-1117,12,258,-159
1,1679,40774,-2540,3205,-1157,-4,134,-121
1,1680,40787,-2447,3339,-1159,-37,86,-135
1,1681,40799,-2090,3408,-1129,-106,203,-219
1,1682,40812,-2118,3251,-1196,-112,325,-374
1,1683,40824,-2200,3041,-1332,-98,377,-303
1,1684,40837,-2269,2972,-1424,-65,328,-146
1,1685,40849,-2178,3347,-1377,-51,276,19
1,1686,40862,-2066,3520,-1299,-93,337,-25
1,1687,40875,-2067,3439,-1236,-143,528,-137
1,1688,40887,-2282,3298,-1238,-156,545,-153
1,1689,40900,-2617,3027,-1275,-127,340,-86
1,1690,40912,-2546,3030,-1169,-116,193,-40
1,1691,40925,-2394,3045,-1063,-110,157,-117
1,1692,40938,-2286,2987,-1060,-98,130,-131
1,1693,40950,-2152,2888,-1028,-57,120,-48
1,1694,40963,-2145,2966,-1008,-38,158,-39
1,1695,40975,-2212,2998,-1032,2,188,-109
1,1696,40992,-2339,2994,-1079,24,145,-98
1,1697,41004,-2344,2959,-1126,58,73,-90
1,1698,41017,-2324,2950,-1160,73,15,-43
1,1699,41029,-2166,3069,-1166,93,13,-42
1,1700,41042,-2159,3114,-1205,95,50,-73
1,1701,41055,-2191,3116,-1271,94,54,-99
1,1702,41067,-2191,3078,-1327,118,42,-107
1,1703,41080,-2144,3112,-1345,122,51,-14
1,1704,41093,-2198,3154,-1353,106,101,-20
1,1705,41105,-2329,3150,-1406,98,93,-44
1,1706,41118,-2404,3113,-1445,112,56,-56
1,1707,41130,-2422,3017,-1464,126,9,-22
1,1708,41143,-2424,3006,-1464,139,-37,-5
1,1709,41155,-2342,3049,-1425,150,-66,-13
1,1710,41168,-2220,3098,-1376,145,-28,13
1,1711,41181,-2225,3310,-1343,111,5,42
1,1712,41193,-2222,3412,-1316,68,8,58
1,1713,41206,-2193,3457,-1299,0,45,18
1,1714,41219,-2179,3411,-1290,-39,78,-46
1,1715,41231,-2238,3112,-1311,-55,111,-69
1,1716,41244,-2267,3002,-1332,-46,107,-40
1,1717,41256,-2305,2990,-1313,-27,98,2
1,1718,41269,-2327,3044,-1286,-27,95,-2
1,1719,41281,-2388,3002,-1261,-12,90,-62
1,1720,41294,-2415,2984,-1298,-8,43,-34
1,1721,41307,-2368,2977,-1300,14,-42,-29
1,1722,41319,-2225,2986,-1249,15,-14,-17
1,1723,41332,-2174,3099,-1295,14,45,-78
1,1724,41345,-2170,3041,-1336,19,54,-102
1,1725,41357,-2142,2972,-1348,39,79,-112
1,1726,41370,-2126,2933,-1355,56,114,-147
1,1727,41382,-2196,2943,-1411,74,195,-178
1,1728,41395,-2332,2929,-1455,97,206,-185
1,1729,41407,-2418,2981,-1509,119,103,-41
1,1730,41420,-2410,3143,-1486,100,62,69
1,1731,41433,-2271,3532,-1443,30,60,58
1,1732,41445,-2234,3567,-1438,-32,101,24
1,1733,41458,-2251,3507,-1471,-123,118,-60
1,1734,41471,-2239,3331,-1454,-145,143,-103
1,1735,41483,-2306,2940,-1432,-143,138,-51
1,1736,41496,-2311,2850,-1392,-111,87,-32
1,1737,41508,-2247,2795,-1320,-70,111,-43
1,1738,41521,-2262,2766,-1281,-30,139,-104
1,1739,41533,-2353,2746,-1301,24,58,-47
1,1740,41546,-2278,2900,-1265,38,-2,20
1,1741,41559,-2147,3098,-1229,19,16,-37
1,1742,41571,-2029,3186,-1216,-10,99,-107
1,1743,41584,-2052,3147,-1352,-44,194,-198
1,1744,41597,-2134,3145,-1419,-61,218,-190
1,1745,41609,-2295,3459,-1529,-222,190,-16
1,1746,41622,-2450,4397,-1863,-498,-107,-16
1,1747,41634,-1283,6294,-1823,-1058,-238,236
1,1748,41647,-1113,7638,-1969,-1511,-384,1946
1,1749,41659,-201,10304,-2297,-2316,-2341,7618
1,1750,41672,3117,16483,-3110,-4776,-3518,12905
1,1751,41685,14959,24138,-2963,-8602,2619,10974
1,1752,41697,15075,24888,-7995,-12160,12215,5280
1,1753,41710,8281,18517,-18623,-13502,19902,-17007
1,1754,41722,-21,3589,-27167,-13923,14082,-17192
1,1755,41735,-9411,-13277,-16437,-12446,2072,-1130
1,1756,41748,-4404,-7402,-7938,-9688,-1254,-529
1,1757,41760,800,-5712,-1643,-8084,3302,710
1,1758,41773,-1607,-3637,-690,-7654,5480,754
1,1759,41785,-8657,-5631,-3410,-5433,2312,-3004
1,1760,41798,-5900,-8667,-1375,-4235,264,-1213
1,1761,41811,-3388,-7478,215,-2618,25,587
1,1762,41823,-2544,-4933,1066,-1978,680,1102
1,1763,41836,-3892,-381,1071,-1455,482,-41
1,1764,41848,-2846,-1656,1794,-1077,595,-480
1,1765,41861,-3052,-1894,1994,-655,637,446
1,1766,41873,-3915,-626,1814,-293,-19,284
1,1767,41886,-2611,1120,2927,-106,-193,422
1,1768,41898,-2526,2104,3131,-135,47,193
1,1769,41911,-2554,1971,3193,-95,379,-230
1,1770,41924,-2713,1424,3169,-32,425,-22
1,1771,41936,-3339,1835,3124,43,224,221
1,1772,41949,-3262,2104,3159,57,149,118
1,1773,41962,-3302,2319,3089,-57,229,246
1,1774,41974,-3689,2893,2741,-213,-64,190
1,1775,41987,-2827,1631,2867,-242,123,-354
1,1776,41999,-3283,1179,2565,-287,327,-82
1,1777,42012,-3860,1037,2143,-92,-194,-63
1,1778,42024,-3437,804,2121,-4,-383,247
1,1779,42037,-2560,1202,2445,80,-138,147
1,1780,42050,-2811,1322,2311,121,78,-102
1,1781,42062,-3216,1448,2053,115,-179,146
1,1782,42075,-3123,1627,2058,106,-397,248
1,1783,42088,-2211,1723,2539,71,-132,149
1,1784,42100,-2440,1771,2491,55,26,-57
1,1785,42113,-2678,1680,2432,33,-10,-54
1,1786,42125,-2614,1629,2565,61,-64,21
1,1787,42138,-2612,1809,2595,41,-34,4
1,1788,42150,-2582,1698,2623,80,73,-189
1,1789,42163,-2637,1559,2633,62,137,-28
1,1790,42176,-2969,2062,2441,23,-76,-29
1,1791,42188,-2615,1877,2623,-14,-16,-49
1,1792,42201,-2688,1892,2607,-89,187,-43
1,1793,42214,-3059,1943,2410,-80,78,-179
1,1794,42226,-2978,1476,2485,-74,26,29
1,1795,42239,-3057,1567,2437,-54,-32,7
1,1796,42255,-2944,1469,2447,-1,-92,-4
1,1797,42268,-2784,1698,2463,-3,-74,1
1,1798,42280,-2757,1811,2468,-30,-39,-25
1,1799,42293,-2774,1828,2486,-84,5,-50
1,1800,42306,-2778,1708,2516,-97,39,-136
1,1801,42318,-2908,1367,2477,-71,78,-118
1,1802,42331,-3015,1334,2410,-35,3,-61
1,1803,42343,-2975,1377,2415,-12,-116,120
1,1804,42356,-2861,1520,2453,1,-117,54
1,1805,42369,-2766,1513,2455,-9,-41,32
1,1806,42381,-2760,1469,2404,4,-93,-41
1,1807,42394,-2615,1331,2492,26,-5,-36
1,1808,42406,-2656,1361,2476,56,19,-87
1,1809,42419,-2747,1433,2435,82,-40,-4
1,1810,42432,-2693,1485,2505,89,-13,26
1,1811,42444,-2744,1546,2502,99,10,8
1,1812,42457,-2757,1535,2487,102,4,42
1,1813,42469,-2734,1596,2509,105,40,52
1,1814,42482,-2833,1720,2477,80,31,108
1,1815,42495,-2822,1736,2487,78,-4,78
1,1816,42507,-2746,1740,2533,47,24,93
1,1817,42520,-2755,1692,2529,54,57,-112
1,1818,42532,-2837,1627,2515,35,92,-27
1,1819,42545,-2969,1663,2439,61,-5,-79
1,1820,42558,-2924,1617,2475,57,-27,19
1,1821,42570,-2887,1793,2486,40,-39,-3
1,1822,42583,-2837,1751,2467,25,-42,-22
1,1823,42595,-2766,1696,2466,12,-29,33
1,1824,42608,-2760,1775,2490,-16,-10,20
1,1825,42621,-2811,1663,2522,-22,65,-124
1,1826,42633,-2939,1587,2441,-26,-10,-21
1,1827,42646,-2938,1596,2404,-8,-98,0
1,1828,42658,-2652,1698,2542,-28,-7,26
1,1829,42671,-2740,1668,2506,-20,55,-94
1,1830,42684,-2816,1547,2441,-29,27,-7
1,1831,42696,-2840,1551,2404,-18,-18,10
1,1832,42709,-2699,1588,2482,-28,32,19
1,1833,42721,-2735,1566,2467,-20,70,-71
1,1834,42734,-2779,1482,2453,-9,85,7
1,1835,42746,-2860,1541,2409,-6,16,71
1,1836,42759,-2707,1756,2498,-32,20,34
1,1837,42772,-2663,1614,2532,-27,114,-104
1,1838,42784,-2795,1438,2475,-8,144,-73
1,1839,42797,-2957,1410,2375,21,36,13
1,1840,42809,-2812,1711,2461,13,-30,105
1,1841,42822,-2746,1814,2498,-13,20,36
1,1842,42835,-2725,1728,2509,-28,101,-116
1,1843,42847,-2772,1577,2505,-28,139,-79
1,1844,42860,-2989,1569,2427,-10,50,-27
1,1845,42872,-2876,1557,2467,-4,6,-13
1,1846,42885,-2742,1530,2500,15,76,-44
1,1847,42897,-2764,1550,2500,10,121,-48
1,1848,42910,-2898,1658,2409,-1,65,-102
1,1849,42923,-2743,1551,2455,-1,85,-132
1,1850,42935,-2765,1627,2444,-49,158,-26
1,1851,42948,-2904,1754,2378,-58,132,-102
1,1852,42961,-2880,1584,2442,-90,151,-82
1,1853,42973,-2900,1505,2460,-84,173,-121
1,1854,42986,-2921,1464,2434,-80,176,-100
1,1855,42998,-2930,1509,2418,-72,166,-153
1,1856,43011,-2818,1532,2387,-76,187,-193
1,1857,43023,-2771,1526,2420,-71,239,-294
1,1858,43036,-2856,1423,2411,-56,351,-309
1,1859,43049,-3148,1380,2300,-42,237,-229
1,1860,43061,-3129,1284,2356,15,66,-180
1,1861,43074,-3074,1275,2389,36,81,-130
1,1862,43087,-3181,1271,2314,77,-8,-102
1,1863,43099,-3203,1252,2274,97,-125,0
1,1864,43112,-2795,1495,2373,110,-195,20
1,1865,43124,-2643,1573,2465,90,-68,-48
1,1866,43137,-2766,1556,2464,77,110,-163
1,1867,43149,-3029,1520,2402,76,76,-117
1,1868,43162,-3182,1550,2393,100,-79,-57
1,1869,43175,-3045,1618,2439,98,-123,13
1,1870,43187,-2973,1742,2459,70,-107,42
1,1871,43200,-2958,1823,2425,46,-101,17
1,1872,43212,-2892,1633,2454,40,-25,-93
1,1873,43225,-3011,1556,2396,29,-13,-45
1,1874,43238,-3073,1562,2318,53,-139,-30
1,1875,43250,-2937,1551,2339,61,-149,-29
1,1876,43263,-2735,1587,2408,40,-34,-39
1,1877,43275,-2808,1645,2360,23,0,-78
1,1878,43288,-2806,1590,2371,3,58,-114
1,1879,43300,-2865,1548,2374,-14,81,-103
1,1880,43313,-3020,1346,2340,4,44,-73
1,1881,43326,-3033,1345,2326,12,1,-41
1,1882,43338,-2987,1363,2338,25,-19,-96
1,1883,43351,-2952,1355,2348,9,-9,-86
1,1884,43364,-2906,1364,2324,9,-18,-132
1,1885,43376,-2880,1370,2323,-13,-9,-32
1,1886,43389,-2872,1366,2370,-11,35,0
1,1887,43401,-2921,1314,2424,-8,78,52
1,1888,43414,-3187,1315,2343,17,-12,59
1,1889,43426,-3123,1199,2365,58,-68,74
1,1890,43439,-3081,1166,2357,112,-129,192
1,1891,43452,-3079,1255,2367,150,-168,207
1,1892,43464,-2946,1429,2422,194,-176,136
1,1893,43477,-2892,1407,2443,231,-121,29
1,1894,43490,-2942,1299,2422,302,-69,-54
1,1895,43502,-3042,1148,2394,380,-101,-93
1,1896,43519,-3099,843,2367,603,-215,-87
1,1897,43531,-3062,877,2337,714,-266,-97
1,1898,43544,-3061,1807,2234,688,-362,83
1,1899,43557,-2799,1962,2318,678,-403,-241
1,1900,43569,-2469,1738,2443,593,-82,-242
1,1901,43582,-2725,1891,2275,511,-77,-106
1,1902,43594,-2912,2435,2164,341,-390,125
1,1903,43607,-2376,2251,2442,248,-315,83
1,1904,43620,-2280,2021,2567,107,107,231
1,1905,43632,-2796,2083,2364,60,51,133
1,1906,43645,-2894,1613,2316,88,-107,193
1,1907,43657,-2759,1681,2316,102,-166,149
1,1908,43670,-2544,1669,2393,128,-57,87
1,1909,43682,-2517,1866,2397,63,25,88
1,1910,43695,-2551,1690,2359,107,131,-287
1,1911,43708,-2699,1526,2292,65,215,-62
1,1912,43720,-2946,1465,2170,169,99,-129
1,1913,43733,-2959,1250,2177,230,20,14
1,1914,43746,-2912,1172,2279,352,-34,61
1,1915,43758,-2995,926,2315,468,65,-78
1,1916,43771,-3338,552,2217,723,-19,35
1,1917,43783,-3680,376,2034,915,-336,291
1,1918,43796,-3191,325,2043,1257,-706,669
1,1919,43808,-2841,765,2115,1402,-757,826
1,1920,43821,-2666,1253,2164,1535,-621,642
1,1921,43834,-2710,1743,2099,1498,-606,651
1,1922,43846,-2781,2939,1938,1330,-782,635
1,1923,43859,-2441,3737,1944,1042,-903,856
1,1924,43871,-1782,4081,2139,634,-705,515
1,1925,43884,-1142,3680,2462,391,-138,384
1,1926,43896,-2139,2771,2230,151,492,490
1,1927,43909,-2953,2699,1822,97,214,622
1,1928,43922,-2887,2691,1858,32,-348,749
1,1929,43934,-2206,2773,2155,-34,-257,476
1,1930,43947,-1703,2664,2254,-98,224,-94
1,1931,43959,-2037,2571,2091,-124,361,-105
1,1932,43972,-2367,2629,1996,-164,287,23
1,1933,43985,-2460,2532,2037,-138,270,-43
1,1934,43997,-2622,2123,2064,-96,296,20
1,1935,44010,-2791,2078,1967,-22,200,31
1,1936,44022,-2790,2165,1995,24,3,122
1,1937,44035,-2626,2277,2149,32,61,97
1,1938,44048,-2652,2500,2118,19,95,-169
1,1939,44060,-2581,2199,2156,33,115,-232
1,1940,44073,-2588,2010,2153,83,156,-39
1,1941,44086,-2726,2006,2150,157,137,-13
1,1942,44098,-2960,2333,2129,188,30,164
1,1943,44111,-2891,2519,2105,190,-93,140
1,1944,44123,-2644,2494,2175,165,-77,124
1,1945,44136,-2561,2595,2167,95,-63,196
1,1946,44148,-2439,2294,2193,117,4,7
1,1947,44161,-2514,2173,2180,137,81,106
1,1948,44174,-2733,2397,2101,177,-43,177
1,1949,44186,-2709,2536,2134,186,-96,196
1,1950,44199,-2562,2616,2223,187,-44,197
1,1951,44212,-2603,2648,2185,199,-44,98
1,1952,44224,-2565,2607,2169,201,-60,174
1,1953,44237,-2603,2820,2109,136,-147,324
1,1954,44249,-2252,2999,2219,72,-122,92
1,1955,44262,-2167,2733,2259,33,98,-28
1,1956,44274,-2481,2613,2075,20,121,-95
1,1957,44287,-2669,2489,1934,45,-28,-83
1,1958,44300,-2373,2439,2092,65,-27,50
1,1959,44312,-2471,2706,2052,48,4,89
1,1960,44325,-2516,2814,1985,-6,-76,4
1,1961,44337,-2312,2593,2065,16,16,-119
1,1962,44350,-2419,2016,2050,84,219,-113
1,1963,44363,-2779,1744,1962,211,189,-137
1,1964,44375,-3052,1281,1964,556,64,-128
1,1965,44388,-3233,366,1951,1090,36,-215
1,1966,44400,-4054,-3048,1691,2314,6,1031
1,1967,44413,-4942,-3662,812,3325,-653,2573
1,1968,44425,-4881,-3133,-135,4922,-2610,4580
1,1969,44438,-3258,-1876,-530,5787,-3278,4813
1,1970,44451,568,-11,-1079,6732,-2660,3560
1,1971,44463,1260,-162,-2060,7583,-1444,2561
1,1972,44476,1474,-203,-3294,8091,-915,2451
1,1973,44489,1190,2027,-4838,8594,19,1579
1,1974,44501,91,3661,-5164,8469,601,1091
1,1975,44514,-1233,4611,-5249,8112,633,779
1,1976,44526,-2581,6393,-5032,7415,-207,1812
1,1977,44539,-2302,11690,-3002,5628,-2278,3719
1,1978,44551,-115,13722,-1592,4187,-3174,3932
1,1979,44564,2556,14165,-268,1679,-1884,1694
1,1980,44577,4138,12189,209,403,573,-1360
1,1981,44589,445,1729,-2362,55,2836,-3590
1,1982,44602,-2389,-1714,-3810,603,1883,-1511
1,1983,44615,-3217,-817,-4125,1472,-1085,2447
1,1984,44627,-1619,2712,-3090,1590,-1643,2586
1,1985,44640,576,7294,-1026,880,-26,1041
1,1986,44652,-828,7149,-1587,309,557,-357
1,1987,44665,-1728,5457,-2206,-276,-6,-538
1,1988,44678,-1605,4073,-2480,-425,-559,-175
1,1989,44690,82,2813,-1995,-380,-296,-368
1,1990,44703,-237,2318,-2042,-230,214,-546
1,1991,44715,-1217,2195,-2450,52,-53,-65
1,1992,44728,-1628,2659,-2569,144,-575,450
1,1993,44740,-314,4340,-1791,31,-542,384
1,1994,44753,-121,4417,-1686,-115,-70,-93
1,1995,44766,-570,3966,-1930,-257,233,-415
1,1996,44782,-1085,2933,-2174,-211,21,-201
1,1997,44795,-994,2906,-2066,-135,-27,-64
1,1998,44807,-936,3048,-2047,-40,9,-86
1,1999,44820,-924,3082,-2046,35,60,-142
1,2000,44833,-1124,3270,-2094,96,7,33
1,2001,44845,-1090,3615,-2061,91,-129,150
1,2002,44858,-829,3932,-1941,-8,-125,98
1,2003,44871,-601,4075,-1840,-104,45,-80
1,2004,44883,-783,3711,-1990,-194,201,-202
1,2005,44896,-871,3515,-2072,-205,167,-215
1,2006,44908,-840,3239,-2073,-137,206,-280
1,2007,44921,-978,3061,-2092,-94,136,-91
1,2008,44933,-1046,3495,-2048,-38,-96,124
1,2009,44946,-816,3832,-1883,-83,-68,132
1,2010,44959,-717,3867,-1842,-143,184,-275
1,2011,44972,-1217,3190,-2046,-130,208,-188
1,2012,44984,-1323,3258,-2113,-99,-41,31
1,2013,44997,-973,3502,-1941,-112,-145,122
1,2014,45009,-613,3686,-1759,-153,90,-110
1,2015,45022,-980,3123,-1934,-121,313,-377
1,2016,45034,-1332,2914,-2032,-73,163,-163
1,2017,45047,-1330,3099,-1981,-10,-127,117
1,2018,45060,-1058,3406,-1851,-14,-108,88
1,2019,45072,-830,3449,-1795,-25,119,-172
1,2020,45085,-1015,3267,-1952,-20,129,-171
1,2021,45097,-1074,3226,-1993,15,-12,-3
1,2022,45110,-957,3349,-1924,22,-5,45
1,2023,45123,-916,3522,-1915,6,86,-69
1,2024,45135,-988,3421,-1971,1,86,-97
1,2025,45148,-1019,3331,-1996,23,20,-59
1,2026,45160,-1013,3329,-1985,38,-15,5
1,2027,45173,-890,3532,-1948,31,-22,44
1,2028,45186,-848,3601,-1911,16,24,-22
1,2029,45198,-895,3594,-1903,-20,98,-81
1,2030,45211,-1005,3513,-1958,-23,77,-86
1,2031,45224,-1045,3398,-1947,-21,39,-35
1,2032,45236,-1044,3420,-1933,-13,24,-23
1,2033,45249,-1027,3458,-1952,-15,-4,-31
1,2034,45261,-962,3439,-1945,-6,11,-54
1,2035,45274,-989,3466,-1949,-14,11,-8
1,2036,45287,-947,3468,-1923,-14,3,-16
1,2037,45299,-924,3458,-1884,-23,49,-24
1,2038,45312,-973,3467,-1901,-29,41,-19
1,2039,45324,-984,3495,-1873,-49,19,-5
1,2040,45337,-955,3495,-1859,-66,29,-44
1,2041,45350,-942,3396,-1866,-63,71,-120
1,2042,45362,-986,3282,-1910,-52,47,-74
1,2043,45375,-966,3249,-1911,-12,-18,-3
1,2044,45388,-921,3364,-1863,-13,-11,49
1,2045,45400,-911,3446,-1859,-15,40,-71
1,2046,45413,-954,3405,-1838,-22,77,-67
1,2047,45425,-1108,3448,-1920,-32,-14,-78
1,2048,45438,-1012,3404,-1867,-31,-18,-95
1,2049,45450,-1028,3448,-1852,-54,6,-119
1,2050,45463,-1091,3441,-1874,-38,5,-181
1,2051,45476,-1159,3358,-1907,-33,-61,-233
1,2052,45488,-1035,3148,-1885,7,-66,-268
1,2053,45501,-988,3055,-1907,79,-43,-133
1,2054,45514,-1021,3157,-1943,122,-77,-24
1,2055,45526,-867,3619,-1864,111,-67,58
1,2056,45539,-793,3768,-1802,64,36,28
1,2057,45551,-922,3704,-1823,11,209,-182
1,2058,45564,-1151,3491,-1935,2,177,-158
1,2059,45576,-1334,3313,-2026,30,-24,-22
1,2060,45589,-1143,3397,-1966,42,-102,20
1,2061,45602,-967,3466,-1883,33,-12,-24
1,2062,45614,-970,3499,-1883,24,28,-59
1,2063,45627,-1008,3392,-1941,19,14,-87
1,2064,45640,-983,3397,-1939,10,16,-28
1,2065,45652,-974,3439,-1938,9,20,-28
1,2066,45665,-936,3419,-1904,1,62,-30
1,2067,45677,-1093,3400,-1906,-7,89,-38
1,2068,45690,-1167,3373,-1931,-3,59,-57
1,2069,45702,-1183,3328,-1924,8,8,-59
1,2070,45715,-1171,3317,-1935,24,-28,-55
1,2071,45728,-1062,3405,-1926,25,-64,14
1,2072,45740,-1006,3537,-1900,11,-47,31
1,2073,45753,-985,3612,-1893,-29,23,-74
1,2074,45765,-1008,3535,-1915,-42,54,-137
1,2075,45778,-1078,3367,-1998,-35,35,-111
1,2076,45790,-1028,3434,-2006,-29,1,-78
1,2077,45803,-943,3529,-2015,-23,26,-90
1,2078,45816,-893,3622,-2013,-31,49,-76
1,2079,45828,-817,3763,-1931,-70,145,-82
1,2080,45841,-899,3712,-1919,-100,230,-128
1,2081,45853,-1026,3460,-1941,-104,245,-119
1,2082,45866,-1157,3221,-1921,-102,187,-14
1,2083,45879,-1195,3027,-1821,-61,115,-63
1,2084,45891,-1148,2886,-1773,-26,160,-89
1,2085,45904,-1278,2875,-1845,44,138,-8
1,2086,45916,-1403,2963,-1937,81,9,114
1,2087,45929,-1211,3424,-1829,80,-83,160
1,2088,45941,-1136,3626,-1800,41,-34,67
1,2089,45954,-1153,3628,-1861,-17,-16,-100
1,2090,45967,-1113,3469,-1919,-28,-34,-117
1,2091,45979,-990,3155,-1952,6,-7,-58
1,2092,45992,-1037,3145,-1971,50,-8,24
1,2093,46005,-1098,3311,-1975,72,-65,121
1,2094,46017,-1092,3579,-1922,43,-75,98
1,2095,46030,-952,3685,-1835,-17,4,-75
1,2096,46046,-997,3543,-1886,-59,67,-56
1,2097,46059,-1057,3432,-1918,-60,33,8
1,2098,46071,-1042,3428,-1901,-58,58,29
1,2099,46084,-1073,3414,-1930,-46,72,-22
1,2100,46096,-1132,3365,-1935,-41,59,-11
1,2101,46109,-1147,3337,-1934,-31,2,-34
1,2102,46122,-1059,3274,-1920,-23,0,-57
1,2103,46134,-1000,3187,-1921,17,53,-104
1,2104,46147,-1010,3090,-1945,59,64,-68
1,2105,46159,-1036,3106,-1984,124,24,35
1,2106,46172,-975,3207,-1952,155,18,63
1,2107,46184,-938,3340,-1912,150,83,38
1,2108,46197,-1001,3454,-1915,129,107,-22
1,2109,46210,-1087,3458,-1921,75,109,-92
1,2110,46222,-999,3235,-2009,115,71,-216
1,2111,46235,-922,3126,-1944,83,135,11
1,2112,46248,-1108,3391,-1950,106,106,-190
1,2113,46260,-1186,3343,-1954,74,72,-90
1,2114,46273,-1240,3555,-1978,52,-21,-47
1,2115,46285,-1091,3626,-1884,-11,-2,-86
1,2116,46298,-1106,3744,-1810,-102,40,-83
1,2117,46311,-1398,4126,-1899,-262,-107,-110
1,2118,46323,-1273,4306,-1875,-411,-192,-146
1,2119,46336,-1100,4556,-1823,-714,-215,-227
1,2120,46348,-975,4899,-1782,-1002,-202,-248
1,2121,46361,-168,7143,-1817,-1794,-504,-17
1,2122,46374,1010,8536,-1573,-2550,-339,-64
1,2123,46386,2271,9526,-1567,-4056,793,-948
1,2124,46399,3343,9191,-2001,-4869,2103,-2709
1,2125,46411,3584,3865,-3212,-5421,4184,-4005
1,2126,46424,1512,2026,-3611,-5346,4988,-3505
1,2127,46436,-924,1656,-3855,-5143,4560,-1741
1,2128,46449,-2580,2020,-3641,-5061,3699,-721
1,2129,46462,-3047,2427,-2477,-4807,3029,-1522
1,2130,46474,-2844,1804,-2803,-4499,2669,-2674
1,2131,46487,-3310,318,-2023,-3307,1546,-4076
1,2132,46500,-2399,-1177,-1187,-3238,1304,-1157
1,2133,46512,-2742,3634,-433,-3028,757,-250
1,2134,46525,-1939,4241,178,-2708,1031,-1747
1,2135,46537,-1884,3855,439,-2811,1868,-2469
1,2136,46550,-2778,2829,166,-2380,1797,-3199
1,2137,46562,-3463,1187,-237,-1789,711,-1963
1,2138,46575,-3047,2014,356,-1620,280,-672
1,2139,46588,-2552,2896,764,-1384,406,-1061
1,2140,46600,-2129,2674,1009,-1083,847,-1777
1,2141,46613,-2877,2146,576,-900,976,-1410
1,2142,46626,-3176,1814,533,-664,621,-588
1,2143,46638,-3159,1541,664,-471,534,-37
1,2144,46651,-3500,2133,422,-210,185,419
1,2145,46663,-3228,2642,413,-146,-235,634
1,2146,46676,-2510,2971,770,-154,-168,379
1,2147,46688,-2036,3157,900,-213,130,61
1,2148,46701,-2089,3118,778,-224,326,-287
1,2149,46714,-2631,2632,704,-216,421,-362
1,2150,46726,-2956,2657,655,-144,285,-343
1,2151,46739,-3111,2559,636,-59,141,-417
1,2152,46751,-2994,2280,636,90,18,-93
1,2153,46764,-3057,2903,556,88,-206,253
1,2154,46777,-2726,3335,748,48,-230,-53
1,2155,46789,-2298,3239,974,16,92,-330
1,2156,46802,-2950,2823,645,0,164,-246
1,2157,46814,-3033,2826,591,17,-110,-41
1,2158,46827,-2694,2906,824,36,-120,5
1,2159,46839,-2534,3091,896,11,5,-115
1,2160,46852,-2588,2924,745,13,50,-245
1,2161,46865,-2658,2916,730,-17,117,-150
1,2162,46877,-2787,3018,646,-19,57,-260
1,2163,46890,-2729,2914,669,-15,66,-218
1,2164,46902,-2886,2879,674,-32,76,-38
1,2165,46915,-2943,2938,615,-29,-34,-6
1,2166,46928,-2760,2888,663,-33,-108,130
1,2167,46940,-2597,2930,775,-54,-23,133
1,2168,46953,-2781,2859,750,-41,69,0
1,2169,46965,-2903,2798,690,-30,-2,77
1,2170,46978,-2809,2856,673,-14,-147,96
1,2171,46991,-2536,2880,797,-7,-38,3
1,2172,47003,-2650,2980,785,-27,135,-150
1,2173,47016,-2841,2831,717,-12,101,-223
1,2174,47028,-2862,2696,684,14,-33,-19
1,2175,47041,-2794,2814,709,10,-87,101
1,2176,47053,-2617,2960,803,-8,-40,59
1,2177,47066,-2627,2790,820,4,57,0
1,2178,47079,-2826,2739,736,25,40,18
1,2179,47091,-2930,2685,675,75,-48,34
1,2180,47104,-2848,2835,750,85,-93,215
1,2181,47117,-2851,3014,741,86,-109,150
1,2182,47129,-2804,3033,743,58,-104,143
1,2183,47142,-2819,3061,759,28,-97,135
1,2184,47154,-2803,2900,733,50,-131,111
1,2185,47167,-2838,2992,727,24,-157,316
1,2186,47179,-2864,3206,734,-10,-235,310
1,2187,47192,-2725,3161,801,-39,-185,309
1,2188,47205,-2804,3022,711,-63,-188,325
1,2189,47217,-2655,2951,689,-45,-303,276
1,2190,47230,-2286,2942,798,-45,-215,210
1,2191,47243,-2100,3075,910,-71,-8,44
1,2192,47255,-2397,2866,787,-60,149,-200
1,2193,47268,-2517,2730,717,-36,90,-110
1,2194,47280,-2517,2833,758,-40,32,50
1,2195,47293,-2474,3001,799,-44,45,10
1,2196,47309,-2351,2911,817,-55,135,-111
1,2197,47322,-2404,2790,804,-51,252,-124
1,2198,47334,-2565,2775,748,-31,229,-129
1,2199,47347,-2630,2761,775,2,225,-120
1,2200,47360,-2706,2852,750,9,244,-59
1,2201,47372,-2809,2923,720,18,165,-72
1,2202,47385,-2776,2818,727,22,124,2
1,2203,47397,-2400,2750,758,52,132,121
1,2204,47410,-2262,2854,908,67,375,167
1,2205,47422,-2516,3078,805,53,552,-8
1,2206,47435,-2653,2978,630,115,478,-129
1,2207,47448,-2175,3058,722,50,541,-30
1,2208,47460,-1979,3187,789,48,757,-388
1,2209,47473,-2007,3087,728,-3,1070,-463
1,2210,47486,-2697,3134,602,-117,1178,-229
1,2211,47498,-2829,3052,402,-113,1015,-365
1,2212,47511,-2718,2753,435,-39,889,-428
1,2213,47523,-2708,2664,462,-48,856,-294
1,2214,47536,-2732,2742,418,20,825,-411
1,2215,47548,-2861,2787,412,52,872,-489
1,2216,47561,-3139,2775,332,101,798,-546
1,2217,47574,-3406,2738,217,97,626,-309
1,2218,47586,-3651,3134,239,68,293,-124
1,2219,47599,-3469,3092,237,83,119,-322
1,2220,47612,-3303,2843,318,79,129,-296
1,2221,47624,-3445,2734,226,103,9,-221
1,2222,47637,-3382,2841,215,145,-231,-177
1,2223,47649,-3126,2882,379,142,-195,-198
1,2224,47662,-3090,2839,414,144,7,-393
1,2225,47674,-3272,2760,308,164,-30,-433
1,2226,47687,-3313,2434,239,244,-172,-463
1,2227,47700,-3301,2264,279,316,-168,-418
1,2228,47712,-3441,2193,217,453,-253,-469
1,2229,47725,-3482,2050,160,617,-312,-730
1,2230,47737,-3777,1231,297,946,-58,-1450
1,2231,47750,-4734,602,77,1273,0,-1856
1,2232,47763,-6039,261,-247,1879,-519,-2085
1,2233,47775,-7291,329,-654,2358,-1316,-2421
1,2234,47788,-8366,481,-1646,3103,-3066,-2776
1,2235,47800,-8027,293,-1896,3588,-4197,-2849
1,2236,47813,-7281,7,-2099,4198,-5501,-2294
1,2237,47825,-6532,103,-2237,4396,-6117,-1445
1,2238,47838,-4593,2021,-2250,4482,-6653,-794
1,2239,47850,-3605,3644,-1821,4164,-6668,212
1,2240,47863,-2391,5044,-1257,3450,-6569,542
1,2241,47876,-661,5022,-67,3032,-5537,476
1,2242,47888,10635,8501,-1546,1526,-6546,8260
1,2243,47901,22017,11372,6446,-2592,4511,6087
1,2244,47913,-7664,407,-3591,532,2596,3086
1,2245,47926,-9671,7971,-2203,-480,-288,2653
1,2246,47938,-3815,3561,909,187,-672,-3112
1,2247,47951,-3134,377,-223,654,-1273,-3351
1,2248,47964,-1808,674,-974,623,-3373,-174
1,2249,47976,843,3039,-53,-13,-2971,1518
1,2250,47989,2342,6695,3114,-1065,826,-13
1,2251,48002,1738,5878,2619,-975,3197,-3154
1,2252,48014,2,4108,1249,-1749,5551,-4781
1,2253,48027,-2987,254,-412,-1772,4870,-3271
1,2254,48039,-4766,-1107,-447,-1096,2327,41
1,2255,48052,-3527,1090,620,-898,2090,611
1,2256,48065,-3114,2183,693,-947,2413,121
1,2257,48077,-3156,2311,609,-1009,2647,-87
1,2258,48090,-3612,2137,229,-1110,2749,-453
1,2259,48102,-3851,1459,220,-1116,2811,-421
1,2260,48115,-4336,1036,108,-949,2727,-278
1,2261,48128,-4946,847,-35,-778,2396,-155
1,2262,48140,-5083,986,-238,-534,1538,294
1,2263,48153,-4343,1573,-49,-464,1113,595
1,2264,48166,-3657,2342,403,-545,1423,404
1,2265,48178,-3565,2878,542,-669,1870,-160
1,2266,48191,-4680,2264,-112,-824,1931,-437
1,2267,48203,-4681,1797,-509,-802,1397,-319
1,2268,48216,-3868,1519,-259,-718,1084,178
1,2269,48228,-3224,1879,145,-799,1420,302
1,2270,48241,-3513,2054,-92,-728,1803,-507
1,2271,48254,-3883,1667,-326,-776,1819,-318
1,2272,48266,-4105,1612,-562,-681,1296,-17
1,2273,48279,-3788,1722,-537,-656,1043,263
1,2274,48292,-2992,2113,-143,-620,1230,237
1,2275,48304,-3049,2257,-247,-817,1466,365
1,2276,48317,-3347,2010,-404,-742,1605,-101
1,2277,48329,-3688,1616,-520,-689,1530,-58
1,2278,48342,-4111,1305,-772,-530,1039,209
1,2279,48354,-4081,1393,-668,-408,799,396
1,2280,48367,-4036,1578,-798,-240,388,570
1,2281,48380,-3961,1930,-718,-232,139,912
1,2282,48393,-3495,2661,-453,-335,175,563
1,2283,48405,-3560,2270,-435,-284,342,229
1,2284,48418,-3932,2002,-622,-252,194,417
1,2285,48430,-4198,2106,-759,-145,-105,359
1,2286,48443,-3495,2454,-428,-147,-206,371
1,2287,48455,-3325,2638,-337,-158,-22,192
1,2288,48468,-3449,2644,-436,-181,132,-99
1,2289,48481,-3627,2435,-550,-183,61,-83
1,2290,48493,-3522,2147,-632,-148,-119,9
1,2291,48506,-3272,2110,-491,-115,-155,57
1,2292,48518,-3149,2185,-387,-108,-10,21
1,2293,48531,-3155,2231,-444,-51,0,-161
1,2294,48544,-2984,2203,-387,-44,10,9
1,2295,48556,-2949,2374,-388,-57,56,-5
1,2296,48572,-3025,2307,-471,-92,240,-189
1,2297,48585,-3092,2141,-596,-84,233,-250
1,2298,48598,-3055,1957,-605,-101,230,-88
1,2299,48610,-3039,1915,-572,-67,273,36
1,2300,48623,-3236,2194,-484,-53,413,48
1,2301,48636,-3471,2254,-565,-60,475,-110
1,2302,48648,-3590,2049,-648,-33,412,-127
1,2303,48661,-3646,1946,-658,-27,340,84
1,2304,48673,-3714,2400,-633,-59,269,151
1,2305,48686,-3710,2431,-607,-72,259,29
1,2306,48698,-3687,2311,-614,-80,239,30
1,2307,48711,-3559,2118,-624,-147,304,322
1,2308,48723,-3681,2337,-694,-104,176,-38
1,2309,48736,-3491,2134,-619,-97,193,-59
1,2310,48749,-3442,2114,-652,-75,201,34
1,2311,48761,-3480,2272,-679,-138,162,158
1,2312,48774,-3395,2318,-632,-151,154,88
1,2313,48787,-3460,2275,-659,-144,104,-4
1,2314,48799,-3499,2173,-679,-132,-22,-11
1,2315,48812,-3400,2102,-697,-121,-96,77
1,2316,48824,-3120,2343,-634,-149,-106,147
1,2317,48837,-3018,2467,-570,-180,-36,66
1,2318,48849,-3059,2414,-553,-223,199,-178
1,2319,48862,-3254,2180,-668,-203,220,-259
1,2320,48875,-3602,1615,-787,-6,112,-142
1,2321,48887,-3639,1789,-817,55,-102,178
1,2322,48900,-3499,2137,-682,89,-228,296
1,2323,48912,-3306,2450,-551,55,-164,216
1,2324,48925,-3168,2509,-493,40,4,-149
1,2325,48937,-3274,2300,-558,14,121,-220
1,2326,48950,-3485,2155,-651,5,52,-33
1,2327,48963,-3599,2134,-720,28,-104,54
1,2328,48975,-3254,2248,-551,52,-162,125
1,2329,48988,-3209,2369,-498,20,-80,141
1,2330,49001,-3265,2385,-546,23,-46,21
1,2331,49013,-3279,2315,-578,6,-80,137
1,2332,49026,-3251,2415,-588,-44,-170,295
1,2333,49038,-3147,2361,-548,-46,-170,268
1,2334,49051,-3111,2291,-538,-61,-79,261
1,2335,49063,-3194,2222,-614,-25,-104,173
1,2336,49076,-3158,2173,-519,21,-73,135
1,2337,49089,-3190,2255,-532,39,-21,57
1,2338,49101,-3246,2252,-559,75,-9,-20
1,2339,49114,-3285,2239,-588,75,-50,106
1,2340,49126,-3360,2535,-586,30,-50,218
1,2341,49139,-3456,2531,-603,42,-5,4
1,2342,49152,-3692,2273,-647,148,62,-266
1,2343,49164,-4120,1970,-833,246,-34,-246
1,2344,49177,-5917,1431,-1061,562,-311,-486
1,2345,49189,-7406,1071,-1328,787,-738,-638
1,2346,49202,-9393,549,-1471,1380,-1480,-1221
1,2347,49214,-11911,416,-2349,1751,-3277,-1210
1,2348,49227,-11380,-969,-4899,2793,-8146,-850
1,2349,49240,-7333,-373,-3969,3031,-9931,532
1,2350,49252,-4074,1635,-2259,2989,-8867,-921
1,2351,49265,-3078,1898,-972,3182,-6987,-2888
1,2352,49278,-5955,-1541,-2975,3885,-6598,-2750
1,2353,49290,-5514,-1639,-3933,4249,-7922,-621
1,2354,49303,2027,3549,-2000,472,-5071,2421
1,2355,49315,13081,5593,7114,3700,9414,-10743
1,2356,49328,-1899,7238,-1792,188,794,1783
1,2357,49340,-1409,2780,478,-376,-280,3410
1,2358,49353,-2777,1974,-215,-143,-1176,2420
1,2359,49366,-1487,2363,97,57,-1309,1605
1,2360,49378,-5386,2694,-1835,999,-3724,-446
1,2361,49391,-3720,2574,-575,1278,-6621,-1237
1,2362,49404,2721,784,2966,434,-2945,1974
1,2363,49416,3120,3775,3041,-292,-738,2024
1,2364,49429,4446,6402,3241,-1651,5178,-528
1,2365,49441,-553,4010,682,-2054,7845,-2950
1,2366,49454,-5456,783,-1784,-1950,5750,-2180
1,2367,49467,-7000,-202,-2093,-1782,3239,-252
1,2368,49479,-3171,674,30,-1363,2126,463
1,2369,49492,-2236,1061,591,-1250,2870,472
1,2370,49505,-2936,1562,268,-1157,3902,-98
1,2371,49517,-4753,1126,-837,-1010,3337,151
1,2372,49530,-4909,1667,-492,-1014,2824,662
1,2373,49542,-4763,2414,-154,-1042,2682,-104
1,2374,49555,-4587,2180,-201,-962,2645,-805
1,2375,49567,-4920,970,-354,-881,2380,-293
1,2376,49580,-5212,1301,-307,-812,2105,52
1,2377,49593,-5423,1525,-314,-672,1666,-52
1,2378,49605,-5381,1311,-638,-518,1090,97
1,2379,49618,-4153,1637,-271,-403,557,829
1,2380,49631,-3845,2579,173,-458,884,698
1,2381,49643,-4131,2964,-7,-575,1249,-383
1,2382,49656,-4563,2419,-283,-629,1109,-546
1,2383,49668,-4476,1288,-583,-546,513,-86
1,2384,49681,-4051,1355,-384,-443,349,208
1,2385,49693,-3859,1656,-283,-377,402,217
1,2386,49706,-3842,1765,-411,-303,348,52
1,2387,49719,-3553,1641,-456,-228,295,189
1,2388,49731,-3660,2038,-330,-275,349,280
1,2389,49744,-3878,2167,-357,-275,401,-182
1,2390,49756,-4009,1777,-522,-207,266,-251
1,2391,49769,-3816,1316,-578,-116,-55,180
1,2392,49781,-3629,1526,-458,-67,-93,336
1,2393,49794,-3496,1766,-464,22,-97,170
1,2394,49807,-3409,1898,-391,24,-13,62
1,2395,49819,-3469,1852,-461,62,56,-211
1,2396,49835,-3418,1665,-531,124,-47,91
1,2397,49848,-3300,1820,-522,105,-111,350
1,2398,49861,-3289,2344,-185,64,177,232
1,2399,49873,-3729,2357,-380,43,245,10
1,2400,49886,-3944,2139,-587,58,-103,34
1,2401,49899,-3714,2072,-523,21,-231,260
1,2402,49911,-3287,2409,-268,-18,-49,67
1,2403,49924,-3329,2205,-403,-13,21,-10
1,2404,49936,-3437,2135,-491,-53,-80,458
1,2405,49949,-3471,2577,-554,-169,-266,826
1,2406,49961,-3223,4260,-231,-598,-242,1156
1,2407,49974,-3092,5103,-274,-997,-264,1199
1,2408,49987,-2788,5524,-113,-1770,-3,1046
1,2409,49999,-2456,5238,70,-2125,560,419
1,2410,50012,-3484,3085,-470,-2377,1112,-68
1,2411,50025,-4449,2300,-913,-2430,722,539
1,2412,50037,-4586,2157,-919,-2341,-231,1199
1,2413,50050,-3848,2279,-488,-2294,-311,1036
1,2414,50062,-2656,2520,-169,-2249,48,193
1,2415,50075,-2515,1936,-128,-2173,398,-314
1,2416,50087,-2949,1452,-160,-2082,746,-52
1,2417,50100,-3775,1376,-454,-1915,389,-32
1,2418,50113,-3451,707,-130,-1561,32,315
1,2419,50125,-3183,1052,-74,-1331,-53,421
1,2420,50138,-2897,1463,131,-1127,50,198
1,2421,50151,-2721,1507,465,-1004,567,-270
1,2422,50163,-3176,1102,341,-799,773,-542
1,2423,50176,-3779,924,159,-522,531,21
1,2424,50188,-4262,1555,24,-448,45,519
1,2425,50201,-3457,2764,629,-450,-181,365
1,2426,50214,-3203,2585,804,-515,194,112
1,2427,50226,-3587,2177,497,-446,323,-131
1,2428,50239,-3967,1648,278,-279,85,-55
1,2429,50251,-3556,1095,366,57,-241,104
1,2430,50264,-3229,1150,421,276,-215,212
1,2431,50277,-3191,1738,254,427,-323,403
1,2432,50289,-3042,2508,254,399,-319,298
1,2433,50302,-2810,2862,568,241,68,-108
1,2434,50314,-3319,2053,377,275,264,-438
1,2435,50327,-4107,1064,-41,574,-300,152
1,2436,50339,-4444,906,-321,806,-1121,863
1,2437,50352,-2631,2625,440,850,-1379,1211
1,2438,50365,-2151,3288,791,746,-875,806
1,2439,50377,-2438,3352,757,574,-102,-91
1,2440,50390,-3207,2660,379,690,-147,-411
1,2441,50403,-4036,1505,18,879,-764,341
1,2442,50415,-3740,1859,63,1023,-1194,599
1,2443,50428,-3076,2024,365,1257,-1060,229
1,2444,50440,-2973,2264,512,1215,-838,421
1,2445,50453,-3972,3623,226,1065,-1137,170
1,2446,50465,-3867,3453,596,907,-1078,-273
1,2447,50478,-4256,2593,746,899,-737,-1116
1,2448,50491,-5386,1226,530,1135,-993,-1203
1,2449,50503,-6221,-573,-528,1772,-2538,-360
1,2450,50516,-4934,-291,-344,2146,-3277,375
1,2451,50529,-3638,555,13,2547,-3057,159
1,2452,50541,-3242,1431,-26,2599,-2795,44
1,2453,50554,-3338,3100,-163,2430,-2898,4
1,2454,50566,-2994,3879,169,2077,-2864,269
1,2455,50579,-2534,3995,443,1674,-2518,-224
1,2456,50592,-1926,2698,608,1682,-2052,-281
1,2457,50604,-2241,349,345,1934,-1587,846
1,2458,50617,-2707,616,51,2190,-1725,1502
1,2459,50629,-2657,1351,28,2419,-2031,2077
1,2460,50642,-2377,2608,127,2326,-2110,2142
1,2461,50655,-1349,4914,341,1926,-1915,1585
1,2462,50667,3548,4183,-6447,2719,-1460,1240
1,2463,50680,6114,8638,-5894,-6987,-10778,-1981
1,2464,50692,3458,-9860,16814,3143,-4521,-968
1,2465,50705,-7196,11249,-1576,-295,-711,2686
1,2466,50717,-2644,5599,-738,-895,-1718,-470
1,2467,50730,526,2305,508,-83,-723,-129
1,2468,50742,-1028,3707,463,-316,-517,1496
1,2469,50755,5054,7595,2017,-1850,7763,-3257
1,2470,50768,-3017,3342,-2125,-1995,7090,-4113
1,2471,50780,-6694,670,-2274,-1058,1966,88
1,2472,50793,-5690,1504,-620,-571,201,679
1,2473,50805,-2751,2313,1606,-488,859,454
1,2474,50818,-3652,2583,910,-410,744,155
1,2475,50830,-3591,2696,795,-380,33,112
1,2476,50843,-2642,3012,1224,-473,191,-215
1,2477,50856,-1854,2790,1085,-550,766,-636
1,2478,50868,-2029,2738,911,-548,840,-288
1,2479,50881,-1940,3060,906,-559,964,-58
1,2480,50894,-1618,3139,917,-599,1234,133
1,2481,50906,-2097,3968,991,-867,1563,338
1,2482,50919,-2362,4246,961,-1104,1679,0
1,2483,50931,-2342,4023,804,-1409,1763,-458
1,2484,50944,-2147,3700,629,-1553,1819,-495
1,2485,50957,-2125,3503,648,-1785,2085,-349
1,2486,50969,-2536,3260,535,-1837,2216,-480
1,2487,50982,-3056,2916,389,-1845,2001,-322
1,2488,50994,-3406,2895,318,-1874,1685,-84
1,2489,51007,-2992,2530,489,-1811,1550,-489
1,2490,51020,-3183,1852,486,-1694,1628,-488
1,2491,51032,-3708,1448,260,-1335,1170,-63
1,2492,51045,-3870,1395,157,-981,668,120
1,2493,51058,-3099,2369,715,-731,455,422
1,2494,51070,-3083,2996,813,-750,531,410
1,2495,51083,-3067,3082,802,-779,628,-70
1,2496,51099,-3177,2178,707,-676,728,-148
1,2497,51112,-3465,1997,632,-497,471,145
1,2498,51124,-3565,2085,668,-400,260,246
1,2499,51137,-3153,2158,834,-248,165,118
1,2500,51150,-3050,2156,844,-166,157,131
1,2501,51162,-3064,2214,877,-90,179,113
1,2502,51175,-3081,2295,810,-24,96,88
1,2503,51187,-2802,2629,957,-21,85,209
1,2504,51200,-2849,2770,1060,-73,219,67
1,2505,51213,-3073,2527,967,-42,278,-212
1,2506,51225,-3199,2207,675,39,11,8
1,2507,51238,-2558,2521,961,87,-37,355
1,2508,51250,-2750,2846,1105,38,223,172
1,2509,51263,-3221,2671,932,71,225,-199
1,2510,51276,-3393,2335,652,149,-97,19
1,2511,51288,-2562,2753,963,170,-148,418
1,2512,51301,-2740,3219,1075,86,123,270
1,2513,51313,-3138,3180,854,24,57,-39
1,2514,51326,-3123,2768,719,60,-93,64
1,2515,51339,-2760,2791,857,51,-70,248
1,2516,51351,-2838,2888,893,47,-24,182
1,2517,51364,-2940,2903,868,38,-27,73
1,2518,51376,-2977,2889,843,41,-74,-4
1,2519,51389,-2750,2774,816,42,-89,27
1,2520,51402,-2739,2882,809,36,-71,53
1,2521,51414,-2765,2930,833,20,-36,11
1,2522,51427,-2808,2885,859,-2,-17,18
1,2523,51439,-2836,2652,740,32,-90,7
1,2524,51452,-2756,2584,792,63,-106,188
1,2525,51464,-2826,2784,816,61,-114,207
1,2526,51477,-2807,2853,810,76,-106,85
1,2527,51490,-2719,2710,788,89,-37,68
1,2528,51502,-2823,2885,763,69,-84,92
1,2529,51515,-2727,2931,839,61,-54,-93
1,2530,51528,-2605,2790,864,70,24,-54
1,2531,51540,-2943,2928,789,46,-37,151
1,2532,51553,-2883,2963,825,36,-105,70
1,2533,51565,-2686,2765,825,64,-27,-74
1,2534,51578,-2677,2564,802,90,28,49
1,2535,51590,-3075,2832,724,104,-114,119
1,2536,51603,-2854,2837,812,121,-186,13
1,2537,51616,-2659,2809,904,106,-20,-27
1,2538,51628,-2826,2855,805,103,-57,21
1,2539,51641,-2770,2932,773,97,-256,219
1,2540,51654,-2556,3023,930,75,-160,212
1,2541,51666,-2675,2963,944,56,-4,53
1,2542,51679,-2906,2737,793,91,-116,124
1,2543,51691,-2678,2805,838,126,-238,255
1,2544,51704,-2521,2932,932,123,-149,154
1,2545,51716,-2564,2892,925,117,10,-22
1,2546,51729,-2779,2768,822,139,-40,-39
1,2547,51742,-2876,2728,788,160,-192,100
1,2548,51754,-2755,2764,848,169,-188,69
1,2549,51767,-2762,2683,841,193,-73,-54
1,2550,51779,-2977,2522,803,233,-79,-93
1,2551,51792,-3282,2222,699,346,-268,-5
1,2552,51805,-3310,2229,743,422,-371,50
1,2553,51817,-3332,2263,773,522,-478,-5
1,2554,51830,-3334,2173,784,611,-514,-84
1,2555,51842,-3669,1910,751,751,-597,-114
1,2556,51855,-3899,1904,658,856,-796,-130
1,2557,51867,-3991,1926,667,992,-1003,-286
1,2558,51880,-4170,2000,675,1039,-1123,-428
1,2559,51892,-4710,1646,656,1211,-1314,-832
1,2560,51905,-5023,1208,423,1388,-1615,-816
1,2561,51918,-5003,758,236,1828,-2222,-503
1,2562,51930,-4648,541,97,2135,-2568,-154
1,2563,51943,-3676,465,-139,2671,-2828,203
1,2564,51955,-3624,1031,-304,2925,-2894,720
1,2565,51968,-3828,2623,-532,2911,-3739,1589
1,2566,51981,7075,8077,-8326,4315,-5307,196
1,2567,51993,9056,13135,-12197,-10678,-21062,-4471
1,2568,52006,1008,-6587,8353,163,-3280,-878
1,2569,52018,-1262,3198,6526,846,-2497,346
1,2570,52031,-701,2391,2090,1223,-1071,313
1,2571,52044,-910,2769,1759,1321,651,238
1,2572,52056,-753,3171,976,1436,1538,2190
1,2573,52069,627,3841,969,37,2259,7717
1,2574,52082,732,13036,-475,-1153,6787,-2140
1,2575,52094,-3882,3897,-684,-1814,4789,-4252
1,2576,52107,-5058,-171,-205,-1056,1405,1533
1,2577,52119,-3979,4328,281,-921,355,-115
1,2578,52132,-995,2890,1273,-1106,2331,63
1,2579,52144,-2442,2645,420,-1053,1891,9
1,2580,52157,-2026,3196,1158,-1271,1917,148
1,2581,52170,-1788,4308,1578,-1695,2327,-516
1,2582,52182,-2265,4872,1138,-2407,2310,-926
1,2583,52195,-1734,4549,1294,-2888,2570,-1404
1,2584,52208,-1897,2874,976,-3088,3293,-1704
1,2585,52220,-3272,927,268,-2725,2880,-1144
1,2586,52233,-4403,244,288,-2043,1618,-244
1,2587,52245,-4046,972,751,-1732,1276,-132
1,2588,52258,-3865,1694,935,-1566,1108,-734
1,2589,52270,-3738,2227,1001,-1627,972,-1161
1,2590,52283,-2508,2108,1158,-1740,1333,-1886
1,2591,52296,-2880,1331,996,-1667,1745,-1773
1,2592,52308,-3942,832,689,-1295,1432,-931
1,2593,52321,-4714,962,662,-1056,807,-320
1,2594,52334,-4213,2035,1138,-932,243,-147
1,2595,52346,-3661,1998,1159,-937,212,-308
1,2596,52363,-3372,1660,1191,-874,485,-552
1,2597,52375,-4006,1448,1067,-763,470,-812
1,2598,52388,-3826,1103,934,-589,216,-819
1,2599,52401,-3454,1140,1054,-355,99,-351
1,2600,52413,-3521,2060,1327,-367,138,-344
1,2601,52426,-3603,1704,1231,-323,110,-359
1,2602,52438,-3783,1582,1151,-218,-226,-23
1,2603,52451,-3637,1819,1276,-203,-313,-25
1,2604,52464,-3408,1684,1417,-152,-209,-126
1,2605,52476,-3600,1608,1321,-101,-292,-128
1,2606,52489,-3358,1618,1235,9,-489,-108
1,2607,52502,-2866,1664,1332,54,-378,5
1,2608,52514,-2726,2067,1421,44,-113,71
1,2609,52527,-2952,2123,1468,2,19,50
1,2610,52540,-3282,1953,1486,-5,69,41
1,2611,52552,-3629,1735,1380,40,-121,150
1,2612,52565,-3461,1993,1467,72,-348,333
1,2613,52577,-3268,2257,1583,18,-324,207
1,2614,52590,-3179,2151,1563,-47,-197,-17
1,2615,52603,-3243,1902,1506,-48,-161,-11
1,2616,52615,-3522,1815,1490,-27,-203,-63
1,2617,52628,-3495,1731,1418,27,-280,-43
1,2618,52640,-3341,1801,1438,67,-290,60
1,2619,52653,-3276,1916,1552,32,-117,61
1,2620,52666,-4049,1783,1368,-59,-227,157
1,2621,52678,-4189,1758,1419,-16,-398,294
1,2622,52691,-4264,1787,1438,-17,-687,444
1,2623,52703,-4214,1737,1423,18,-893,476
1,2624,52716,-4048,1734,1631,26,-897,447
1,2625,52728,-4303,1841,1678,11,-917,207
1,2626,52741,-4545,1820,1844,-55,-841,-457
1,2627,52753,-5127,1715,1929,-85,-1043,-924
1,2628,52766,-5743,1144,1595,84,-1692,-1537
1,2629,52779,-5472,950,1474,309,-2293,-1744
1,2630,52791,-4903,1132,1640,477,-2606,-2049
1,2631,52804,-4739,1577,1835,499,-2576,-2884
1,2632,52817,-4865,1496,1723,466,-2413,-4896
1,2633,52829,-4889,495,1322,901,-2536,-6270
1,2634,52842,-4582,-24,781,1467,-2933,-6738
1,2635,52854,-3922,195,983,2132,-2753,-7409
1,2636,52867,-4574,44,-74,2594,-2624,-6313
1,2637,52879,-4131,1015,-39,2926,-3629,-5242
1,2638,52892,-2089,1768,558,3160,-4083,-3431
1,2639,52904,-478,2524,1211,3003,-3823,-2491
1,2640,52917,1892,3356,2639,2342,-2428,-877
1,2641,52930,1631,3867,2941,1727,-1199,-555
1,2642,52942,569,3521,2949,1095,212,-1326
1,2643,52955,-817,2303,2747,925,562,-1391
1,2644,52968,-2407,647,2112,1022,154,-933
1,2645,52980,-2047,503,2205,1145,40,-489
1,2646,52993,-1827,836,2293,1226,227,-150
1,2647,53005,-1926,1200,2515,1153,500,-113
1,2648,53018,-2640,1548,2563,960,645,-546
1,2649,53030,-2669,1043,2580,880,744,-678
1,2650,53043,-2746,702,2477,860,800,-713
1,2651,53056,-2665,465,2406,905,841,-740
1,2652,53068,-2335,211,2275,1004,959,-647
1,2653,53081,-1867,268,2123,1090,985,-504
1,2654,53094,-894,498,2107,1139,1303,-50
1,2655,53106,160,850,2118,1083,1745,514
1,2656,53119,2613,1989,1969,1090,2718,1638
1,2657,53131,2866,2957,2111,741,4446,2963
1,2658,53144,1133,3945,1069,315,6164,3799
1,2659,53156,-1144,4146,-36,73,6382,4041
1,2660,53169,-4476,4682,-63,-474,6930,3216
1,2661,53182,-6596,4371,-65,-840,6987,1258
1,2662,53194,-8378,3830,-742,-1291,5960,-453
1,2663,53207,-23245,475,-10908,-4269,-29857,15065
1,2664,53220,21667,-2371,12555,-983,-11356,7650
1,2665,53232,-1727,3470,7134,-456,-4918,3963
1,2666,53245,-1278,2969,3856,869,-901,-568
1,2667,53257,3957,1143,4371,1523,2944,-1703
1,2668,53270,3118,1711,4839,1176,10242,-1437
1,2669,53282,-2630,3500,2665,782,15304,2584
1,2670,53295,-10508,15143,-3664,-1589,5512,-12801
1,2671,53308,-6877,3631,-582,-2822,3293,-6257
1,2672,53320,-7076,-1369,-170,-1305,116,1290
1,2673,53333,-5551,1601,63,-369,-2243,-1401
1,2674,53346,-1897,-398,1541,-248,-1562,445
1,2675,53358,-1704,1134,1468,-122,-1180,-94
1,2676,53371,-2513,2034,1462,-275,-874,-8
1,2677,53383,-2489,2578,1594,-529,-980,315
1,2678,53396,-2044,2823,1899,-930,-481,106
1,2679,53409,-2114,2718,1852,-1193,-237,100
1,2680,53421,-1915,2600,1513,-1537,-278,566
1,2681,53434,-1377,2974,1717,-2000,321,668
1,2682,53446,-1228,3144,1831,-2313,1056,153
1,2683,53459,-2765,1526,1131,-2465,1532,64
1,2684,53472,-3327,1193,930,-2454,1280,395
1,2685,53484,-3383,1606,1110,-2523,877,1147
1,2686,53497,-3127,2440,1240,-2712,825,1205
1,2687,53509,-2224,2263,1367,-2996,1465,1018
1,2688,53522,-2829,1594,1349,-3098,2154,845
1,2689,53535,-4169,850,993,-3029,2297,364
1,2690,53547,-5220,-230,737,-2706,1792,193
1,2691,53560,-5416,-1448,754,-1976,705,577
1,2692,53573,-4949,-1221,1027,-1479,236,783
1,2693,53585,-4619,-662,1305,-1001,0,1090
1,2694,53598,-4497,166,1399,-854,-94,896
1,2695,53610,-4214,351,1600,-709,38,625
1,2696,53627,-4439,320,1461,-549,-34,507
1,2697,53639,-4506,258,1381,-409,-194,525
1,2698,53652,-4159,441,1564,-252,-225,558
1,2699,53664,-4139,572,1579,-150,-253,340
1,2700,53677,-4047,530,1550,-39,-354,271
1,2701,53690,-3876,523,1604,50,-353,199
1,2702,53702,-3568,732,1533,170,-388,127
1,2703,53715,-3437,1046,1551,216,-434,204
1,2704,53727,-3129,1388,1584,179,-401,138
1,2705,53740,-2734,1482,1746,112,-113,98
1,2706,53752,-3096,1342,1672,71,160,-169
1,2707,53765,-3361,1101,1622,82,117,37
1,2708,53778,-3419,1157,1695,124,-8,104
1,2709,53790,-3317,1154,1719,178,-22,86
1,2710,53803,-3307,1222,1706,242,-113,171
1,2711,53815,-3130,1391,1801,227,-80,117
1,2712,53828,-3040,1444,1850,172,146,-91
1,2713,53840,-3164,1389,1787,149,220,-182
1,2714,53853,-3491,1274,1822,140,302,-146
1,2715,53866,-3690,1317,1781,150,240,-115
1,2716,53878,-3742,1296,1831,161,141,10
1,2717,53891,-3784,1394,1904,140,92,27
1,2718,53903,-3758,1282,1854,126,-16,33
1,2719,53916,-3707,1181,1875,136,-31,113
1,2720,53929,-3764,1291,1828,129,-115,84
1,2721,53941,-3687,1340,1824,121,-143,48
1,2722,53954,-3515,1452,1848,72,-124,-16
1,2723,53966,-3433,1479,1819,41,-108,-16
1,2724,53979,-3378,1454,1811,6,-63,-30
1,2725,53992,-3375,1383,1780,1,-45,11
1,2726,54004,-3406,1355,1705,-20,-95,101
1,2727,54017,-3318,1320,1711,-33,-90,94
1,2728,54029,-3271,1269,1718,-30,-21,66
1,2729,54042,-3311,1290,1704,-43,13,-5
1,2730,54055,-3359,1184,1674,-37,72,-59
1,2731,54067,-3439,1147,1657,-8,81,-51
1,2732,54080,-3510,1173,1649,23,29,31
1,2733,54092,-3550,1312,1636,19,-45,50
1,2734,54105,-3363,1332,1720,-7,25,-10
1,2735,54118,-3442,1261,1690,-11,81,-62
1,2736,54130,-3527,1215,1649,5,47,-56
1,2737,54143,-3540,1222,1674,10,37,-23
1,2738,54155,-3541,1278,1706,26,19,-11
1,2739,54168,-3520,1258,1715,36,21,-7
