event_id,seq,ts_us,ax,ay,az,gx,gy,gz
2,0,64744384,95,-3331,-2389,20,-18,-13
2,1,64749420,89,-3340,-2364,21,-10,-12
2,2,64754394,89,-3340,-2364,20,-1,-15
2,3,64759399,83,-3339,-2376,22,-2,-13
2,4,64764434,83,-3339,-2376,20,-2,-14
2,5,64769409,70,-3338,-2351,21,-7,-12
2,6,64774383,70,-3338,-2351,26,-15,-15
2,7,64779418,72,-3351,-2369,23,-21,-15
2,8,64784393,72,-3351,-2369,21,-24,-15
2,9,64789428,97,-3368,-2408,22,-22,-16
2,10,64794494,97,-3368,-2408,21,-14,-18
2,11,64799407,118,-3338,-2380,20,-6,-18
2,12,64804382,118,-3338,-2380,23,-4,-18
2,13,64809417,68,-3334,-2376,23,-10,-18
2,14,64814392,68,-3334,-2376,23,-18,-15
2,15,64819396,77,-3337,-2352,26,-27,-19
2,16,64824432,77,-3337,-2352,29,-39,-17
2,17,64829406,66,-3328,-2376,32,-54,-13
2,18,64834381,66,-3328,-2376,36,-70,-13
2,19,64839416,59,-3310,-2365,40,-83,-10
2,20,64844390,59,-3310,-2365,43,-91,-13
2,21,64849395,51,-3312,-2375,43,-94,-12
2,22,64854431,51,-3312,-2375,38,-85,-14
2,23,64859405,86,-3344,-2407,29,-62,-17
2,24,64864410,86,-3344,-2407,20,-26,-18
2,25,64869415,116,-3336,-2402,12,11,-17
2,26,64874389,116,-3336,-2402,8,36,-20
2,27,64879394,55,-3323,-2355,3,46,-17
2,28,64884429,55,-3323,-2355,3,44,-17
2,29,64889404,23,-3337,-2306,5,36,-18
2,30,64894409,23,-3337,-2306,6,27,-15
2,31,64899414,55,-3342,-2343,6,17,-16
2,32,64904388,55,-3342,-2343,7,10,-11
2,33,64909393,87,-3351,-2361,7,4,-13
2,34,64914428,87,-3351,-2361,9,-1,-13
2,35,64919403,70,-3347,-2366,11,-6,-12
2,36,64924407,70,-3347,-2366,10,-12,-13
2,37,64929412,84,-3345,-2373,7,-10,-12
2,38,64934387,84,-3345,-2373,7,-9,-14
2,39,64939392,97,-3348,-2376,7,-5,-13
2,40,64944427,97,-3348,-2376,6,-7,-10
2,41,64949401,72,-3347,-2356,7,-14,-10
2,42,64954406,72,-3347,-2356,9,-17,-11
2,43,64959411,86,-3344,-2336,8,-18,-12
2,44,64964385,86,-3344,-2336,7,-17,-12
2,45,64969390,106,-3340,-2372,5,-5,-10
2,46,64974426,106,-3340,-2372,0,4,-11
2,47,64979400,103,-3345,-2391,-3,9,-14
2,48,64984405,103,-3345,-2391,-6,18,-13
2,49,64989440,83,-3354,-2356,-8,25,-11
2,50,64994476,83,-3354,-2356,-10,30,-14
2,51,64999450,86,-3354,-2370,-14,36,-12
2,52,65004425,86,-3354,-2370,-14,34,-12
2,53,65009399,89,-3353,-2361,-13,32,-10
2,54,65014404,89,-3353,-2361,-14,24,-13
2,55,65019439,55,-3355,-2355,-8,9,-9
2,56,65024383,55,-3355,-2355,-7,-6,-8
2,57,65029388,54,-3344,-2358,-6,-21,-11
2,58,65034423,54,-3344,-2358,0,-38,-8
2,59,65039398,81,-3337,-2378,1,-47,-8
2,60,65044403,81,-3337,-2378,2,-54,-7
2,61,65049438,80,-3337,-2381,4,-58,-4
2,62,65054382,80,-3337,-2381,4,-61,-7
2,63,65059387,72,-3333,-2373,2,-61,-7
2,64,65064422,72,-3333,-2373,0,-58,-9
2,65,65069396,87,-3333,-2365,-5,-48,-10
2,66,65074401,87,-3333,-2365,-8,-28,-10
2,67,65079437,104,-3341,-2360,-12,-9,-10
2,68,65084381,104,-3341,-2360,-18,11,-7
2,69,65089385,80,-3345,-2380,-22,26,-8
2,70,65094390,80,-3345,-2380,-23,32,-10
2,71,65099395,55,-3352,-2357,-25,33,-10
2,72,65104431,55,-3352,-2357,-25,32,-8
2,73,65109497,29,-3368,-2344,-22,24,-6
2,74,65114410,29,-3368,-2344,-21,18,-7
2,75,65119384,56,-3370,-2355,-24,17,-9
2,76,65124420,56,-3370,-2355,-22,20,-8
2,77,65129394,62,-3357,-2385,-23,18,-8
2,78,65134399,62,-3357,-2385,-20,13,-8
2,79,65139434,48,-3328,-2387,-17,9,-7
2,80,65144409,48,-3328,-2387,-16,-4,-5
2,81,65149383,59,-3328,-2367,-13,-15,-5
2,82,65154418,59,-3328,-2367,-12,-19,-3
2,83,65159393,81,-3359,-2386,-13,-19,-4
2,84,65164398,81,-3359,-2386,-13,-13,-1
2,85,65169433,112,-3344,-2409,-18,-5,-3
2,86,65174407,112,-3344,-2409,-20,5,-5
2,87,65179382,100,-3305,-2383,-20,18,-5
2,88,65184417,100,-3305,-2383,-21,29,-5
2,89,65189392,89,-3285,-2374,-26,32,-4
2,90,65194396,89,-3285,-2374,-24,33,-1
2,91,65199432,96,-3330,-2363,-23,30,-2
2,92,65204406,96,-3330,-2363,-22,22,-2
2,93,65209381,108,-3367,-2358,-20,14,-3
2,94,65214416,108,-3367,-2358,-17,1,-1
2,95,65219390,103,-3365,-2369,-16,-8,-2
2,96,65224395,103,-3365,-2369,-11,-21,0
2,97,65229431,77,-3347,-2355,-8,-35,0
2,98,65234405,77,-3347,-2355,-7,-43,-2
2,99,65239410,67,-3337,-2356,-6,-46,-1
2,100,65244415,67,-3337,-2356,-6,-42,-1
2,101,65249389,98,-3357,-2398,-7,-36,2
2,102,65254394,98,-3357,-2398,-9,-28,0
2,103,65259429,90,-3362,-2394,-11,-21,-4
2,104,65264404,90,-3362,-2394,-11,-17,-3
2,105,65269409,43,-3328,-2358,-9,-19,1
2,106,65274414,43,-3328,-2358,-8,-26,2
2,107,65279388,18,-3305,-2361,-2,-32,0
2,108,65284393,18,-3305,-2361,-1,-42,2
2,109,65289428,34,-3313,-2342,-2,-45,2
2,110,65294403,34,-3313,-2342,-10,-32,0
2,111,65299407,118,-3327,-2358,-16,0,2
2,112,65304443,118,-3327,-2358,-21,40,0
2,113,65309478,157,-3330,-2436,-27,64,-4
2,114,65314453,157,-3330,-2436,-33,74,-7
2,115,65319427,73,-3331,-2325,-29,65,-3
2,116,65324401,73,-3331,-2325,-21,43,-2
2,117,65329406,5,-3344,-2309,-16,19,4
2,118,65334411,5,-3344,-2309,-12,-6,4
2,119,65339385,58,-3334,-2397,-7,-22,2
2,120,65344390,58,-3334,-2397,-6,-25,3
2,121,65349426,72,-3321,-2398,-3,-24,3
2,122,65354400,72,-3321,-2398,0,-23,3
2,123,65359405,55,-3332,-2383,2,-24,3
2,124,65364440,55,-3332,-2383,2,-24,1
2,125,65369384,102,-3373,-2355,0,-29,2
2,126,65374389,102,-3373,-2355,-2,-33,-1
2,127,65379425,124,-3402,-2352,-2,-28,-2
2,128,65384399,124,-3402,-2352,-1,-16,-2
2,129,65389404,157,-3339,-2360,-4,-6,-4
2,130,65394439,157,-3339,-2360,-7,-3,-2
2,131,65399383,91,-3319,-2353,-8,-5,0
2,132,65404388,91,-3319,-2353,-6,-11,0
2,133,65409393,49,-3333,-2333,-3,-17,-1
2,134,65414398,49,-3333,-2333,1,-21,-6
2,135,65419433,85,-3333,-2386,2,-23,-3
2,136,65424499,85,-3333,-2386,-3,-20,0
2,137,65429382,95,-3322,-2389,-2,-22,-4
2,138,65434387,95,-3322,-2389,-2,-21,-5
2,139,65439422,27,-3328,-2369,0,-21,-3
2,140,65444396,27,-3328,-2369,3,-29,-1
2,141,65449401,27,-3323,-2396,2,-40,-3
2,142,65454437,54,-3332,-2386,4,-36,-4
2,143,65459381,54,-3332,-2386,3,-24,1
2,144,65464385,61,-3319,-2408,1,-6,-1
2,145,65469421,61,-3319,-2408,-5,8,0
2,146,65474395,49,-3313,-2381,-8,22,2
2,147,65479400,49,-3313,-2381,-9,32,3
2,148,65484436,20,-3318,-2351,-13,42,2
2,149,65489410,20,-3318,-2351,-16,51,1
2,150,65494384,57,-3332,-2375,-19,58,0
2,151,65499420,57,-3332,-2375,-19,65,-2
2,152,65504394,75,-3327,-2397,-20,71,-1
2,153,65509399,75,-3327,-2397,-20,73,-1
2,154,65514434,67,-3316,-2381,-19,72,2
2,155,65519409,67,-3316,-2381,-15,66,0
2,156,65524383,80,-3323,-2366,-14,55,1
2,157,65529418,80,-3323,-2366,-9,39,2
2,158,65534393,87,-3337,-2367,-5,23,5
2,159,65539398,87,-3337,-2367,-4,12,8
2,160,65544433,105,-3351,-2355,-3,5,4
2,161,65549407,105,-3351,-2355,0,-1,3
2,162,65554382,122,-3359,-2391,0,-2,2
2,163,65559417,122,-3359,-2391,-1,1,-2
2,164,65564392,116,-3362,-2390,1,1,-3
2,165,65569396,116,-3362,-2390,0,7,-3
2,166,65574432,96,-3340,-2361,1,5,-4
2,167,65579406,96,-3340,-2361,1,3,-4
2,168,65584381,72,-3337,-2370,2,-1,-3
2,169,65589416,72,-3337,-2370,1,-1,-3
2,170,65594390,83,-3333,-2377,-1,1,-2
2,171,65599395,83,-3333,-2377,0,7,0
2,172,65604431,76,-3312,-2402,1,10,0
2,173,65609405,76,-3312,-2402,-1,11,-1
2,174,65614410,63,-3308,-2389,-2,11,-1
2,175,65619445,63,-3308,-2389,-1,9,-1
2,176,65624481,65,-3309,-2373,1,9,0
2,177,65629455,65,-3309,-2373,0,6,1
2,178,65634429,71,-3329,-2383,2,5,2
2,179,65639404,71,-3329,-2383,2,3,-1
2,180,65644409,81,-3331,-2374,6,-2,0
2,181,65649414,81,-3331,-2374,9,-8,2
2,182,65654388,81,-3346,-2383,8,-16,3
2,183,65659393,81,-3346,-2383,10,-23,2
2,184,65664428,89,-3340,-2386,11,-24,3
2,185,65669403,89,-3340,-2386,14,-25,4
2,186,65674407,73,-3328,-2392,15,-26,1
2,187,65679382,73,-3328,-2392,16,-29,3
2,188,65684387,69,-3342,-2359,14,-28,0
2,189,65689392,69,-3342,-2359,11,-21,-1
2,190,65694396,71,-3346,-2378,9,-5,3
2,191,65699401,71,-3346,-2378,6,10,1
2,192,65704406,76,-3312,-2403,5,26,-4
2,193,65709411,76,-3312,-2403,2,36,-1
2,194,65714447,56,-3315,-2375,-2,45,-1
2,195,65719390,56,-3315,-2375,-1,51,-1
2,196,65724395,57,-3295,-2369,1,55,-1
2,197,65729400,57,-3295,-2369,0,51,0
2,198,65734436,63,-3263,-2360,-1,50,4
2,199,65739501,63,-3263,-2360,-2,48,2
2,200,65744384,46,-3251,-2332,3,47,5
2,201,65749389,46,-3251,-2332,3,46,6
2,202,65754425,40,-3291,-2347,3,46,6
2,203,65759399,40,-3291,-2347,2,47,5
2,204,65764404,56,-3317,-2382,4,50,5
2,205,65769409,56,-3317,-2382,3,52,3
2,206,65774383,53,-3330,-2355,3,56,2
2,207,65779388,53,-3330,-2355,2,60,1
2,208,65784393,73,-3368,-2338,1,62,-1
2,209,65789398,73,-3368,-2338,-2,73,-2
2,210,65794403,135,-3390,-2358,-4,85,-4
2,211,65799438,135,-3390,-2358,-7,98,-6
2,212,65804382,162,-3389,-2342,-7,97,-6
2,213,65809387,162,-3389,-2342,-2,81,-13
2,214,65814392,113,-3402,-2309,3,59,-16
2,215,65819396,113,-3402,-2309,9,37,-18
2,216,65824401,124,-3390,-2320,16,9,-20
2,217,65829437,124,-3390,-2320,23,-12,-19
2,218,65834381,147,-3368,-2349,24,-27,-24
2,219,65839385,147,-3368,-2349,28,-36,-25
2,220,65844421,157,-3329,-2345,27,-41,-27
2,221,65849395,157,-3329,-2345,31,-43,-29
2,222,65854400,115,-3315,-2364,31,-52,-30
2,223,65859405,115,-3315,-2364,30,-58,-32
2,224,65864410,102,-3309,-2340,30,-57,-31
2,225,65869384,102,-3309,-2340,32,-54,-30
2,226,65874389,78,-3314,-2379,31,-54,-31
2,227,65879394,78,-3314,-2379,28,-51,-30
2,228,65884399,70,-3329,-2377,26,-44,-32
2,229,65889434,70,-3329,-2377,26,-31,-32
2,230,65894409,64,-3337,-2401,22,-19,-34
2,231,65899383,64,-3337,-2401,17,-3,-36
2,232,65904388,67,-3333,-2389,11,14,-36
2,233,65909393,67,-3333,-2389,9,29,-38
2,234,65914398,64,-3328,-2363,8,37,-37
2,235,65919403,64,-3328,-2363,6,38,-36
2,236,65924407,57,-3346,-2333,5,36,-37
2,237,65929382,57,-3346,-2333,4,31,-37
2,238,65934448,65,-3377,-2329,4,28,-36
2,239,65939483,65,-3377,-2329,6,23,-37
2,240,65944458,78,-3398,-2370,5,22,-37
2,241,65949401,78,-3398,-2370,1,27,-40
2,242,65954406,117,-3396,-2401,-5,32,-42
2,243,65959381,117,-3396,-2401,-2,40,-41
2,244,65964385,119,-3379,-2407,-2,42,-42
2,245,65969390,119,-3379,-2407,-1,41,-41
2,246,65974395,114,-3360,-2390,-3,36,-42
2,247,65979431,114,-3360,-2390,0,28,-42
2,248,65984405,116,-3342,-2396,3,19,-42
2,249,65989410,116,-3342,-2396,4,13,-40
2,250,65994384,126,-3331,-2417,3,7,-40
2,251,65999389,126,-3331,-2417,3,1,-37
2,252,66004394,148,-3332,-2417,3,-2,-39
2,253,66009399,148,-3332,-2417,4,0,-37
2,254,66014404,125,-3354,-2417,4,-6,-37
2,255,66019409,125,-3354,-2417,7,-12,-37
2,256,66024414,92,-3375,-2417,10,-18,-35
2,257,66029449,92,-3375,-2417,8,-21,-42
2,258,66034393,130,-3362,-2421,6,-27,-47
2,259,66039398,130,-3362,-2421,5,-25,-34
2,260,66044403,113,-3384,-2407,4,-24,-32
2,261,66049438,113,-3384,-2407,6,-26,-35
2,262,66054382,131,-3364,-2413,4,-18,-35
2,263,66059448,131,-3364,-2413,-1,-17,-33
2,264,66064392,100,-3355,-2398,-2,-17,-32
2,265,66069427,100,-3355,-2398,-1,-17,-31
2,266,66074401,109,-3340,-2397,0,-20,-28
2,267,66079406,109,-3340,-2397,-1,-26,-27
2,268,66084381,82,-3345,-2407,-2,-31,-26
2,269,66089385,82,-3345,-2407,-2,-28,-27
2,270,66094390,73,-3340,-2395,-5,-21,-28
2,271,66099395,73,-3340,-2395,-8,-16,-31
2,272,66104400,90,-3333,-2400,-14,-17,-34
2,273,66109405,90,-3333,-2400,-16,-14,-32
2,274,66114440,109,-3345,-2394,-12,-10,-27
2,275,66119384,109,-3345,-2394,-11,-13,-22
2,276,66124389,92,-3349,-2400,-12,-16,-18
2,277,66129394,92,-3349,-2400,-16,-14,-17
2,278,66134399,137,-3323,-2411,-18,-6,-17
2,279,66139404,137,-3323,-2411,-24,1,-15
2,280,66144409,114,-3320,-2401,-26,11,-10
2,281,66149383,114,-3320,-2401,-27,12,-7
2,282,66154388,115,-3303,-2379,-25,9,-8
2,283,66159423,115,-3303,-2379,-28,3,-3
2,284,66164398,105,-3306,-2368,-25,-6,1
2,285,66169403,105,-3306,-2368,-24,-16,0
2,286,66174407,104,-3326,-2377,-25,-25,0
2,287,66179382,104,-3326,-2377,-26,-26,1
2,288,66184387,116,-3326,-2381,-28,-24,3
2,289,66189392,116,-3326,-2381,-30,-18,5
2,290,66194396,93,-3317,-2379,-32,-11,8
2,291,66199401,93,-3317,-2379,-36,-4,12
2,292,66204437,79,-3317,-2374,-39,-3,11
2,293,66209381,79,-3317,-2374,-40,1,12
2,294,66214385,73,-3330,-2358,-45,12,15
2,295,66219390,73,-3330,-2358,-51,27,14
2,296,66224395,90,-3350,-2365,-62,63,15
2,297,66229400,92,-3355,-2376,-69,76,12
2,298,66234405,92,-3355,-2376,-69,84,14
2,299,66239410,63,-3353,-2388,-69,87,18
2,300,66244384,63,-3353,-2388,-70,83,18
2,301,66249450,82,-3341,-2372,-70,79,18
2,302,66254486,82,-3341,-2372,-70,71,18
2,303,66259460,94,-3357,-2405,-70,63,19
2,304,66264404,94,-3357,-2405,-65,55,20
2,305,66269409,125,-3353,-2400,-64,52,19
2,306,66274383,125,-3353,-2400,-64,47,17
2,307,66279388,122,-3342,-2421,-64,40,18
2,308,66284393,122,-3342,-2421,-62,29,18
2,309,66289398,120,-3359,-2438,-58,22,17
2,310,66294433,120,-3359,-2438,-57,19,19
2,311,66299407,136,-3350,-2456,-53,15,15
2,312,66304382,136,-3350,-2456,-51,9,13
2,313,66309387,124,-3343,-2438,-51,7,15
2,314,66314392,124,-3343,-2438,-49,9,15
2,315,66319396,113,-3342,-2440,-48,16,13
2,316,66324401,113,-3342,-2440,-51,27,11
2,317,66329406,127,-3319,-2455,-53,31,10
2,318,66334381,127,-3319,-2455,-57,33,10
2,319,66339416,103,-3309,-2393,-57,39,8
2,320,66344482,103,-3309,-2393,-57,45,5
2,321,66349395,93,-3299,-2387,-56,50,10
2,322,66354400,93,-3299,-2387,-57,58,11
2,323,66359405,139,-3282,-2408,-60,64,6
2,324,66364410,139,-3282,-2408,-59,64,6
2,325,66369476,135,-3289,-2416,-61,59,7
2,326,66374389,135,-3289,-2416,-56,47,7
2,327,66379394,125,-3291,-2404,-52,35,7
2,328,66384429,125,-3291,-2404,-48,23,7
2,329,66389404,163,-3269,-2430,-47,16,7
2,330,66394409,163,-3269,-2430,-49,12,6
2,331,66399383,153,-3250,-2412,-49,15,5
2,332,66404388,153,-3250,-2412,-48,24,8
2,333,66409393,141,-3213,-2409,-51,35,5
2,334,66414398,141,-3213,-2409,-55,43,6
2,335,66419403,131,-3196,-2398,-60,52,7
2,336,66424407,131,-3196,-2398,-64,68,4
2,337,66429412,129,-3210,-2402,-64,78,8
2,338,66434387,129,-3210,-2402,-65,82,9
2,339,66439392,129,-3258,-2399,-68,81,7
2,340,66444396,129,-3258,-2399,-71,84,7
2,341,66449401,141,-3296,-2377,-69,88,6
2,342,66454406,141,-3296,-2377,-68,87,2
2,343,66459381,145,-3333,-2401,-68,79,0
2,344,66464385,145,-3333,-2401,-68,72,-5
2,345,66469390,147,-3361,-2370,-66,68,-7
2,346,66474426,147,-3361,-2370,-62,63,-9
2,347,66479400,146,-3349,-2396,-61,55,-13
2,348,66484405,146,-3349,-2396,-59,43,-13
2,349,66489410,156,-3336,-2365,-55,34,-16
2,350,66494384,156,-3336,-2365,-52,25,-20
2,351,66499389,160,-3321,-2372,-49,13,-21
2,352,66504394,160,-3321,-2372,-47,1,-20
2,353,66509399,143,-3332,-2383,-43,-11,-24
2,354,66514404,143,-3332,-2383,-37,-24,-26
2,355,66519439,152,-3311,-2394,-33,-34,-28
2,356,66524383,152,-3311,-2394,-33,-41,-28
2,357,66529388,134,-3308,-2422,-32,-48,-31
2,358,66534393,134,-3308,-2422,-30,-42,-34
2,359,66539398,146,-3287,-2429,-31,-31,-34
2,360,66544403,146,-3287,-2429,-29,-14,-35
2,361,66549407,147,-3246,-2456,-33,2,-37
2,362,66554382,147,-3246,-2456,-31,11,-37
2,363,66559387,148,-3220,-2418,-32,19,-37
2,364,66564422,148,-3220,-2418,-33,21,-37
2,365,66569458,131,-3235,-2433,-26,14,-36
2,366,66574462,131,-3235,-2433,-21,8,-36
2,367,66579406,151,-3228,-2434,-18,1,-35
2,368,66584381,151,-3228,-2434,-16,-6,-34
2,369,66589385,163,-3223,-2431,-10,-13,-34
2,370,66594390,163,-3223,-2431,-4,-20,-33
2,371,66599395,169,-3228,-2439,-1,-27,-31
2,372,66604400,169,-3228,-2439,4,-29,-30
2,373,66609436,181,-3256,-2441,4,-28,-33
2,374,66614410,181,-3256,-2441,4,-25,-34
2,375,66619384,166,-3273,-2442,5,-17,-35
2,376,66624389,166,-3273,-2442,8,-2,-33
2,377,66629394,168,-3267,-2402,6,4,-35
2,378,66634399,168,-3267,-2402,4,14,-34
2,379,66639404,141,-3277,-2412,7,16,-35
2,380,66644409,141,-3277,-2412,8,13,-36
2,381,66649383,133,-3293,-2415,9,7,-35
2,382,66654418,133,-3293,-2415,16,1,-32
2,383,66659484,138,-3301,-2435,20,-5,-36
2,384,66664398,138,-3301,-2435,21,-14,-36
2,385,66669403,128,-3303,-2414,22,-17,-35
2,386,66674407,128,-3303,-2414,25,-17,-35
2,387,66679412,136,-3298,-2428,26,-13,-33
2,388,66684478,136,-3298,-2428,26,-10,-37
2,389,66689392,165,-3279,-2441,27,-9,-40
2,390,66694396,165,-3279,-2441,29,-13,-37
2,391,66699432,145,-3320,-2414,30,-19,-36
2,392,66704406,145,-3320,-2414,31,-24,-36
2,393,66709381,159,-3331,-2407,37,-27,-37
2,394,66714385,159,-3331,-2407,36,-31,-38
2,395,66719390,161,-3332,-2419,36,-37,-39
2,396,66724395,161,-3332,-2419,38,-45,-39
2,397,66729400,136,-3354,-2405,37,-49,-42
2,398,66734405,136,-3354,-2405,39,-51,-44
2,399,66739410,157,-3328,-2414,39,-48,-39
2,400,66744415,157,-3328,-2414,36,-48,-41
2,401,66749389,159,-3311,-2441,35,-46,-43
2,402,66754394,159,-3311,-2441,37,-44,-44
2,403,66759399,124,-3310,-2409,34,-38,-39
2,404,66764404,124,-3310,-2409,33,-34,-39
2,405,66769409,124,-3285,-2433,35,-32,-40
2,406,66774383,124,-3285,-2433,36,-30,-40
2,407,66779388,146,-3281,-2445,33,-32,-41
2,408,66784393,146,-3281,-2445,32,-36,-42
2,409,66789428,103,-3314,-2444,31,-33,-37
2,410,66794403,103,-3314,-2444,30,-29,-39
2,411,66799407,161,-3292,-2430,30,-19,-39
2,412,66804382,161,-3292,-2430,23,-8,-40
2,413,66809387,191,-3271,-2454,19,-1,-38
2,414,66814392,191,-3271,-2454,20,-2,-35
2,415,66819396,145,-3302,-2426,19,-1,-32
2,416,66824401,145,-3302,-2426,20,-3,-29
2,417,66829437,176,-3304,-2423,17,-4,-30
2,418,66834411,176,-3304,-2423,19,-6,-28
2,419,66839385,173,-3320,-2454,19,-10,-27
2,420,66844390,173,-3320,-2454,19,-15,-28
2,421,66849395,174,-3303,-2431,21,-21,-24
2,422,66854400,174,-3303,-2431,22,-31,-24
2,423,66859405,144,-3273,-2427,25,-42,-22
2,424,66864410,144,-3273,-2427,23,-47,-15
2,425,66869384,143,-3231,-2437,24,-45,-11
2,426,66874389,143,-3231,-2437,19,-32,-5
2,427,66879425,201,-3142,-2449,15,-9,0
2,428,66884460,201,-3142,-2449,10,10,6
2,429,66889465,205,-3083,-2478,5,29,13
2,430,66894409,205,-3083,-2478,5,42,22
2,431,66899383,203,-3073,-2495,6,45,30
2,432,66904388,203,-3073,-2495,7,41,42
2,433,66909393,181,-3096,-2435,14,29,58
2,434,66914398,181,-3096,-2435,17,16,67
2,435,66919403,209,-3127,-2440,22,2,76
2,436,66924438,209,-3127,-2440,28,-16,87
2,437,66929382,200,-3173,-2397,33,-25,96
2,438,66934387,200,-3173,-2397,35,-22,105
2,439,66939392,199,-3218,-2364,36,-17,113
2,440,66944396,199,-3218,-2364,32,-4,122
2,441,66949401,153,-3315,-2394,24,23,136
2,442,66954406,153,-3315,-2394,18,60,145
2,443,66959381,222,-3331,-2426,13,104,152
2,444,66964385,222,-3331,-2426,9,138,159
2,445,66969421,156,-3313,-2394,7,153,168
2,446,66974487,156,-3313,-2394,11,148,181
2,447,66979400,59,-3318,-2307,22,133,199
2,448,66984405,59,-3318,-2307,37,97,212
2,449,66989410,57,-3320,-2332,48,49,226
2,450,66994415,57,-3320,-2332,65,2,241
2,451,66999481,47,-3358,-2380,81,-38,257
2,452,67004394,87,-3376,-2434,105,-93,281
2,453,67009399,87,-3376,-2434,118,-108,294
2,454,67014434,103,-3385,-2483,126,-119,304
2,455,67019409,103,-3385,-2483,136,-125,315
2,456,67024383,78,-3408,-2424,144,-128,328
2,457,67029388,78,-3408,-2424,149,-129,342
2,458,67034393,44,-3408,-2384,157,-132,353
2,459,67039398,44,-3408,-2384,165,-134,363
2,460,67044403,18,-3389,-2354,172,-135,374
2,461,67049407,18,-3389,-2354,175,-136,385
2,462,67054382,-53,-3415,-2383,183,-141,394
2,463,67059417,-53,-3415,-2383,193,-144,404
2,464,67064392,-60,-3426,-2348,193,-137,409
2,465,67069396,-60,-3426,-2348,197,-130,420
2,466,67074401,-45,-3392,-2334,203,-121,428
2,467,67079406,-45,-3392,-2334,207,-120,434
2,468,67084381,-73,-3402,-2363,212,-125,442
2,469,67089385,-73,-3402,-2363,219,-131,448
2,470,67094390,-50,-3410,-2387,226,-138,453
2,471,67099395,-50,-3410,-2387,230,-151,459
2,472,67104431,-81,-3399,-2348,234,-159,465
2,473,67109405,-81,-3399,-2348,238,-158,473
2,474,67114410,1,-3327,-2320,241,-153,474
2,475,67119384,1,-3327,-2320,239,-137,477
2,476,67124389,4,-3272,-2410,238,-122,482
2,477,67129394,4,-3272,-2410,238,-114,488
2,478,67134399,67,-3150,-2424,238,-111,491
2,479,67139404,67,-3150,-2424,248,-119,495
2,480,67144409,8,-3044,-2426,255,-142,502
2,481,67149414,8,-3044,-2426,260,-175,514
2,482,67154388,-64,-3050,-2362,271,-204,522
2,483,67159393,-64,-3050,-2362,280,-230,529
2,484,67164398,-78,-3145,-2379,288,-254,534
2,485,67169403,-78,-3145,-2379,293,-272,535
2,486,67174407,-184,-3317,-2347,296,-288,539
2,487,67179382,-184,-3317,-2347,300,-301,537
2,488,67184387,-276,-3470,-2278,303,-316,536
2,489,67189392,-276,-3470,-2278,304,-327,533
2,490,67194427,-327,-3560,-2246,297,-329,529
2,491,67199462,-327,-3560,-2246,291,-307,526
2,492,67204467,-274,-3492,-2274,284,-265,519
2,493,67209381,-274,-3492,-2274,273,-223,513
2,494,67214385,-297,-3381,-2332,261,-183,508
2,495,67219390,-297,-3381,-2332,251,-155,491
2,496,67224395,-390,-3343,-2210,230,-144,485
2,497,67229400,-390,-3343,-2210,229,-146,484
2,498,67234405,-335,-3349,-2277,256,-174,508
2,499,67239440,-335,-3349,-2277,259,-205,517
2,500,67244384,-351,-3294,-2252,271,-246,514
2,501,67249389,-351,-3294,-2252,278,-280,518
2,502,67254394,-394,-3343,-2213,290,-329,517
2,503,67259399,-394,-3343,-2213,294,-374,519
2,504,67264404,-424,-3471,-2168,297,-396,517
2,505,67269409,-424,-3471,-2168,294,-398,515
2,506,67274383,-377,-3535,-2189,291,-377,509
2,507,67279388,-377,-3535,-2189,282,-355,502
2,508,67284423,-430,-3553,-2172,273,-327,497
2,509,67289489,-430,-3553,-2172,266,-305,492
2,510,67294403,-537,-3560,-2090,263,-293,485
2,511,67299407,-537,-3560,-2090,259,-296,479
2,512,67304382,-667,-3585,-2055,257,-304,477
2,513,67309417,-667,-3585,-2055,253,-310,472
2,514,67314483,-786,-3650,-2000,248,-311,464
2,515,67319427,-786,-3650,-2000,243,-307,460
2,516,67324401,-788,-3659,-1999,238,-287,458
2,517,67329437,-788,-3659,-1999,226,-250,455
2,518,67334381,-783,-3616,-1990,208,-201,451
2,519,67339385,-783,-3616,-1990,188,-142,451
2,520,67344390,-745,-3600,-1981,170,-75,444
2,521,67349395,-745,-3600,-1981,152,-11,439
2,522,67354400,-700,-3618,-2044,136,41,431
2,523,67359405,-700,-3618,-2044,122,61,426
2,524,67364410,-784,-3630,-2053,114,64,423
2,525,67369384,-784,-3630,-2053,117,55,422
2,526,67374420,-792,-3573,-1985,123,29,420
2,527,67379394,-792,-3573,-1985,127,-7,416
2,528,67384399,-789,-3554,-1999,128,-38,414
2,529,67389404,-789,-3554,-1999,132,-63,412
2,530,67394409,-708,-3557,-2020,130,-69,408
2,531,67399383,-708,-3557,-2020,124,-58,408
2,532,67404388,-742,-3576,-2115,119,-65,400
2,533,67409393,-742,-3576,-2115,109,-57,393
2,534,67414398,-739,-3538,-2066,101,-28,391
2,535,67419433,-739,-3538,-2066,104,-13,393
2,536,67424407,-783,-3492,-2062,96,4,389
2,537,67429382,-783,-3492,-2062,89,9,371
2,538,67434387,-843,-3497,-2094,82,5,369
2,539,67439392,-843,-3497,-2094,81,-4,360
2,540,67444396,-855,-3534,-2021,89,-22,350
2,541,67449401,-855,-3534,-2021,90,-34,342
2,542,67454406,-905,-3600,-2032,82,-40,333
2,543,67459381,-905,-3600,-2032,82,-40,322
2,544,67464416,-817,-3621,-1979,78,-35,308
2,545,67469390,-817,-3621,-1979,69,-20,288
2,546,67474395,-810,-3624,-1992,62,-11,273
2,547,67479400,-810,-3624,-1992,57,-8,257
2,548,67484405,-861,-3659,-2003,53,-1,239
2,549,67489410,-861,-3659,-2003,47,8,221
2,550,67494384,-812,-3637,-1991,42,9,202
2,551,67499389,-812,-3637,-1991,40,9,186
2,552,67504394,-832,-3610,-2014,40,2,166
2,553,67509429,-832,-3610,-2014,35,-10,142
2,554,67514465,-872,-3593,-2018,38,-23,120
2,555,67519470,-872,-3593,-2018,39,-37,98
2,556,67524383,-893,-3561,-2072,37,-54,70
2,557,67529388,-893,-3561,-2072,38,-62,46
2,558,67534393,-909,-3518,-2051,29,-61,17
2,559,67539398,-909,-3518,-2051,20,-51,-9
2,560,67544433,-889,-3479,-2080,14,-25,-39
2,561,67549407,-889,-3479,-2080,7,5,-71
2,562,67554412,-782,-3402,-2203,-7,44,-107
2,563,67559387,-782,-3402,-2203,-20,84,-146
2,564,67564392,-814,-3426,-2188,-33,115,-184
2,565,67569396,-814,-3426,-2188,-38,133,-222
2,566,67574401,-879,-3532,-2162,-44,140,-263
2,567,67579406,-879,-3532,-2162,-49,148,-309
2,568,67584381,-848,-3574,-2111,-56,154,-356
2,569,67589385,-848,-3574,-2111,-72,155,-410
2,570,67594390,-958,-3687,-1764,-85,165,-460
2,571,67599426,-958,-3687,-1764,-99,182,-514
2,572,67604492,-743,-3721,-1753,-115,200,-575
2,573,67609405,-743,-3721,-1753,-141,223,-645
2,574,67614410,-577,-3745,-1719,-175,253,-711
2,575,67619384,-577,-3745,-1719,-206,307,-779
2,576,67624420,-460,-3810,-1639,-236,374,-846
2,577,67629486,-460,-3810,-1639,-268,438,-919
2,578,67634399,-266,-3757,-1873,-300,486,-992
2,579,67639404,-266,-3757,-1873,-329,518,-1065
2,580,67644439,-153,-3637,-1856,-348,530,-1139
2,581,67649383,-153,-3637,-1856,-358,512,-1210
2,582,67654388,-250,-3694,-1773,-358,457,-1292
2,583,67659393,-250,-3694,-1773,-362,383,-1370
2,584,67664398,-263,-3679,-1810,-412,323,-1501
2,585,67669403,-263,-3679,-1810,-369,205,-1570
2,586,67674407,80,-3633,-2025,-379,133,-1606
2,587,67679382,80,-3633,-2025,-374,0,-1698
2,588,67684387,-237,-3705,-1933,-351,-187,-1823
2,589,67689422,-237,-3705,-1933,-339,-349,-1899
2,590,67694396,-157,-3551,-1817,-336,-484,-1955
2,591,67699401,-157,-3551,-1817,-371,-699,-2192
2,592,67704406,-1162,-3791,-1886,-145,-1407,-2930
2,593,67709381,-1162,-3791,-1886,-338,-1291,-2513
2,594,67714385,436,-3469,-2472,-372,-1005,-2696
2,595,67719390,436,-3469,-2472,-328,-1249,-2984
2,596,67724395,254,-3445,-2117,-479,-1070,-3051
2,597,67729400,254,-3445,-2117,-447,-1165,-3083
2,598,67734436,-4968,-5996,-4441,-1,-1161,-4108
2,599,67739410,-4968,-5996,-4441,1833,-1177,-7172
2,600,67744384,-1463,-1932,-768,-293,-1084,-7224
2,601,67749389,-1463,-1932,-768,243,-863,-7624
2,602,67754394,6495,-1206,-1933,410,-1727,-5226
2,603,67759399,6495,-1206,-1933,117,-1994,-4355
2,604,67764404,-3589,-4975,-4291,961,-3383,-5190
2,605,67769409,-3589,-4975,-4291,2814,-4775,-6024
2,606,67774383,5216,594,-2068,1424,-3518,-4741
2,607,67779479,2015,-618,-3954,-1997,1091,-3736
2,608,67784393,2015,-618,-3954,-2088,3955,-3057
2,609,67789398,-5339,-4036,6005,-1765,4156,-1320
2,610,67794403,-5339,-4036,6005,-1829,4056,4
2,611,67799407,1323,-257,109,-1779,3485,475
2,612,67804382,1323,-257,109,-1026,2151,272
2,613,67809387,-2565,-5963,-6263,-517,1523,970
2,614,67814392,-2565,-5963,-6263,-725,1453,1754
2,615,67819396,755,-5229,-129,-344,697,1572
2,616,67824493,755,-5229,-129,365,-640,811
2,617,67829498,3831,-4054,-4766,355,-916,686
2,618,67834381,3831,-4054,-4766,55,-455,982
2,619,67839385,945,-5229,-2905,144,-415,799
2,620,67844390,945,-5229,-2905,420,-799,284
2,621,67849395,3491,-3328,-2740,364,-891,169
2,622,67854400,3491,-3328,-2740,45,-566,383
2,623,67859405,867,-4337,-2405,35,-488,439
2,624,67864410,867,-4337,-2405,230,-599,254
2,625,67869415,1404,-3400,-2708,134,-558,166
2,626,67874389,1404,-3400,-2708,-76,-395,185
2,627,67879394,1128,-3108,-2214,-148,-218,125
2,628,67884399,1128,-3108,-2214,-238,14,124
2,629,67889404,10,-3230,-2836,-381,170,136
2,630,67894409,10,-3230,-2836,-381,172,25
2,631,67899383,1139,-2552,-2299,-434,266,-41
2,632,67904388,1139,-2552,-2299,-565,450,8
2,633,67909393,156,-2706,-3211,-547,390,0
2,634,67914428,156,-2706,-3211,-408,175,-94
2,635,67919494,874,-2387,-2792,-422,121,-98
2,636,67924407,874,-2387,-2792,-473,125,-60
2,637,67929382,472,-2830,-2851,-403,25,-74
2,638,67934387,472,-2830,-2851,-361,-68,-75
2,639,67939422,1033,-2792,-3072,-368,-63,-82
2,640,67944488,1033,-2792,-3072,-389,5,-111
2,641,67949401,1535,-2723,-2677,-422,73,-116
2,642,67954406,1535,-2723,-2677,-429,71,-99
2,643,67959411,869,-3182,-2859,-390,10,-89
2,644,67964385,869,-3182,-2859,-361,-24,-86
2,645,67969390,1297,-3117,-2343,-349,-50,-89
2,646,67974395,1297,-3117,-2343,-319,-125,-103
2,647,67979400,852,-3390,-2626,-244,-224,-121
2,648,67984405,852,-3390,-2626,-230,-279,-102
2,649,67989410,831,-3462,-2173,-170,-317,-157
2,650,67994384,831,-3462,-2173,-142,-377,-189
2,651,67999389,948,-3355,-2248,-159,-385,-174
2,652,68004425,948,-3355,-2248,-132,-404,-181
2,653,68009399,462,-3579,-2006,-83,-434,-200
2,654,68014404,462,-3579,-2006,-65,-436,-200
2,655,68019409,762,-3337,-1902,-81,-399,-174
2,656,68024383,762,-3337,-1902,-117,-334,-133
2,657,68029388,726,-3314,-1923,-157,-232,-79
2,658,68034393,726,-3314,-1923,-194,-112,-22
2,659,68039398,711,-3221,-1914,-237,21,26
2,660,68044403,711,-3221,-1914,-276,142,54
2,661,68049438,749,-3067,-2180,-306,244,68
2,662,68054382,749,-3067,-2180,-321,331,77
2,663,68059387,759,-2987,-2218,-341,404,96
2,664,68064392,759,-2987,-2218,-347,451,113
2,665,68069396,755,-2993,-2325,-338,466,121
2,666,68074401,755,-2993,-2325,-322,462,125
2,667,68079406,775,-2995,-2486,-294,435,127
2,668,68084381,775,-2995,-2486,-272,398,132
2,669,68089385,800,-3062,-2414,-248,362,143
2,670,68094421,800,-3062,-2414,-227,331,160
2,671,68099395,877,-3121,-2499,-213,300,176
2,672,68104400,877,-3121,-2499,-193,268,181
2,673,68109405,935,-3131,-2548,-172,244,188
2,674,68114410,935,-3131,-2548,-159,226,195
2,675,68119384,890,-3171,-2560,-140,204,200
2,676,68124389,890,-3171,-2560,-119,173,205
2,677,68129394,866,-3226,-2572,-93,142,196
2,678,68134399,866,-3226,-2572,-73,122,194
2,679,68139434,902,-3235,-2484,-58,100,194
2,680,68144470,902,-3235,-2484,-39,78,192
2,681,68149444,865,-3246,-2453,-20,58,191
2,682,68154388,865,-3246,-2453,-3,38,182
2,683,68159393,873,-3238,-2363,5,27,176
2,684,68164398,873,-3238,-2363,4,32,173
2,685,68169403,887,-3274,-2410,-6,54,169
2,686,68174407,887,-3274,-2410,-21,93,163
2,687,68179382,953,-3304,-2466,-37,142,156
2,688,68184417,953,-3304,-2466,-58,196,153
2,689,68189392,971,-3220,-2424,-80,241,160
2,690,68194396,971,-3220,-2424,-94,268,164
2,691,68199401,849,-3195,-2387,-93,264,166
2,692,68204406,849,-3195,-2387,-88,251,173
2,693,68209381,866,-3155,-2412,-82,228,191
2,694,68214385,866,-3155,-2412,-85,218,214
2,695,68219390,843,-3165,-2550,-54,184,206
2,696,68224395,843,-3165,-2550,-20,142,193
2,697,68229431,833,-3119,-2519,-15,119,199
2,698,68234436,833,-3119,-2519,-8,102,200
2,699,68239410,848,-3107,-2526,6,82,199
2,700,68244384,848,-3107,-2526,14,67,201
2,701,68249389,863,-3113,-2558,13,64,202
2,702,68254394,863,-3113,-2558,35,51,184
2,703,68259429,825,-3140,-2473,39,51,179
2,704,68264495,825,-3140,-2473,30,63,186
2,705,68269409,862,-3151,-2508,31,67,182
2,706,68274414,862,-3151,-2508,30,73,179
2,707,68279388,844,-3183,-2473,26,82,182
2,708,68284393,844,-3183,-2473,20,95,188
2,709,68289398,788,-3176,-2446,14,102,192
2,710,68294403,788,-3176,-2446,12,107,196
2,711,68299407,800,-3164,-2463,10,108,198
2,712,68304382,800,-3164,-2463,6,111,200
2,713,68309387,779,-3187,-2487,8,110,206
2,714,68314392,779,-3187,-2487,13,97,212
2,715,68319427,712,-3211,-2485,24,78,214
2,716,68324401,712,-3211,-2485,39,60,220
2,717,68329406,800,-3146,-2425,40,48,241
2,718,68334381,800,-3146,-2425,29,52,254
2,719,68339385,673,-3200,-2454,57,20,229
2,720,68344390,673,-3200,-2454,68,5,215
2,721,68349395,737,-3146,-2439,58,17,215
2,722,68354400,737,-3146,-2439,50,32,213
2,723,68359405,780,-3124,-2407,46,48,210
2,724,68364440,780,-3124,-2407,32,72,208
2,725,68369384,753,-3126,-2379,17,101,207
2,726,68374389,753,-3126,-2379,0,130,204
2,727,68379394,747,-3164,-2422,-12,160,203
2,728,68384399,747,-3164,-2422,-28,191,203
2,729,68389404,797,-3171,-2443,-58,229,222
2,730,68394409,797,-3171,-2443,-62,245,222
2,731,68399383,691,-3215,-2457,-43,226,206
2,732,68404388,691,-3215,-2457,-43,216,201
2,733,68409423,681,-3173,-2404,-41,202,205
2,734,68414398,681,-3173,-2404,-35,183,207
2,735,68419403,782,-3104,-2441,-42,176,221
2,736,68424407,782,-3104,-2441,-59,187,235
2,737,68429382,722,-3146,-2513,-37,175,222
2,738,68434387,722,-3146,-2513,-30,163,209
2,739,68439392,737,-3128,-2505,-34,159,207
2,740,68444396,737,-3128,-2505,-27,152,201
2,741,68449401,806,-3110,-2486,-28,149,198
2,742,68454437,806,-3110,-2486,-33,150,197
2,743,68459411,798,-3167,-2531,-22,136,189
2,744,68464477,798,-3167,-2531,-14,119,179
2,745,68469451,809,-3191,-2496,-7,107,167
2,746,68474395,809,-3191,-2496,-4,97,160
2,747,68479400,799,-3196,-2429,-12,104,159
2,748,68484405,799,-3196,-2429,-18,112,159
2,749,68489410,801,-3183,-2448,-23,122,151
2,750,68494384,801,-3183,-2448,-32,136,148
2,751,68499420,832,-3205,-2480,-43,145,147
2,752,68504394,832,-3205,-2480,-45,143,145
2,753,68509399,742,-3272,-2473,-40,128,147
2,754,68514404,742,-3272,-2473,-31,104,145
2,755,68519409,712,-3248,-2455,-20,79,143
2,756,68524383,712,-3248,-2455,-13,59,142
2,757,68529388,728,-3199,-2476,-7,41,144
2,758,68534393,728,-3199,-2476,-8,29,148
2,759,68539398,797,-3180,-2488,-17,24,162
2,760,68544433,699,-3302,-2516,-6,17,143
2,761,68549407,699,-3302,-2516,1,11,125
2,762,68554443,724,-3224,-2479,-11,24,126
2,763,68559387,724,-3224,-2479,-18,31,124
2,764,68564392,720,-3181,-2443,-21,32,116
2,765,68569396,720,-3181,-2443,-31,45,112
2,766,68574432,698,-3202,-2414,-40,66,109
2,767,68579498,698,-3202,-2414,-51,83,102
2,768,68584381,728,-3176,-2479,-56,97,96
2,769,68589416,728,-3176,-2479,-62,107,92
2,770,68594390,713,-3187,-2467,-63,102,90
2,771,68599395,713,-3187,-2467,-62,89,89
2,772,68604400,621,-3197,-2452,-55,69,87
2,773,68609405,621,-3197,-2452,-44,46,85
2,774,68614410,673,-3149,-2476,-36,22,85
2,775,68619384,673,-3149,-2476,-41,10,103
2,776,68624389,676,-3146,-2509,-50,12,113
2,777,68629394,676,-3146,-2509,-14,-31,90
2,778,68634429,555,-3203,-2498,-4,-55,74
2,779,68639404,555,-3203,-2498,-6,-51,67
2,780,68644409,697,-3089,-2430,-13,-32,63
2,781,68649383,697,-3089,-2430,-30,-2,65
2,782,68654388,727,-3069,-2489,-47,25,65
2,783,68659393,727,-3069,-2489,-52,47,60
2,784,68664398,658,-3143,-2436,-61,63,54
2,785,68669403,658,-3143,-2436,-69,78,49
2,786,68674407,674,-3149,-2398,-72,86,46
2,787,68679412,674,-3149,-2398,-73,88,45
2,788,68684387,736,-3138,-2420,-77,92,43
2,789,68689392,736,-3138,-2420,-93,97,55
2,790,68694396,714,-3183,-2413,-108,110,67
2,791,68699401,714,-3183,-2413,-71,81,39
2,792,68704406,596,-3214,-2459,-54,54,19
2,793,68709381,596,-3214,-2459,-52,39,18
2,794,68714385,675,-3135,-2436,-39,11,18
2,795,68719390,675,-3135,-2436,-28,-13,12
2,796,68724426,694,-3128,-2419,-26,-23,16
2,797,68729400,694,-3128,-2419,-20,-38,17
2,798,68734405,711,-3150,-2506,-12,-40,9
2,799,68739410,711,-3150,-2506,-14,-25,8
2,800,68744384,868,-3102,-2502,-30,11,10
2,801,68749389,868,-3102,-2502,-45,43,14
2,802,68754394,804,-3166,-2542,-50,58,7
2,803,68759399,804,-3166,-2542,-52,78,6
2,804,68764404,803,-3158,-2474,-55,95,5
2,805,68769439,803,-3158,-2474,-60,109,-2
2,806,68774414,839,-3145,-2485,-60,118,-6
2,807,68779479,839,-3145,-2485,-60,123,-3
2,808,68784454,842,-3143,-2457,-60,122,-4
2,809,68789398,842,-3143,-2457,-57,115,-4
2,810,68794403,918,-3119,-2424,-65,117,19
2,811,68799407,918,-3119,-2424,-75,128,29
2,812,68804382,791,-3207,-2515,-33,89,1
2,813,68809387,791,-3207,-2515,-20,63,-7
2,814,68814422,851,-3175,-2488,-17,45,0
2,815,68819396,851,-3175,-2488,0,23,0
2,816,68824401,869,-3206,-2454,8,2,0
2,817,68829406,869,-3206,-2454,17,-17,-1
2,818,68834381,875,-3250,-2540,31,-36,0
2,819,68839385,875,-3250,-2540,38,-51,-1
2,820,68844390,908,-3242,-2457,42,-55,-3
2,821,68849395,908,-3242,-2457,45,-58,0
2,822,68854400,862,-3232,-2404,45,-56,0
2,823,68859436,862,-3232,-2404,43,-51,1
2,824,68864410,820,-3236,-2429,41,-46,-2
2,825,68869415,820,-3236,-2429,38,-38,-3
2,826,68874389,809,-3198,-2418,37,-35,-5
2,827,68879394,809,-3198,-2418,33,-35,-6
2,828,68884399,682,-3229,-2378,35,-32,-7
2,829,68889404,682,-3229,-2378,39,-33,-8
2,830,68894409,652,-3221,-2420,35,-32,-12
2,831,68899475,652,-3221,-2420,33,-26,-16
2,832,68904418,659,-3190,-2433,29,-15,-17
2,833,68909393,659,-3190,-2433,25,-7,-20
2,834,68914398,579,-3200,-2459,29,-6,-26
2,835,68919403,579,-3200,-2459,30,-10,-30
2,836,68924407,568,-3187,-2446,30,-11,-33
2,837,68929382,568,-3187,-2446,28,-4,-34
2,838,68934387,592,-3163,-2453,26,2,-38
2,839,68939392,592,-3163,-2453,22,10,-38
2,840,68944396,599,-3139,-2463,22,19,-39
2,841,68949432,599,-3139,-2463,20,17,-40
2,842,68954406,566,-3149,-2441,22,11,-43
2,843,68959381,566,-3149,-2441,27,3,-45
2,844,68964385,581,-3155,-2432,28,-2,-49
2,845,68969390,581,-3155,-2432,26,1,-49
2,846,68974395,630,-3146,-2434,21,16,-52
2,847,68979400,630,-3146,-2434,13,35,-58
2,848,68984405,634,-3148,-2458,4,55,-58
2,849,68989410,634,-3148,-2458,-4,76,-61
2,850,68994415,609,-3166,-2460,-11,91,-63
2,851,68999389,609,-3166,-2460,-14,101,-62
2,852,69004394,601,-3154,-2461,-13,104,-64
2,853,69009399,601,-3154,-2461,-9,98,-62
2,854,69014404,583,-3154,-2442,-8,90,-63
2,855,69019409,583,-3154,-2442,-4,79,-62
2,856,69024383,578,-3143,-2426,6,58,-64
2,857,69029388,578,-3143,-2426,12,43,-67
2,858,69034393,605,-3129,-2418,17,32,-67
2,859,69039428,605,-3129,-2418,22,20,-67
2,860,69044403,641,-3152,-2434,17,17,-64
2,861,69049407,641,-3152,-2434,14,24,-66
2,862,69054382,695,-3153,-2456,11,38,-70
2,863,69059387,695,-3153,-2456,-2,56,-67
2,864,69064392,787,-3108,-2475,-20,79,-48
2,865,69069396,787,-3108,-2475,-45,118,-33
2,866,69074401,642,-3187,-2477,-17,100,-62
2,867,69079406,642,-3187,-2477,-4,85,-79
2,868,69084411,687,-3146,-2448,-14,93,-72
2,869,69089385,687,-3146,-2448,-12,93,-78
2,870,69094390,776,-3123,-2457,-14,97,-78
2,871,69099456,776,-3123,-2457,-21,104,-74
2,872,69104461,786,-3138,-2485,-19,104,-76
2,873,69109405,786,-3138,-2485,-18,101,-73
2,874,69114410,774,-3162,-2498,-18,98,-72
2,875,69119384,774,-3162,-2498,-18,96,-73
2,876,69124389,798,-3156,-2516,-20,96,-73
2,877,69129425,798,-3156,-2516,-19,96,-72
2,878,69134399,795,-3144,-2549,-18,93,-68
2,879,69139404,795,-3144,-2549,-16,89,-64
2,880,69144409,789,-3130,-2574,-12,77,-65
2,881,69149383,789,-3130,-2574,-4,60,-61
2,882,69154388,772,-3126,-2571,2,43,-62
2,883,69159393,772,-3126,-2571,9,28,-61
2,884,69164398,796,-3130,-2568,11,21,-58
2,885,69169403,796,-3130,-2568,13,17,-60
2,886,69174438,830,-3137,-2598,9,27,-60
2,887,69179382,830,-3137,-2598,2,45,-61
2,888,69184387,871,-3111,-2581,-7,66,-57
2,889,69189392,871,-3111,-2581,-17,81,-56
2,890,69194458,830,-3139,-2575,-18,82,-59
2,891,69199401,830,-3139,-2575,-17,78,-58
2,892,69204406,816,-3162,-2551,-15,76,-57
2,893,69209381,816,-3162,-2551,-14,67,-58
2,894,69214447,830,-3178,-2524,-12,56,-56
2,895,69219421,830,-3178,-2524,-8,45,-54
2,896,69224395,832,-3184,-2509,-6,30,-56
2,897,69229400,832,-3184,-2509,-3,16,-58
2,898,69234405,850,-3195,-2504,-1,7,-55
2,899,69239410,850,-3195,-2504,0,4,-54
2,900,69244384,886,-3182,-2509,1,-1,-54
2,901,69249389,886,-3182,-2509,0,-4,-54
2,902,69254394,868,-3199,-2509,-1,-12,-51
2,903,69259399,868,-3199,-2509,-3,-14,-51
2,904,69264434,876,-3219,-2480,-4,-16,-51
2,905,69269409,876,-3219,-2480,-6,-14,-52
2,906,69274383,891,-3220,-2471,-7,-13,-50
2,907,69279388,891,-3220,-2471,-9,-14,-48
2,908,69284393,898,-3234,-2458,-10,-14,-50
2,909,69289398,898,-3234,-2458,-13,-16,-50
2,910,69294403,908,-3246,-2460,-14,-22,-50
2,911,69299407,908,-3246,-2460,-11,-24,-48
2,912,69304382,927,-3237,-2455,-11,-25,-47
2,913,69309417,918,-3220,-2451,-15,-24,-43
2,914,69314392,918,-3220,-2451,-22,-15,-43
2,915,69319396,912,-3218,-2435,-25,-7,-43
2,916,69324401,912,-3218,-2435,-31,4,-42
2,917,69329406,906,-3182,-2463,-36,7,-42
2,918,69334381,906,-3182,-2463,-35,5,-42
2,919,69339385,848,-3197,-2441,-28,-8,-40
2,920,69344390,848,-3197,-2441,-20,-31,-37
2,921,69349395,801,-3195,-2424,-14,-48,-38
2,922,69354431,801,-3195,-2424,-7,-64,-36
2,923,69359405,825,-3176,-2420,-6,-68,-38
2,924,69364410,825,-3176,-2420,-9,-59,-42
2,925,69369384,839,-3187,-2433,-19,-34,-41
2,926,69374389,839,-3187,-2433,-27,-13,-41
2,927,69379394,819,-3187,-2443,-39,11,-43
2,928,69384399,819,-3187,-2443,-50,35,-46
2,929,69389404,802,-3182,-2425,-57,55,-48
2,930,69394409,802,-3182,-2425,-59,64,-49
2,931,69399414,773,-3194,-2435,-60,66,-52
2,932,69404388,773,-3194,-2435,-58,61,-49
2,933,69409393,764,-3188,-2396,-58,55,-50
2,934,69414459,764,-3188,-2396,-53,48,-52
2,935,69419464,767,-3173,-2422,-48,43,-52
2,936,69424407,767,-3173,-2422,-46,38,-54
2,937,69429382,779,-3159,-2427,-45,38,-55
2,938,69434387,779,-3159,-2427,-47,45,-54
2,939,69439392,778,-3140,-2446,-50,52,-53
2,940,69444427,778,-3140,-2446,-48,51,-53
2,941,69449401,734,-3147,-2460,-45,46,-54
2,942,69454406,734,-3147,-2460,-39,36,-55
2,943,69459381,691,-3126,-2436,-34,27,-57
2,944,69464385,691,-3126,-2436,-26,18,-59
2,945,69469390,686,-3105,-2468,-21,12,-60
2,946,69474395,686,-3105,-2468,-18,7,-58
2,947,69479400,746,-3079,-2442,-21,17,-63
2,948,69484405,746,-3079,-2442,-23,31,-68
2,949,69489440,819,-3074,-2411,-34,56,-65
2,950,69494384,819,-3074,-2411,-43,77,-64
2,951,69499389,842,-3097,-2426,-50,92,-65
2,952,69504455,842,-3097,-2426,-53,104,-65
2,953,69509399,873,-3114,-2402,-55,115,-60
2,954,69514404,873,-3114,-2402,-54,116,-58
2,955,69519409,880,-3149,-2433,-54,114,-59
2,956,69524444,880,-3149,-2433,-49,108,-57
2,957,69529388,914,-3170,-2424,-45,107,-55
2,958,69534484,914,-3170,-2424,-43,113,-52
2,959,69539428,945,-3153,-2451,-43,117,-50
2,960,69544403,945,-3153,-2451,-41,114,-50
2,961,69549407,935,-3160,-2440,-39,110,-45
2,962,69554382,935,-3160,-2440,-30,105,-42
2,963,69559387,922,-3170,-2425,-24,94,-40
2,964,69564392,922,-3170,-2425,-17,79,-38
2,965,69569396,943,-3166,-2431,-11,71,-34
2,966,69574401,943,-3166,-2431,-8,72,-32
2,967,69579437,996,-3180,-2432,-6,73,-31
2,968,69584381,996,-3180,-2432,-7,80,-26
2,969,69589385,1012,-3207,-2427,-15,90,-24
2,970,69594390,1012,-3207,-2427,-17,101,-19
2,971,69599395,1026,-3217,-2428,-17,113,-16
2,972,69604400,1026,-3217,-2428,-21,124,-15
2,973,69609405,1036,-3203,-2433,-22,133,-11
2,974,69614410,1036,-3203,-2433,-22,134,-9
2,975,69619384,984,-3220,-2434,-16,129,-7
2,976,69624420,984,-3220,-2434,-12,121,-2
2,977,69629394,997,-3217,-2442,-6,112,2
2,978,69634399,997,-3217,-2442,1,104,4
2,979,69639404,999,-3222,-2469,7,92,7
2,980,69644409,999,-3222,-2469,14,83,9
2,981,69649383,998,-3193,-2458,20,73,13
2,982,69654388,998,-3193,-2458,26,64,16
2,983,69659393,984,-3178,-2467,33,49,22
2,984,69664398,984,-3178,-2467,41,35,25
2,985,69669433,972,-3164,-2503,48,27,25
2,986,69674407,972,-3164,-2503,56,12,29
2,987,69679382,980,-3152,-2496,62,-3,29
2,988,69684387,980,-3152,-2496,63,-7,32
2,989,69689392,970,-3140,-2454,65,-4,35
2,990,69694396,970,-3140,-2454,63,2,39
2,991,69699401,971,-3116,-2482,58,11,40
2,992,69704406,971,-3116,-2482,52,22,40
2,993,69709381,955,-3120,-2479,49,33,41
2,994,69714416,955,-3120,-2479,47,39,44
2,995,69719390,901,-3134,-2436,45,38,45
2,996,69724456,901,-3134,-2436,47,34,46
2,997,69729461,869,-3141,-2448,49,26,46
2,998,69734405,869,-3141,-2448,54,13,48
2,999,69739410,845,-3149,-2448,58,7,48
