event_id,seq,ts_ms,ax,ay,az,gx,gy,gz
2,1000,515327331,45,-1405,3923,37,-234,272
2,1001,515334838,218,-1807,3852,58,-293,203
2,1002,515342285,238,-2416,4081,65,-359,116
2,1003,515349731,371,-2235,4426,65,-581,-120
2,1004,515357177,371,-2235,4426,120,-774,-216
2,1005,515364624,724,-1387,4924,465,-1430,-328
2,1006,515372070,978,-722,4278,342,-1148,-349
2,1007,515379516,1324,-550,3236,252,-132,-271
2,1008,515386962,1324,-550,3236,355,258,-199
2,1009,515394409,1458,-510,3238,513,714,-125
2,1010,515401855,1297,-465,3721,546,629,-107
2,1011,515409301,1194,-292,3447,574,468,-43
2,1012,515416748,1194,-292,3447,571,575,30
2,1013,515424194,970,-268,3341,374,800,110
2,1014,515431640,637,-416,3565,239,810,116
2,1015,515439178,661,-619,3606,38,656,144
2,1016,515446655,661,-619,3606,-20,587,149
2,1017,515454101,949,-878,3444,26,616,186
2,1018,515461547,1104,-965,3347,67,718,200
2,1019,515468994,896,-688,3466,97,1032,233
2,1020,515476440,896,-688,3466,112,1060,250
2,1021,515483917,478,-434,3843,187,824,264
2,1022,515491363,0,-899,3737,255,743,255
2,1023,515498809,-202,-1311,3643,422,443,86
2,1024,515506256,-202,-1311,3643,528,324,8
2,1025,515513702,9,-977,3875,604,232,-85
2,1026,515521148,576,-763,4883,471,195,-99
2,1027,515528625,1256,-874,5285,-87,151,22
2,1028,515536132,1256,-874,5285,-278,63,72
2,1029,515543579,926,-846,4509,-282,-155,55
2,1030,515551025,951,-927,3699,-172,-188,67
2,1031,515558471,1096,-818,3475,111,-68,163
2,1032,515565917,1096,-818,3475,162,65,211
2,1033,515573394,895,-935,3885,77,198,278
2,1034,515580841,775,-1285,4182,-48,199,270
2,1035,515588287,683,-1241,4084,-226,130,209
2,1036,515595733,683,-1241,4084,-245,61,183
2,1037,515603179,282,-765,4153,-106,-148,183
2,1038,515610626,65,-589,4335,28,-318,184
2,1039,515618103,384,-758,4173,261,-606,141
2,1040,515625549,384,-758,4173,284,-684,113
2,1041,515632995,689,-822,3866,339,-580,104
2,1042,515640441,599,-892,3872,358,-492,80
2,1043,515647888,553,-1014,4185,368,-345,45
2,1044,515655334,553,-1014,4185,350,-323,22
2,1045,515662872,563,-1047,4355,313,-345,-19
2,1046,515670318,629,-1012,4222,294,-348,-33
2,1047,515677764,651,-943,4092,254,-334,-51
2,1048,515685272,651,-943,4092,224,-321,-55
2,1049,515692718,611,-812,4060,170,-314,-60
2,1050,515700164,627,-824,4018,161,-331,-66
2,1051,515707641,691,-910,3983,167,-338,-63
2,1052,515715087,691,-910,3983,173,-323,-64
2,1053,515722534,708,-860,4014,167,-310,-73
2,1054,515729980,728,-721,4063,146,-315,-71
2,1055,515737426,764,-592,4018,136,-340,-76
2,1056,515744873,764,-592,4018,146,-352,-75
2,1057,515752349,817,-518,3943,192,-330,-88
2,1058,515759796,879,-560,3992,206,-332,-97
2,1059,515767242,873,-706,4027,229,-319,-125
2,1060,515774688,873,-706,4027,229,-306,-133
2,1061,515782135,887,-891,4024,243,-288,-133
2,1062,515789642,878,-1030,3989,237,-274,-129
2,1063,515797149,875,-1085,4012,205,-193,-105
2,1064,515804687,875,-1085,4012,166,-199,-105
2,1065,515812194,724,-973,4108,52,-224,141
2,1066,515819641,856,-471,3968,233,34,97
2,1067,515827087,1239,-880,4130,39,-331,-29
2,1068,515834533,1239,-880,4130,99,-379,35
2,1069,515841979,773,-769,3920,110,-412,34
2,1070,515849426,733,-868,3888,141,-425,84
2,1071,515856872,796,-1207,4062,518,-273,123
2,1072,515864318,796,-1207,4062,456,-380,5
2,1073,515871765,1214,-669,4053,249,-418,-32
2,1074,515879211,1071,-282,3835,119,-411,-79
2,1075,515886657,893,-389,3832,105,-363,17
2,1076,515894104,893,-389,3832,204,-382,46
2,1077,515901550,909,-793,4033,199,-532,-21
2,1078,515908996,920,-1175,3915,200,-493,-10
2,1079,515916442,1090,-912,4110,209,-376,-178
2,1080,515924011,1090,-912,4110,133,-410,-59
2,1081,515931457,769,-1053,4190,474,-370,-79
2,1082,515938903,1128,-472,4109,394,-452,-128
2,1083,515946350,1224,-496,3750,122,-309,-74
2,1084,515953796,1224,-496,3750,50,-258,-77
2,1085,515961242,1144,-532,3971,80,-236,-46
2,1086,515968688,1209,-548,4082,106,-254,-41
2,1087,515976135,1092,-537,3917,88,-223,-80
2,1088,515983642,1092,-537,3917,85,-202,-78
2,1089,515991088,1118,-512,3942,84,-151,-66
2,1090,515998565,1122,-598,3979,101,-156,-89
2,1091,516006011,1249,-609,3987,70,-78,-51
2,1092,516013458,1249,-609,3987,-15,9,4
2,1093,516020935,1325,-632,3949,-191,146,39
2,1094,516028411,1132,-585,3950,-180,168,37
2,1095,516035888,1002,-635,3954,-18,79,7
2,1096,516043365,1002,-635,3954,28,80,3
2,1097,516050872,1092,-621,3920,47,48,-38
2,1098,516058319,1066,-639,3918,66,34,-48
2,1099,516065765,1198,-567,3967,70,113,-6
2,1100,516073211,1198,-567,3967,42,103,-13
2,1101,516080657,1203,-537,3965,-22,154,17
2,1102,516088104,1135,-607,3980,-37,131,20
2,1103,516095550,1155,-582,4007,-39,99,8
2,1104,516102996,1155,-582,4007,-40,69,9
2,1105,516110443,1187,-555,3959,-58,67,16
2,1106,516117919,1135,-560,3970,-71,58,13
2,1107,516125366,1106,-591,3949,-72,60,26
2,1108,516132812,1106,-591,3949,-76,82,12
2,1109,516140258,1078,-600,3991,-62,29,13
2,1110,516147705,1053,-510,3942,-53,47,6
2,1111,516155242,1054,-521,3960,-43,57,6
2,1112,516162719,1054,-521,3960,-41,27,-11
2,1113,516170166,1083,-294,3957,-42,56,41
2,1114,516177612,1045,-811,3970,-28,8,30
2,1115,516185058,1059,-937,3942,5,27,-51
2,1116,516192504,1059,-937,3942,8,17,-57
2,1117,516199951,1070,-625,3986,3,-3,-24
2,1118,516207397,1149,-627,3949,13,-10,-31
2,1119,516214843,1192,-538,3971,33,-14,-20
2,1120,516222290,1192,-538,3971,13,-5,-9
2,1121,516229736,1094,-317,4000,-257,-98,77
2,1122,516237182,1295,-38,3784,-714,-97,219
2,1123,516244628,1162,-719,3991,-487,181,246
2,1124,516252075,1162,-719,3991,-244,59,185
2,1125,516259521,1007,-539,4151,-237,19,281
2,1126,516266967,1215,-565,3866,-238,88,305
2,1127,516274414,1242,-609,3973,-331,125,332
2,1128,516281860,1242,-609,3973,-379,137,323
2,1129,516289306,1137,-618,3978,-419,144,322
2,1130,516296813,1170,-654,3978,-458,168,335
2,1131,516304260,1078,-785,3885,-391,153,292
2,1132,516311706,1078,-785,3885,-282,162,210
2,1133,516319152,959,-1008,3872,-143,196,125
2,1134,516326599,1078,-888,3947,-121,221,124
2,1135,516334045,926,-1113,3941,-84,155,100
2,1136,516341491,926,-1113,3941,-110,152,70
2,1137,516348937,875,-1307,3997,-172,126,17
2,1138,516356384,838,-1266,4010,-227,161,-6
2,1139,516363830,884,-980,3895,-181,131,-64
2,1140,516371276,884,-980,3895,-149,157,-72
2,1141,516378723,1024,-706,3881,-37,133,-74
2,1142,516386169,970,-770,3906,24,144,-47
2,1143,516393615,919,-883,4009,96,160,-61
2,1144,516401062,919,-883,4009,154,101,4
2,1145,516408508,694,-1012,4084,284,85,26
2,1146,516415954,1203,-715,3861,77,43,-19
2,1147,516423400,1217,-732,3759,-29,98,-30
2,1148,516430847,1217,-732,3759,31,226,-1
2,1149,516438293,792,-854,4089,-32,64,-23
2,1150,516445739,1007,-791,3959,-26,95,2
2,1151,516453186,992,-761,4021,-11,95,-52
2,1152,516460632,992,-761,4021,-35,18,-18
2,1153,516468078,1001,-787,3948,-8,90,-24
2,1154,516475524,1068,-787,3930,-23,110,-3
2,1155,516482971,933,-814,4004,-34,91,-18
2,1156,516490417,933,-814,4004,-39,75,-20
2,1157,516497863,921,-780,4013,-32,56,-14
2,1158,516505310,1007,-828,3905,-8,44,-20
2,1159,516512756,1083,-817,3869,-12,157,39
2,1160,516520202,1083,-817,3869,-21,201,11
2,1161,516527648,903,-811,4062,-24,71,23
2,1162,516535095,943,-833,3903,-24,107,19
2,1163,516542541,1016,-797,4016,-35,153,50
2,1164,516549987,1016,-797,4016,-54,99,36
2,1165,516557434,880,-834,3916,29,115,24
2,1166,516564910,865,-844,4002,4,66,18
2,1167,516572357,950,-814,3962,-8,113,24
2,1168,516579803,950,-814,3962,22,62,15
2,1169,516587310,851,-830,3994,15,27,-2
2,1170,516594757,952,-792,3975,26,15,10
2,1171,516602203,952,-806,3991,18,-1,5
2,1172,516609649,952,-806,3991,14,6,16
2,1173,516617095,909,-824,3977,14,6,7
2,1174,516624542,879,-829,3969,18,-3,4
2,1175,516631988,891,-789,3979,10,11,-11
2,1176,516639434,891,-789,3979,3,16,-18
2,1177,516646881,928,-810,3992,-4,29,-16
2,1178,516654327,912,-813,3977,-45,141,-10
2,1179,516661773,907,-810,3988,36,-14,-27
2,1180,516669219,907,-810,3988,-13,22,-5
2,1181,516676666,958,-816,4023,-13,-1,-11
2,1182,516684112,946,-805,3925,-28,108,-4
2,1183,516691558,868,-838,4023,-123,264,-9
2,1184,516699005,868,-838,4023,-36,41,-25
2,1185,516706451,886,-834,3956,0,-37,-26
2,1186,516713897,1004,-798,3971,-52,41,-1
2,1187,516721343,946,-817,3952,-83,92,2
2,1188,516728790,946,-817,3952,-69,179,10
2,1189,516736236,759,-855,3912,61,26,-34
2,1190,516743713,852,-829,4004,19,49,-7
2,1191,516751159,929,-863,4000,-100,178,-25
2,1192,516758605,929,-863,4000,35,-77,-26
2,1193,516766052,964,-818,3864,-90,302,2
2,1194,516773498,873,-861,3907,-121,330,-14
2,1195,516780944,813,-776,3888,-150,551,2
2,1196,516788421,813,-776,3888,-218,735,-8
2,1197,516795867,753,-821,4099,-132,564,-6
2,1198,516803314,896,-887,3959,-215,817,5
2,1199,516810852,809,-825,3993,-87,527,-16
2,1200,516818298,809,-825,3993,-2,285,1
2,1201,516825744,881,-840,4041,-3,33,17
2,1202,516833221,758,-884,4144,-6,27,12
2,1203,516840667,966,-745,4506,-212,265,35
2,1204,516848205,966,-745,4506,-231,322,130
2,1205,516855651,640,-829,3301,82,378,17
2,1206,516863098,125,-1052,4071,47,38,-99
2,1207,516870544,969,-743,4192,-44,-133,-18
2,1208,516878082,969,-743,4192,24,-64,1
2,1209,516885528,967,-887,3902,-12,260,8
2,1210,516892974,547,-888,4162,-35,219,-7
2,1211,516900421,748,-839,4034,-15,-31,-12
2,1212,516907867,748,-839,4034,2,-41,4
2,1213,516915313,753,-880,3884,-3,56,-14
2,1214,516922821,665,-871,4042,-10,95,-19
2,1215,516930267,699,-854,4074,-7,70,-19
2,1216,516937713,699,-854,4074,-2,11,-21
2,1217,516945159,811,-820,4010,-5,3,24
2,1218,516952606,736,-906,4001,5,6,18
2,1219,516960052,654,-886,4011,-7,36,-19
2,1220,516967529,654,-886,4011,-9,25,-10
2,1221,516975067,720,-855,4031,-4,3,-11
2,1222,516982513,743,-884,4012,-6,10,-10
2,1223,516989959,728,-858,4011,-9,25,0
2,1224,516997406,728,-858,4011,-8,32,1
2,1225,517004852,714,-854,4016,-3,0,5
2,1226,517012329,679,-857,4013,-3,-2,2
2,1227,517019775,698,-874,4027,-4,0,-4
2,1228,517027221,698,-874,4027,-4,3,-2
2,1229,517034667,724,-875,4001,-4,16,-5
2,1230,517042114,719,-880,4006,-5,11,-10
2,1231,517049560,770,-871,3998,-4,9,-6
2,1232,517057037,770,-871,3998,-1,16,-1
2,1233,517064483,707,-861,4010,-1,15,1
2,1234,517071929,680,-868,4038,-3,3,-4
2,1235,517079437,718,-866,4009,0,-2,-1
2,1236,517086914,718,-866,4009,2,3,-3
2,1237,517094360,733,-861,4002,5,6,2
2,1238,517101867,712,-858,4017,4,6,4
2,1239,517109344,700,-863,4021,3,-9,0
2,1240,517116790,700,-863,4021,1,-7,1
2,1241,517124237,714,-867,4007,2,6,-1
2,1242,517131683,717,-868,4003,-1,12,-3
2,1243,517139129,721,-871,4011,-2,13,-8
2,1244,517146575,721,-871,4011,-4,12,-9
2,1245,517154022,744,-889,4020,-2,9,-9
2,1246,517161468,749,-881,4022,-7,13,-7
2,1247,517168914,727,-873,4014,-6,20,-11
2,1248,517176422,727,-873,4014,-11,20,-10
2,1249,517183868,749,-855,4056,-25,-2,-2
2,1250,517191314,817,-848,4082,-30,-7,10
2,1251,517198760,804,-836,4071,-29,2,36
2,1252,517206207,804,-836,4071,-30,1,42
2,1253,517213653,723,-874,4108,-36,-28,46
2,1254,517221099,836,-868,4081,-41,-10,57
2,1255,517228546,836,-890,4084,-33,45,73
2,1256,517235992,836,-890,4084,-29,110,76
2,1257,517243469,969,-894,4268,8,156,107
2,1258,517250915,1278,-1084,5246,175,181,120
2,1259,517258361,1687,-1900,6069,1006,813,319
2,1260,517265808,1687,-1900,6069,1768,1952,258
2,1261,517273254,1453,-2218,6338,3861,6144,-203
2,1262,517280700,1331,-944,7448,3974,8159,-107
2,1263,517288208,4995,1526,2458,13117,-26211,491
2,1264,517295654,4995,1526,2458,7713,-7915,656
2,1265,517303100,-1863,3480,2320,-2386,9102,-524
2,1266,517310546,-4450,-3776,12434,-2223,7144,-547
2,1267,517317993,-2729,-2384,6902,799,4608,-181
2,1268,517325439,-2729,-2384,6902,1920,2930,124
2,1269,517332885,-1048,-1288,3250,3109,3193,-629
2,1270,517340332,-633,-153,2971,2352,4403,-1003
2,1271,517347778,-1541,618,3862,110,6402,-1532
2,1272,517355224,-1541,618,3862,-628,6904,-1889
2,1273,517362670,-2852,1165,5271,-1669,5870,-2106
2,1274,517370117,830,1544,6528,-1766,4103,-1554
2,1275,517377563,2117,494,5944,-1800,-38,-183
2,1276,517385009,2117,494,5944,-1945,-752,9
2,1277,517392456,461,167,3516,-2361,96,-84
2,1278,517399902,613,1057,3081,-2512,-215,-71
2,1279,517407348,1218,1634,2214,-2832,-702,421
2,1280,517414794,1218,1634,2214,-2864,-713,713
2,1281,517422241,896,1432,1325,-2521,-624,1034
2,1282,517429687,528,1384,1054,-2249,-461,1117
2,1283,517437133,611,1226,1164,-1606,-76,1322
2,1284,517444580,611,1226,1164,-1280,-188,1630
2,1285,517452026,575,569,1636,-840,-598,2090
2,1286,517459472,24,-207,2108,-830,-817,2184
2,1287,517466949,-250,-519,2138,-959,-2082,2534
2,1288,517474395,-250,-519,2138,-953,-2720,2614
2,1289,517481842,-719,-624,1393,-1061,-3866,2498
2,1290,517489288,-486,-1854,1169,-1180,-4520,2694
2,1291,517496734,-2072,-3818,-2035,-220,-5926,2808
2,1292,517504180,-2072,-3818,-2035,1791,-5279,1617
2,1293,517511688,-4588,-3161,9134,584,-14760,-94
2,1294,517519134,-5866,1184,17357,-3660,-10371,-350
2,1295,517526580,-476,-777,-721,-2164,-2450,-232
2,1296,517534027,-476,-777,-721,-767,-957,-50
2,1297,517541473,1961,-1756,4305,-2245,2807,-892
2,1298,517548919,2091,-1415,13626,-3093,-2207,-954
2,1299,517556365,1062,-1455,797,314,-3813,-667
2,1300,517563812,1062,-1455,797,1157,1978,-292
2,1301,517571258,494,-803,385,1247,3601,-320
2,1302,517578704,415,-874,6822,910,2048,-365
2,1303,517586151,562,-1359,4258,1064,945,-456
2,1304,517593597,562,-1359,4258,1686,2805,-435
2,1305,517601043,391,-1470,3533,1885,3808,-491
2,1306,517608489,290,-851,4509,1876,4568,-512
2,1307,517615936,130,-467,4855,1879,5745,-422
2,1308,517623382,130,-467,4855,1606,5900,-387
2,1309,517630828,-444,-445,5490,1250,5208,-591
2,1310,517638275,2987,3828,-1730,4053,-3778,-725
2,1311,517645721,3108,-667,3581,3638,-6158,833
2,1312,517653167,3108,-667,3581,-1774,-879,425
2,1313,517660614,-4602,-2979,4758,-1739,4357,-608
2,1314,517668060,-1820,136,7115,-1975,4693,-334
2,1315,517675506,-30,-375,6305,152,729,-262
2,1316,517682952,-30,-375,6305,67,1945,-513
2,1317,517690399,-1270,-187,3169,-33,1902,-842
2,1318,517697845,-626,-769,3706,-331,2160,-886
2,1319,517705291,275,-284,4530,-1495,2500,-993
2,1320,517712738,275,-284,4530,-1488,954,-696
2,1321,517720184,1331,727,3166,-1322,-2096,-21
2,1322,517727630,829,-43,2033,-1275,-3608,201
2,1323,517735076,643,-804,-1624,-314,-3151,217
2,1324,517742523,643,-804,-1624,723,-253,-54
2,1325,517749969,318,-752,3810,43,-2816,-21
2,1326,517757415,-665,-230,8684,-1299,-3292,-44
2,1327,517764862,-844,-364,3890,-1418,-4293,66
2,1328,517772308,-844,-364,3890,-1249,-4510,74
2,1329,517779754,386,-29,4643,-2771,-3100,-164
2,1330,517787200,1815,-99,7623,-3877,-2987,93
2,1331,517794647,1316,-1817,1559,-822,-1038,-97
2,1332,517802093,1316,-1817,1559,863,166,-57
2,1333,517809539,1654,-2234,5865,229,234,6
2,1334,517816986,256,-820,6505,192,-294,46
2,1335,517824523,168,-784,3172,656,-688,53
2,1336,517831970,168,-784,3172,603,52,-49
2,1337,517839416,473,-879,3464,553,463,-262
2,1338,517846893,556,-762,4882,781,35,-276
2,1339,517854339,948,-815,7743,1291,-1997,-226
2,1340,517861846,948,-815,7743,1389,-2912,-232
2,1341,517869384,1089,-1193,4960,3276,5725,-783
2,1342,517876831,10,-1427,5225,3039,8009,-1124
2,1343,517884277,-724,-600,7223,2313,11022,-1655
2,1344,517891723,-724,-600,7223,1820,10892,-1746
2,1345,517899169,2159,1932,2699,8831,-13991,-795
2,1346,517906616,2821,2495,-14679,12413,-4927,98
2,1347,517914062,-305,-1298,12788,348,-5029,500
2,1348,517921508,-305,-1298,12788,-1157,-395,-88
2,1349,517928955,-2665,33,4353,-1679,2405,-180
2,1350,517936401,-1253,119,4667,-1221,1319,83
2,1351,517943847,-333,-286,3429,-60,846,-213
2,1352,517951293,-333,-286,3429,-140,1359,-461
2,1353,517958770,-106,45,3967,-1131,1862,-628
2,1354,517966217,-319,316,5155,-1816,2176,-694
2,1355,517973663,748,1083,5942,-3431,1340,-364
2,1356,517981109,748,1083,5942,-4095,-274,249
2,1357,517988555,1289,1339,4064,-4946,-2798,768
2,1358,517996002,584,838,2655,-5241,-4267,1036
2,1359,518003479,-347,-814,76,-5107,-7143,1840
2,1360,518010925,-347,-814,76,-3104,-6917,1308
2,1361,518018371,-1571,-2493,-5162,924,-3297,-16
2,1362,518025817,-592,-934,-319,1948,-1817,-705
2,1363,518033264,1442,936,11967,238,-4946,-193
2,1364,518040710,1442,936,11967,-1727,-6706,224
2,1365,518048187,2128,-701,11604,-2860,680,-20
2,1366,518055633,1715,-2465,3680,-1142,-78,-158
2,1367,518063079,1588,-2018,7644,340,779,-1
2,1368,518070526,1588,-2018,7644,199,23,-128
2,1369,518077972,259,-585,4437,258,109,30
2,1370,518085479,464,-616,2767,385,226,83
2,1371,518092956,640,-1064,5154,627,-787,-39
2,1372,518100402,640,-1064,5154,995,-579,-78
2,1373,518107849,686,-1309,4767,1494,722,-232
2,1374,518115295,901,-1044,4785,1909,1573,-312
2,1375,518122802,510,-839,5883,2538,3227,-531
2,1376,518130249,510,-839,5883,2507,4141,-662
2,1377,518137817,41,-770,6196,1816,5899,-822
2,1378,518145263,-136,-362,6913,736,6268,-1010
2,1379,518152709,-309,174,4991,-530,6242,-888
2,1380,518160156,-309,174,4991,-955,5737,-915
2,1381,518167602,181,562,314,1296,3946,-470
2,1382,518175048,1887,135,-11831,6277,4504,284
2,1383,518182586,-1528,-796,9140,3419,524,-209
2,1384,518190032,-1528,-796,9140,2956,311,-207
2,1385,518197479,-184,931,10480,-180,-364,-19
2,1386,518204925,-836,345,7001,-1108,-423,-147
2,1387,518212432,-359,118,4791,-1364,-660,-132
2,1388,518219879,-359,118,4791,-1804,-501,15
2,1389,518227325,208,227,5312,-2553,-64,69
2,1390,518234771,-202,285,4093,-2824,-29,64
2,1391,518242218,-191,418,3522,-3190,-527,40
2,1392,518249664,-191,418,3522,-3428,-1319,197
2,1393,518257110,228,748,3106,-3517,-3410,552
2,1394,518264556,383,413,1075,-3371,-4063,728
2,1395,518272064,-337,-1423,-1806,-3194,-4610,1582
2,1396,518279510,-337,-1423,-1806,-1429,-4152,979
2,1397,518286956,-1061,-2756,-4552,891,-1381,75
2,1398,518294403,-479,-1097,-1217,1398,-270,-449
2,1399,518301849,405,455,3850,1234,-4679,-36
2,1400,518309295,405,455,3850,1338,-5952,200
2,1401,518316741,-807,-100,13484,-2751,-11456,185
2,1402,518324249,2888,-1541,15321,-4766,1580,461
2,1403,518331695,2187,-3429,7220,1581,-312,-421
2,1404,518339141,2187,-3429,7220,1459,1325,-290
2,1405,518346588,887,-124,351,-73,4609,124
2,1406,518354034,-415,-311,3917,133,1595,0
2,1407,518361511,-184,-799,2469,116,-1275,-43
2,1408,518368957,-184,-799,2469,-236,-1413,-1
2,1409,518376403,519,-1268,3824,-434,-2967,-29
2,1410,518383850,1046,-844,4840,-560,-2658,-14
2,1411,518391296,1057,-884,4579,-313,287,50
2,1412,518398742,1057,-884,4579,237,698,-31
2,1413,518406188,725,-957,4309,188,1380,-31
2,1414,518413635,473,-859,3970,34,1152,-28
2,1415,518421081,473,-820,3684,11,-340,-29
2,1416,518428527,473,-820,3684,-92,-501,-8
2,1417,518436035,564,-897,3684,-110,-785,-29
2,1418,518443481,723,-873,4246,-109,-588,-19
2,1419,518450927,759,-891,4251,13,140,-22
2,1420,518458374,759,-891,4251,83,296,-24
2,1421,518465820,643,-866,4016,-8,366,-12
2,1422,518473266,570,-878,3974,-7,86,-17
2,1423,518480712,625,-882,3921,-46,-247,-9
2,1424,518488159,625,-882,3921,-52,-272,-10
2,1425,518495605,645,-893,4002,-18,-38,-18
2,1426,518503051,691,-889,4116,-3,65,-20
2,1427,518510498,644,-867,4016,10,133,-17
2,1428,518517944,644,-867,4016,-2,88,-16
2,1429,518525390,611,-870,3988,-23,-64,-15
2,1430,518532836,602,-898,3987,-30,-50,-24
2,1431,518540283,711,-880,4055,-6,-13,-21
2,1432,518547729,711,-880,4055,-10,2,-14
2,1433,518555175,675,-859,4040,-4,36,-9
2,1434,518562683,614,-863,4003,-2,14,-8
2,1435,518570159,644,-888,3978,-8,-1,-10
2,1436,518577606,644,-888,3978,-10,-13,-7
2,1437,518585052,670,-892,4030,-8,-8,-4
2,1438,518592498,661,-888,4042,-10,2,-3
2,1439,518599945,628,-884,4031,-5,40,-9
2,1440,518607391,628,-884,4031,-10,21,-8
2,1441,518614837,667,-886,4049,-16,-8,-7
2,1442,518622283,644,-892,4001,-19,2,-10
2,1443,518629730,620,-880,4033,-17,2,-5
2,1444,518637176,620,-880,4033,-16,2,-12
2,1445,518644622,670,-911,3988,-7,17,-14
2,1446,518652069,675,-895,4001,-15,7,-13
2,1447,518659515,626,-915,4042,-20,-2,-9
2,1448,518666961,626,-915,4042,-14,-6,-13
2,1449,518674407,626,-890,4030,-12,0,-11
2,1450,518681854,660,-873,4000,-13,4,-11
2,1451,518689300,654,-871,4013,-13,7,-10
2,1452,518696746,654,-871,4013,-14,-4,-9
2,1453,518704193,642,-875,4025,-11,-4,-9
2,1454,518711639,653,-888,4008,-11,4,-9
2,1455,518719085,649,-888,4026,-14,2,-6
2,1456,518726531,649,-888,4026,-15,-1,-6
2,1457,518733978,646,-882,4019,-12,0,-6
2,1458,518741424,625,-881,4000,-10,8,-6
2,1459,518748870,629,-868,4030,-5,4,-3
2,1460,518756317,629,-868,4030,-8,-7,-10
2,1461,518763763,675,-935,4019,-14,3,-10
2,1462,518771209,671,-912,4000,-13,2,-9
2,1463,518778656,627,-907,4010,-12,15,-10
2,1464,518786102,627,-907,4010,-11,4,-10
2,1465,518793548,640,-893,4006,-7,3,-10
2,1466,518800994,659,-867,3995,-6,4,-8
2,1467,518808441,650,-866,4024,-8,6,-4
2,1468,518815887,650,-866,4024,-6,4,-6
2,1469,518823333,630,-889,4016,-4,7,-6
2,1470,518830780,654,-891,4009,-5,8,-6
2,1471,518838226,656,-895,4003,-4,13,-5
2,1472,518845672,656,-895,4003,-2,12,-3
2,1473,518853118,648,-895,4014,-6,7,-4
2,1474,518860565,644,-904,4021,-8,7,-6
2,1475,518868011,651,-899,4011,-6,11,-6
2,1476,518875457,651,-899,4011,-4,15,-6
2,1477,518882904,644,-885,4020,-8,10,-4
2,1478,518890350,635,-886,4029,-6,4,-5
2,1479,518897796,637,-874,4003,-4,10,-6
2,1480,518905273,637,-874,4003,-3,21,-8
2,1481,518912719,626,-853,3989,-1,23,-14
2,1482,518920166,646,-830,4002,-1,28,-13
2,1483,518927612,655,-846,4043,-5,45,-23
2,1484,518935058,655,-846,4043,-5,67,-18
2,1485,518942504,671,-887,4065,4,94,-5
2,1486,518949951,620,-942,4024,8,95,4
2,1487,518957397,561,-990,3982,4,81,-4
2,1488,518964843,561,-990,3982,-3,61,-11
2,1489,518972290,564,-950,4009,-2,39,-19
2,1490,518979736,593,-911,4010,-2,42,-25
2,1491,518987182,636,-893,4025,-2,55,-28
2,1492,518994628,636,-893,4025,-3,57,-25
2,1493,519002075,661,-871,4021,-3,55,-28
2,1494,519009521,674,-849,4024,-1,46,-27
2,1495,519016967,723,-844,4025,-7,31,-18
2,1496,519024414,723,-844,4025,-5,26,-9
2,1497,519031860,707,-859,4023,-5,18,2
2,1498,519039459,640,-884,4043,-7,15,7
2,1499,519046905,568,-926,4032,-7,17,4
2,1500,519054351,568,-926,4032,-6,23,-1
2,1501,519061798,542,-938,4001,-6,28,-15
2,1502,519069244,578,-923,4027,-13,22,-21
2,1503,519076690,619,-905,4041,-21,11,-26
2,1504,519084228,619,-905,4041,-10,21,-28
2,1505,519091674,641,-869,3958,-4,47,-16
2,1506,519099121,639,-858,4025,-5,22,-6
2,1507,519106567,675,-897,4054,-1,-10,7
2,1508,519114013,675,-897,4054,4,-16,13
2,1509,519121459,691,-838,4019,-2,25,8
2,1510,519128997,641,-887,4014,-2,31,10
2,1511,519136444,583,-910,4036,0,25,8
2,1512,519143890,583,-910,4036,-1,3,8
2,1513,519151336,582,-907,4018,-4,6,5
2,1514,519158782,576,-914,4017,-1,11,1
2,1515,519166229,574,-919,4022,1,31,-4
2,1516,519173675,574,-919,4022,-1,33,-9
2,1517,519181121,598,-903,4029,-4,20,-10
2,1518,519188568,626,-882,4018,-1,21,-10
2,1519,519196014,615,-866,4025,-1,28,-9
2,1520,519203460,615,-866,4025,1,16,-8
2,1521,519210906,670,-862,4042,-1,5,2
2,1522,519218383,645,-872,4023,1,4,2
2,1523,519225830,613,-895,4018,2,10,3
2,1524,519233276,613,-895,4018,0,10,3
2,1525,519240722,607,-904,4021,-1,5,3
2,1526,519248168,616,-909,4026,1,3,3
2,1527,519255615,613,-902,4022,-2,3,1
2,1528,519263092,613,-902,4022,-2,11,0
2,1529,519270538,610,-894,4026,-5,12,-3
2,1530,519277984,619,-886,4019,-4,6,-5
2,1531,519285430,620,-879,4014,-4,11,-3
2,1532,519292877,620,-879,4014,-1,9,-4
2,1533,519300323,610,-879,4023,-4,9,-2
2,1534,519307800,609,-883,4027,-3,5,-2
2,1535,519315246,602,-890,4027,-2,4,2
2,1536,519322692,602,-890,4027,-1,3,1
2,1537,519330139,609,-899,4007,0,9,3
2,1538,519337585,601,-897,4027,0,11,2
2,1539,519345092,608,-896,4030,-1,-3,2
2,1540,519352661,608,-896,4030,1,2,1
2,1541,519360107,613,-899,4014,-2,1,0
2,1542,519367553,616,-895,4030,-2,2,1
2,1543,519375000,615,-889,4028,-1,5,-2
2,1544,519382568,613,-886,4017,0,8,-1
2,1545,519390014,613,-886,4017,-2,9,-1
2,1546,519397491,611,-894,4023,-3,3,-2
2,1547,519404937,626,-893,4017,-2,1,-3
2,1548,519412384,608,-892,4023,-1,5,-1
2,1549,519419830,608,-892,4023,-3,3,-2
2,1550,519427276,596,-889,4033,0,0,-4
2,1551,519434722,624,-889,4021,-1,-2,-1
2,1552,519442199,623,-889,4024,-4,-6,-2
2,1553,519449645,623,-889,4024,-2,-8,0
2,1554,519457092,602,-889,4016,-2,1,-2
2,1555,519464538,613,-887,4015,-3,0,-3
2,1556,519471984,631,-891,4027,0,-3,0
2,1557,519479431,631,-891,4027,0,-1,-1
2,1558,519486968,617,-901,4016,-5,5,1
2,1559,519494506,607,-891,4044,-5,1,-1
2,1560,519501953,644,-887,4075,-15,3,5
2,1561,519509399,644,-887,4075,-26,8,10
2,1562,519516845,718,-903,4127,-48,37,32
2,1563,519524291,872,-884,4076,-34,54,62
2,1564,519531829,766,-930,3954,17,128,84
2,1565,519539306,766,-930,3954,2,157,90
2,1566,519546752,593,-1011,4434,-31,100,129
2,1567,519554199,597,-1398,5040,117,352,136
2,1568,519561645,569,-1255,4988,825,1598,135
2,1569,519569091,569,-1255,4988,1200,1909,94
2,1570,519576538,478,-1476,5887,2452,3021,-75
2,1571,519583984,260,-1461,5429,2469,4338,-222
2,1572,519591430,-443,-622,5037,3180,5999,-392
2,1573,519598876,-443,-622,5037,3345,6795,-429
2,1574,519606323,-1217,-385,6260,2617,7364,-589
2,1575,519613769,-1721,-435,7688,1996,6341,-676
2,1576,519621307,-2119,-255,6681,667,5549,-1199
2,1577,519628753,-2119,-255,6681,-429,4918,-1474
2,1578,519636199,-1768,69,7740,-3008,2430,-1819
2,1579,519643646,-940,945,7783,-4194,704,-1819
2,1580,519651092,-540,1901,5853,-6236,-2633,-1483
2,1581,519658538,-540,1901,5853,-6930,-3673,-1257
2,1582,519665985,-533,1160,3582,-7261,-6008,-1568
2,1583,519673431,491,8,1705,-7343,-6120,-1335
2,1584,519680877,4860,948,-1397,-5977,-6802,-23
2,1585,519688323,4860,948,-1397,-1568,-15448,2769
2,1586,519695770,7737,-863,-16414,4999,-3094,3770
2,1587,519703216,-1344,-1275,-16516,7492,7057,2110
2,1588,519710693,-374,3446,2966,10503,6062,1458
2,1589,519718139,-374,3446,2966,12365,-1173,836
2,1590,519725646,-3155,2597,-2032,12851,6684,-477
2,1591,519733123,-4953,2369,-1171,13080,8510,-443
2,1592,519740661,-3957,4269,22842,9004,-6414,490
2,1593,519748107,-3957,4269,22842,2581,-8739,1387
2,1594,519755554,-826,2695,7922,-2972,-2166,1580
2,1595,519763000,-5214,-895,4564,-3086,-1175,905
2,1596,519770446,-3497,-475,6375,-1758,-1301,573
2,1597,519777893,-3497,-475,6375,-911,-219,123
2,1598,519785339,-1311,-1241,4175,-1260,2064,-880
2,1599,519792785,-663,-1167,3952,-2060,2826,-1366
2,1600,519800231,88,446,4712,-4156,3311,-1571
2,1601,519807983,88,446,4712,-5194,2890,-1305
2,1602,519815429,713,1444,4917,-6908,-705,-605
2,1603,519822875,878,1549,3213,-7491,-2707,-77
2,1604,519830322,874,12,-1727,-6854,-5564,491
2,1605,519837768,874,12,-1727,-2779,-4168,-154
2,1606,519845214,-103,-1785,-6370,2959,-2815,-362
2,1607,519852722,27,-994,-1054,4658,52,-610
2,1608,519860198,1199,1742,20645,2102,-12647,-314
2,1609,519867645,1199,1742,20645,-1959,-11328,266
2,1610,519875091,1618,205,10904,-2787,-4535,392
2,1611,519882537,2443,-936,4880,-1542,-194,29
2,1612,519889984,3549,-1050,8031,-2502,920,185
2,1613,519897430,3549,-1050,8031,-2758,1020,148
2,1614,519904876,1055,-1171,3793,-340,976,-290
2,1615,519912322,310,-125,2264,-66,756,-89
2,1616,519919769,429,-712,3799,-406,779,-171
2,1617,519927215,429,-712,3799,-496,63,-344
2,1618,519934661,920,-1099,6353,-146,-2133,-154
2,1619,519942108,1112,-3106,7175,44,-357,-287
2,1620,519949554,-934,1952,-11715,3732,7500,-822
2,1621,519957000,-934,1952,-11715,10762,8583,-617
2,1622,519964447,-654,-534,8541,5218,3077,-2573
2,1623,519971893,1148,-1920,16968,3215,2490,-2360
2,1624,519979339,919,231,9921,-309,4640,-1227
2,1625,519986785,919,231,9921,-2694,4536,-797
2,1626,519994232,111,319,9965,-5741,3480,-850
2,1627,520001678,-355,509,6511,-6498,2522,-904
2,1628,520009124,869,1201,1231,-6909,-1454,-635
2,1629,520016571,869,1201,1231,-5198,-1559,47
2,1630,520024017,1850,758,-5351,-3229,-2361,293
2,1631,520031463,-75,544,-104,-3210,-2381,166
2,1632,520038909,398,1256,-1404,-2409,-154,136
2,1633,520046356,398,1256,-1404,-1975,-75,367
2,1634,520053802,785,362,-192,-909,-1848,545
2,1635,520061248,365,-1284,287,9,-2964,545
2,1636,520068695,128,-2185,787,1884,-3564,427
2,1637,520076141,128,-2185,787,2690,-2870,293
2,1638,520083587,304,-2652,2196,4397,-1143,-247
2,1639,520091033,508,-2816,8256,5010,-4205,-397
2,1640,520098480,-61,-588,-711,5845,1451,-629
2,1641,520105926,-61,-588,-711,7679,3943,-634
2,1642,520113372,73,-696,7491,4853,2337,-1165
2,1643,520120819,1079,370,13173,3411,1611,-942
2,1644,520128265,293,1110,9678,382,1551,-815
2,1645,520135711,293,1110,9678,-1711,1813,-366
2,1646,520143157,768,442,8052,-4334,1200,2
2,1647,520150604,561,266,4606,-4883,1092,-16
2,1648,520158050,870,395,3560,-5415,-351,361
2,1649,520165496,870,395,3560,-5087,-2041,482
2,1650,520172943,441,45,782,-3740,-2622,444
2,1651,520180389,306,-148,-1210,-3119,-2607,473
2,1652,520187835,217,-404,-3048,-1494,-1183,404
2,1653,520195281,217,-404,-3048,-486,1137,218
2,1654,520202728,388,-1033,-1682,1601,414,78
2,1655,520210174,311,-1445,-1371,2982,181,-65
2,1656,520217620,214,-1085,-1210,4630,608,-277
2,1657,520225067,214,-1085,-1210,5023,1093,-338
2,1658,520232513,-19,-69,14779,-295,-5936,-348
2,1659,520239959,632,-16,14993,-2558,-5502,23
2,1660,520247406,1650,-2412,3158,-790,-765,286
2,1661,520254852,1650,-2412,3158,-820,2045,-23
2,1662,520262298,1741,-3038,10141,726,-252,-345
2,1663,520269744,1531,0,2104,677,1269,112
2,1664,520277191,-42,-218,2006,57,1940,71
2,1665,520284637,-42,-218,2006,105,554,0
2,1666,520292083,-119,-668,3207,-131,-726,-10
2,1667,520299530,358,-1050,4324,-145,-1783,-73
2,1668,520306976,1208,-767,4282,-301,-2336,-2
2,1669,520314422,1208,-767,4282,-438,-864,73
2,1670,520321868,1083,-835,4306,214,508,-46
2,1671,520329315,866,-944,4454,224,816,-63
2,1672,520336761,662,-822,3980,-27,595,-38
2,1673,520344268,662,-822,3980,20,-37,-40
2,1674,520351715,602,-741,3577,-103,-449,1
2,1675,520359161,708,-838,3868,-88,-565,-6
2,1676,520366607,808,-827,4139,-9,-191,-15
2,1677,520374053,808,-827,4139,14,68,-23
2,1678,520381500,813,-829,4141,18,285,-25
2,1679,520389038,771,-835,4050,-10,226,-27
2,1680,520396484,732,-807,3924,-16,-82,-17
2,1681,520403930,732,-807,3924,-24,-135,-16
2,1682,520411376,730,-841,3931,-16,-109,-31
2,1683,520418823,806,-852,4045,-12,-29,-30
2,1684,520426391,802,-848,4075,-3,51,-31
2,1685,520433898,802,-848,4075,-10,42,-30
2,1686,520441345,786,-834,3999,-23,8,-27
2,1687,520448791,746,-823,4005,-23,-35,-30
2,1688,520456237,752,-828,3997,-28,-44,-32
2,1689,520463684,752,-828,3997,-25,-28,-34
2,1690,520471130,792,-824,4006,-25,1,-28
2,1691,520478668,803,-820,4022,-23,-4,-26
2,1692,520486114,771,-826,4004,-22,-16,-24
2,1693,520493560,771,-826,4004,-24,-25,-23
2,1694,520501007,785,-824,4000,-25,-29,-18
2,1695,520508453,778,-849,4017,-27,-26,-22
2,1696,520515899,777,-840,4029,-27,-27,-18
2,1697,520523376,777,-840,4029,-25,-25,-15
2,1698,520530822,802,-850,3980,-26,-9,-12
2,1699,520538269,810,-855,3972,-19,-20,-10
2,1700,520545715,779,-869,4012,-28,-26,-10
2,1701,520553161,779,-869,4012,-23,-36,-12
2,1702,520560699,765,-847,4018,-22,-15,-12
2,1703,520568176,791,-834,3975,-19,-1,-13
2,1704,520575622,797,-842,3961,-11,5,-10
2,1705,520583068,797,-842,3961,-13,7,-13
2,1706,520590515,772,-844,4001,-16,-15,-11
2,1707,520597961,776,-838,4004,-17,-11,-16
2,1708,520605407,784,-826,3998,-8,-6,-16
2,1709,520612884,784,-826,3998,-9,3,-16
2,1710,520620330,789,-844,4007,-15,4,-21
2,1711,520627777,837,-816,3998,-7,-11,-15
2,1712,520635223,804,-834,3958,-1,18,-8
2,1713,520642669,804,-834,3958,-3,12,-8
2,1714,520650115,757,-849,4011,-5,4,-16
2,1715,520657592,758,-845,4008,-5,9,-17
2,1716,520665069,781,-834,3997,-2,20,-13
2,1717,520672515,781,-834,3997,-4,7,-15
2,1718,520679962,816,-843,4007,-6,6,-9
2,1719,520687408,793,-837,4000,-3,2,-11
2,1720,520694854,780,-835,4002,-7,3,-8
2,1721,520702362,780,-835,4002,-4,13,-10
2,1722,520709808,799,-840,4008,-7,7,-10
2,1723,520717254,803,-847,3995,-3,5,-5
2,1724,520724700,782,-859,3998,-4,5,-6
2,1725,520732147,782,-859,3998,-6,3,-7
2,1726,520739593,776,-851,3998,-4,7,-3
2,1727,520747070,791,-852,3992,0,10,-4
2,1728,520754516,785,-850,3999,-2,12,-5
2,1729,520762054,785,-850,3999,-3,10,-6
2,1730,520769500,788,-832,3999,-3,4,-3
2,1731,520776947,794,-830,3992,-2,5,-3
2,1732,520784393,793,-833,4003,-5,8,-4
2,1733,520791931,793,-833,4003,-5,11,-5
2,1734,520799499,798,-838,4004,-1,10,-2
2,1735,520806976,802,-845,3996,-1,7,0
2,1736,520814422,783,-842,4000,-3,3,2
2,1737,520821868,783,-842,4000,0,1,4
2,1738,520829315,770,-836,4003,-3,2,3
2,1739,520836791,780,-840,4005,-3,4,2
2,1740,520844238,780,-846,4011,-3,-1,-2
2,1741,520851684,780,-846,4011,-3,-1,1
2,1742,520859130,780,-838,3995,-2,2,-3
2,1743,520866577,785,-842,4000,-4,3,-2
2,1744,520874023,783,-836,3998,-3,1,-1
2,1745,520881469,783,-836,3998,-3,2,-1
2,1746,520888916,792,-836,4004,1,2,2
2,1747,520896362,783,-844,4009,-2,-1,0
2,1748,520903869,755,-840,4006,-3,-3,-3
2,1749,520911346,755,-840,4006,-1,1,-5
2,1750,520918792,769,-841,3995,-3,4,-6
2,1751,520926239,799,-846,4000,-6,4,-6
2,1752,520933685,800,-842,3997,-1,-3,-5
2,1753,520941131,800,-842,3997,-4,0,-5
2,1754,520948577,790,-844,3999,-2,6,-6
2,1755,520956024,800,-841,4002,-4,9,-5
2,1756,520963470,806,-846,3997,0,2,-1
2,1757,520970916,806,-846,3997,-1,5,-1
2,1758,520978363,790,-847,4003,-4,0,-6
2,1759,520985809,794,-840,4002,-4,1,-2
2,1760,520993255,792,-848,4000,-2,0,1
2,1761,521000701,792,-848,4000,-1,3,-2
2,1762,521008148,782,-851,3994,-1,5,-4
2,1763,521015594,788,-845,4000,-2,8,-2
2,1764,521023040,781,-840,3999,-2,2,-4
2,1765,521030487,781,-840,3999,-3,2,-2
2,1766,521037933,786,-840,4005,-2,11,-3
2,1767,521045379,800,-838,3993,2,11,-1
2,1768,521052825,802,-837,4007,-2,4,1
2,1769,521060272,802,-837,4007,1,1,2
2,1770,521067718,801,-837,4012,-2,3,1
2,1771,521075164,800,-846,3991,-1,6,4
2,1772,521082611,796,-849,3992,-1,9,6
2,1773,521090057,796,-849,3992,0,7,3
2,1774,521097503,772,-849,4000,-3,3,3
2,1775,521104949,783,-846,4003,-7,5,0
2,1776,521112396,800,-846,4000,-4,10,-1
2,1777,521119842,800,-846,4000,-3,14,0
2,1778,521127288,785,-845,4005,-6,12,-1
2,1779,521134735,778,-838,4014,-6,8,-2
2,1780,521142181,782,-839,3996,-4,5,-3
2,1781,521149627,782,-839,3996,-4,9,-5
2,1782,521157073,790,-841,3981,-3,14,-3
2,1783,521164520,782,-835,4003,-4,9,-1
2,1784,521171966,783,-841,4007,-4,3,-1
2,1785,521179412,783,-841,4007,-4,4,-1
2,1786,521186859,784,-850,4001,-3,11,-2
2,1787,521194305,789,-844,3998,-3,12,0
2,1788,521201751,783,-852,4007,-4,5,-1
2,1789,521209197,783,-852,4007,-4,1,0
2,1790,521216644,781,-848,4006,-3,4,0
2,1791,521224090,784,-855,4007,-1,3,-3
2,1792,521231536,793,-847,4002,-4,6,-3
2,1793,521238983,793,-847,4002,-3,4,-2
2,1794,521246429,789,-837,4000,-5,4,-1
2,1795,521253875,782,-837,4009,-5,7,-3
2,1796,521261322,795,-842,4002,-3,6,-1
2,1797,521268768,795,-842,4002,-2,8,-1
2,1798,521276214,785,-835,3996,-1,1,2
2,1799,521283660,757,-839,4017,-3,-1,-2
2,1800,521291107,775,-841,4006,0,2,-4
2,1801,521298553,775,-841,4006,-3,5,-3
2,1802,521305999,802,-845,3996,-3,9,-2
2,1803,521313446,780,-844,3993,-3,9,-1
2,1804,521320892,767,-844,4004,-2,5,-3
2,1805,521328338,767,-844,4004,-3,1,-1
2,1806,521335784,794,-835,4005,-2,3,-3
2,1807,521343231,803,-839,4003,-1,6,-1
2,1808,521350677,783,-844,4008,-2,4,1
2,1809,521358123,783,-844,4008,-1,4,-1
2,1810,521365570,785,-845,4012,-1,3,-4
2,1811,521373016,792,-843,3994,-2,7,-4
2,1812,521380462,792,-845,4001,1,3,3
2,1813,521387908,792,-845,4001,0,4,1
2,1814,521395355,781,-851,4011,-1,2,0
2,1815,521402801,774,-843,4008,-1,5,-1
2,1816,521410247,794,-843,4002,-3,5,-2
2,1817,521417694,794,-843,4002,-1,1,1
2,1818,521425170,797,-841,4000,-2,1,-1
2,1819,521432617,782,-838,4003,0,4,0
2,1820,521440063,779,-840,4003,-2,1,-4
2,1821,521447509,779,-840,4003,-2,3,-4
2,1822,521454956,792,-848,3997,-2,1,-2
2,1823,521462402,799,-849,3997,-3,4,-2
2,1824,521469848,791,-842,3988,1,9,-1
2,1825,521477294,791,-842,3988,1,11,-1
2,1826,521484741,769,-835,4006,-1,3,-1
2,1827,521492187,805,-847,4005,1,2,1
2,1828,521499633,815,-848,3995,-1,5,1
2,1829,521507080,815,-848,3995,-3,9,3
2,1830,521514526,777,-845,4005,-4,9,0
2,1831,521521972,777,-845,4001,-2,10,-1
2,1832,521529418,779,-840,4001,-3,3,1
2,1833,521536865,779,-840,4001,-6,4,1
2,1834,521544311,777,-842,4005,-2,5,-4
2,1835,521551757,784,-844,4005,-1,8,-4
2,1836,521559295,792,-843,3999,-5,7,-4
2,1837,521566741,792,-843,3999,-4,5,-1
2,1838,521574188,787,-844,4003,-3,1,-4
2,1839,521581634,779,-845,4007,-4,1,-4
2,1840,521589080,788,-844,3994,-1,7,-7
2,1841,521596527,788,-844,3994,-1,8,-4
2,1842,521603973,805,-842,3994,-1,5,-2
2,1843,521611419,787,-841,4004,-2,1,-6
2,1844,521618865,788,-835,4000,-1,6,-4
2,1845,521626312,788,-835,4000,0,7,-3
2,1846,521633758,795,-844,3993,-2,8,-2
2,1847,521641204,796,-849,4007,-3,4,-1
2,1848,521648651,776,-837,4010,-4,3,-1
2,1849,521656097,776,-837,4010,-4,2,-1
2,1850,521663543,783,-845,3994,-3,12,-4
2,1851,521670989,798,-845,3999,-4,8,-5
2,1852,521678436,781,-843,3996,-6,10,-4
2,1853,521685882,781,-843,3996,-3,11,-3
2,1854,521693328,780,-837,4007,-2,1,-5
2,1855,521700775,779,-837,4008,-1,0,-3
2,1856,521708221,787,-841,3999,-3,5,-3
2,1857,521715667,787,-841,3999,-1,5,-1
2,1858,521723114,789,-838,4003,-1,1,-2
2,1859,521730560,794,-838,4008,-2,-1,1
2,1860,521738037,787,-832,4003,0,2,3
2,1861,521745483,787,-832,4003,0,5,2
2,1862,521752929,791,-840,4008,1,3,0
2,1863,521760375,784,-850,4001,0,1,-1
2,1864,521767822,784,-848,4001,-1,-4,-1
2,1865,521775268,784,-848,4001,0,1,-4
2,1866,521782714,804,-846,4000,-3,3,0
2,1867,521790161,800,-841,3998,2,1,-2
2,1868,521797607,786,-844,3999,-1,1,0
2,1869,521805053,786,-844,3999,-1,2,3
2,1870,521812500,800,-848,4009,1,-4,3
2,1871,521819946,787,-845,3998,-2,-2,1
2,1872,521827423,772,-844,4000,-4,0,3
2,1873,512889526,853,-1725,3644,-838,123,-273
2,1874,512896972,885,-1809,3884,-874,196,-258
2,1875,512904418,885,-1809,3884,-958,179,-266
2,1876,512911865,922,-1811,3958,-1022,-31,-294
2,1877,512919342,942,-1858,3590,-996,-84,-285
2,1878,512926788,918,-1825,3347,-911,-143,-273
2,1879,512934234,918,-1825,3347,-883,-85,-252
2,1880,512941680,833,-1748,3198,-793,66,-257
2,1881,512949127,781,-1753,3043,-729,196,-252
2,1882,512956573,846,-1835,3014,-605,404,-206
2,1883,512964050,846,-1835,3014,-560,445,-199
2,1884,512971557,929,-1846,3032,-476,356,-247
2,1885,512979003,928,-1834,3016,-430,274,-259
2,1886,512986450,765,-1788,3030,-364,150,-256
2,1887,512993896,765,-1788,3030,-336,117,-244
2,1888,513001342,713,-1772,3067,-269,40,-199
2,1889,513008819,785,-1686,3084,-215,-19,-219
2,1890,513016265,818,-1693,2905,1,-52,-237
2,1891,513023712,818,-1693,2905,83,39,-229
2,1892,513031158,714,-1635,2805,249,185,-264
2,1893,513038604,669,-1620,2873,327,272,-250
2,1894,513046051,691,-1606,2923,463,457,-262
2,1895,513053527,691,-1606,2923,525,561,-240
2,1896,513060974,674,-1618,3056,658,645,-267
2,1897,513068420,736,-1740,3156,705,726,-280
2,1898,513075866,792,-1876,3521,709,826,-198
2,1899,513083404,792,-1876,3521,690,781,-241
2,1900,513090850,809,-1993,4018,616,718,-241
2,1901,513098358,829,-2138,4439,539,659,-240
2,1902,513105804,886,-2140,4686,283,367,-273
2,1903,513113250,886,-2140,4686,193,240,-291
2,1904,513120819,820,-2078,4187,667,2901,-216
2,1905,513128265,582,-1449,5605,1480,1678,-413
2,1906,513135711,609,-2127,4322,989,1700,-610
2,1907,513143188,609,-2127,4322,594,1238,-464
2,1908,513150634,562,-2012,4033,-362,228,-275
2,1909,513158081,674,-2010,3702,-796,-375,-219
2,1910,513165527,1031,-1850,3158,-1015,-1546,-212
2,1911,513172973,1031,-1850,3158,-990,-1661,-186
2,1912,513180419,1047,-1800,2920,-718,-896,-228
2,1913,513187896,905,-1718,3430,-449,-799,-252
2,1914,513195343,871,-1786,3436,-169,-181,-328
2,1915,513202789,871,-1786,3436,-97,158,-278
2,1916,513210235,814,-1843,3669,-25,488,-192
2,1917,513217681,843,-1861,4033,-37,451,-239
2,1918,513225158,862,-1927,4046,-116,295,-215
2,1919,513232788,862,-1927,4046,-155,221,-194
2,1920,513240234,834,-1919,3909,-184,177,-188
2,1921,513247772,844,-1921,3807,-181,148,-179
2,1922,513255218,806,-1932,3818,-242,171,-164
2,1923,513262664,830,-1865,3727,-316,50,-160
2,1924,513270111,830,-1865,3727,-301,-7,-154
2,1925,513277587,882,-1832,3493,-229,-27,-119
2,1926,513285034,842,-1817,3329,-198,34,-102
2,1927,513292480,823,-1807,3396,-151,97,-62
2,1928,513299926,823,-1807,3396,-131,101,-46
2,1929,513307373,801,-1821,3518,-99,67,-14
2,1930,513314819,758,-1841,3589,-82,31,-8
2,1931,513322265,756,-1844,3521,-22,52,14
2,1932,513329711,756,-1844,3521,8,95,29
2,1933,513337158,806,-1849,3472,61,126,55
2,1934,513344604,787,-1858,3522,73,114,60
2,1935,513352111,722,-1853,3649,60,90,54
2,1936,513359588,722,-1853,3649,43,73,48
2,1937,513367034,615,-1821,3803,60,460,30
2,1938,513374481,0,-1684,4634,533,3804,63
2,1939,513381927,382,-1872,5052,1242,1689,-401
2,1940,513389373,382,-1872,5052,724,1943,-384
2,1941,513396820,602,-2268,4078,42,604,-92
2,1942,513404266,503,-1873,3721,-118,-13,-55
2,1943,513411712,579,-1942,2815,-865,-1045,-120
2,1944,513419158,579,-1942,2815,-1308,-1733,-129
2,1945,513426605,809,-1528,2248,-1907,-1734,-261
2,1946,513434051,850,-1502,3232,-1242,-1849,-291
2,1947,513441497,596,-1892,3528,36,-1187,5
2,1948,513448944,596,-1892,3528,252,72,87
2,1949,513456390,679,-2079,3772,131,718,-19
2,1950,513463836,856,-2077,4044,29,705,-38
2,1951,513471282,722,-2018,4022,-32,117,-4
2,1952,513478729,722,-2018,4022,-84,-1,-16
2,1953,513486175,729,-1968,3687,-130,-184,-16
2,1954,513493621,743,-1898,3407,-107,-174,2
2,1955,513501068,700,-1891,3326,-63,-59,30
2,1956,513508514,700,-1891,3326,-58,6,40
2,1957,513515960,693,-1885,3423,-27,20,43
2,1958,513523406,714,-1867,3484,-3,-19,35
2,1959,513530853,737,-1856,3373,60,-62,25
2,1960,513538299,737,-1856,3373,91,-30,37
2,1961,513545745,756,-1896,3308,135,44,65
2,1962,513553192,795,-1925,3380,160,49,68
2,1963,513560638,821,-1924,3419,215,59,78
2,1964,513568084,821,-1924,3419,239,61,83
2,1965,513575531,773,-1928,3421,256,71,118
2,1966,513582977,747,-1902,3470,281,61,130
2,1967,513590423,747,-1902,3470,307,45,135
2,1968,513597869,705,-1887,3543,330,41,142
2,1969,513605316,631,-1856,3572,336,58,149
2,1970,513612762,573,-1886,3692,338,110,156
2,1971,513620208,573,-1886,3692,310,140,139
2,1972,513627655,500,-1887,3918,249,108,104
2,1973,513635101,388,-1921,4103,268,351,100
2,1974,513642547,213,-1577,5048,1225,1978,28
2,1975,513649993,213,-1577,5048,931,1392,-123
2,1976,513657440,463,-2133,4119,219,1411,-79
2,1977,513664886,526,-2081,4378,48,527,-14
2,1978,513672332,414,-1912,3695,-293,-374,-20
2,1979,513679779,414,-1912,3695,-420,-668,-20
2,1980,513687255,393,-1721,3246,-444,-1555,-73
2,1981,513694702,748,-1778,2965,-615,-1742,-90
2,1982,513702148,586,-1665,3407,-477,-1270,-30
2,1983,513709594,586,-1665,3407,-174,-1008,-3
2,1984,513717041,630,-1733,3751,118,-42,57
2,1985,513724487,570,-1888,3868,74,177,60
2,1986,513731933,581,-1908,3998,-46,82,23
2,1987,513739379,581,-1908,3998,-50,30,16
2,1988,513746826,663,-1889,3898,-88,-63,6
2,1989,513754272,626,-1860,3786,-133,-92,0
2,1990,513761718,636,-1844,3720,-153,-99,7
2,1991,513769165,636,-1844,3720,-155,-76,10
2,1992,513776611,690,-1885,3766,-187,-76,12
2,1993,513784057,658,-1885,3757,-191,-111,9
2,1994,513791503,651,-1877,3579,-159,-161,8
2,1995,513798950,651,-1877,3579,-135,-144,11
2,1996,513806396,674,-1867,3403,-86,-81,25
2,1997,513813842,698,-1863,3366,-61,-70,35
2,1998,513821289,743,-1866,3332,-3,-60,53
2,1999,513828735,743,-1866,3332,35,-47,63
