event_id,seq,ts_us,ax,ay,az,gx,gy,gz
1,0,52270,1348,-16463,-1688,-1,-38,-46
1,1,52275,1410,-16403,-1505,3,-45,-45
1,2,52280,1534,-16327,-1379,5,-51,-48
1,3,52285,1498,-16272,-1232,3,-57,-46
1,4,52290,1502,-16264,-1200,1,-58,-43
1,5,52295,1598,-16168,-1225,-2,-49,-41
1,6,52300,1693,-16102,-1360,-6,-33,-36
1,7,52305,1735,-16107,-1256,-7,-17,-33
1,8,52310,1707,-16175,-1274,-17,3,-31
1,9,52315,1620,-16105,-1258,-20,25,-31
1,10,52320,1556,-16097,-1269,-24,44,-24
1,11,52325,1460,-16163,-1212,-26,58,-18
1,12,52330,1408,-16320,-1401,-32,65,-15
1,13,52335,1329,-16325,-1268,-28,60,-12
1,14,52340,1562,-16265,-1232,-25,46,-17
1,15,52345,1315,-16301,-1259,-28,37,-15
1,16,52350,1305,-16333,-1222,-26,24,-16
1,17,52355,1341,-16419,-1364,-26,16,-15
1,18,52360,1376,-16442,-1445,-24,12,-14
1,19,52365,1405,-16388,-1449,-22,6,-12
1,20,52370,1298,-16392,-1402,-22,-3,-11
1,21,52375,1182,-16406,-1270,-21,-14,-14
1,22,52380,1200,-16442,-1236,-21,-23,-15
1,23,52385,1267,-16427,-1296,-19,-30,-13
1,24,52390,1314,-16396,-1327,-16,-39,-13
1,25,52395,1300,-16350,-1352,-14,-46,-14
1,26,52400,1403,-16260,-1275,-14,-50,-15
1,27,52405,1462,-16241,-1241,-17,-44,-15
1,28,52410,1643,-16235,-1167,-21,-26,-11
1,29,52415,1789,-16239,-1371,-28,7,-6
1,30,52420,1617,-16155,-1106,-29,47,5
1,31,52425,1469,-16292,-1412,-47,72,5
1,32,52430,1382,-16321,-1293,-43,87,-2
1,33,52435,1453,-16285,-1142,-43,105,1
1,34,52440,902,-16552,-1452,-53,127,11
1,35,52445,1112,-16526,-1299,-45,117,7
1,36,52450,1051,-16560,-1302,-43,100,11
1,37,52455,947,-16631,-1362,-38,69,4
1,38,52460,923,-16667,-1334,-27,29,-4
1,39,52465,865,-16706,-1434,-23,-6,-8
1,40,52470,890,-16699,-1336,-16,-35,-11
1,41,52475,977,-16630,-1368,-9,-58,-13
1,42,52480,1141,-16509,-1498,-2,-98,-18
1,43,52485,1208,-16462,-1360,3,-113,-22
1,44,52490,1299,-16453,-1301,5,-117,-23
1,45,52495,1406,-16447,-1292,3,-116,-23
1,46,52500,1684,-16349,-1320,7,-102,-17
1,47,52505,1666,-16281,-1177,4,-84,-15
1,48,52510,2045,-16267,-1519,-4,-62,-18
1,49,52515,1999,-16144,-1140,-2,-19,-12
1,50,52520,1782,-16270,-1418,-23,32,-4
1,51,52525,1775,-16213,-1307,-21,75,-2
1,52,52530,1683,-16231,-1354,-29,122,8
1,53,52535,1276,-16340,-1368,-35,152,15
1,54,52540,1222,-16321,-1215,-30,148,11
1,55,52545,1006,-16422,-1153,-31,135,13
1,56,52550,786,-16477,-1127,-25,103,9
1,57,52555,858,-16512,-1120,-13,55,3
1,58,52560,836,-16482,-1201,-6,5,-1
1,59,52565,902,-16378,-1152,4,-45,-9
1,60,52570,1117,-16277,-1209,9,-87,-16
1,61,52575,1240,-16248,-1316,15,-109,-18
1,62,52580,1147,-16263,-1172,22,-111,-16
1,63,52585,1376,-16198,-1390,16,-107,-21
1,64,52590,1672,-16103,-1489,15,-86,-19
1,65,52595,1470,-16080,-1358,12,-56,-13
1,66,52600,1562,-16086,-1420,7,-29,-15
1,67,52605,1703,-16061,-1311,2,6,-14
1,68,52610,1624,-16100,-1207,-6,45,-7
1,69,52615,1611,-16129,-1230,-10,76,-2
1,70,52620,1528,-16118,-1229,-14,102,1
1,71,52625,1413,-16171,-1294,-17,119,4
1,72,52630,1277,-16261,-1226,-16,120,2
1,73,52635,1240,-16340,-1298,-17,112,2
1,74,52640,1174,-16367,-1278,-13,98,1
1,75,52645,1181,-16398,-1318,-7,76,-2
1,76,52650,1129,-16421,-1374,-3,46,-3
1,77,52655,1081,-16416,-1308,4,14,-8
1,78,52660,1086,-16397,-1320,10,-16,-13
1,79,52665,1255,-16370,-1388,12,-36,-16
1,80,52670,1361,-16369,-1358,18,-44,-14
1,81,52675,1397,-16325,-1363,17,-46,-16
1,82,52680,1677,-16261,-1532,14,-45,-17
1,83,52685,1654,-16189,-1299,14,-31,-12
1,84,52690,1808,-16179,-1327,12,-14,-14
1,85,52695,1886,-16192,-1242,5,11,-11
1,86,52700,1835,-16242,-1408,-3,48,-3
1,87,52705,1675,-16229,-1420,-5,76,3
1,88,52710,1624,-16234,-1391,-7,97,5
1,89,52715,1559,-16320,-1385,-12,110,6
1,90,52720,1528,-16359,-1259,-13,113,7
1,91,52725,1544,-16347,-1185,-12,108,8
1,92,52730,1494,-16419,-1299,-10,100,9
1,93,52735,1447,-16429,-1345,-10,88,8
1,94,52740,1490,-16357,-1455,-8,72,6
1,95,52745,1485,-16332,-1366,-4,62,6
1,96,52750,1491,-16368,-1382,-7,63,4
1,97,52755,1435,-16435,-1360,-5,64,6
1,98,52760,1346,-16423,-1379,-6,64,8
1,99,52765,1242,-16403,-1494,-6,61,7
1,100,52770,1174,-16378,-1436,-4,54,7
1,101,52775,1185,-16366,-1256,0,46,5
1,102,52780,1180,-16329,-1148,-1,35,1
1,103,52785,1175,-16281,-1176,-1,28,0
1,104,52790,1116,-16246,-1262,0,21,0
1,105,52795,1096,-16282,-1441,-1,15,0
1,106,52800,1213,-16245,-1437,1,13,-2
1,107,52805,1376,-16219,-1364,1,11,-6
1,108,52810,1464,-16201,-1281,0,18,-3
1,109,52815,1500,-16228,-1384,-3,28,-2
1,110,52820,1448,-16265,-1502,-7,42,-1
1,111,52825,1446,-16260,-1482,-7,51,1
1,112,52830,1493,-16303,-1491,-8,56,4
1,113,52835,1453,-16360,-1416,-7,59,3
1,114,52840,1445,-16386,-1410,-7,58,2
1,115,52845,1346,-16386,-1355,-7,57,3
1,116,52850,1232,-16376,-1418,-6,49,3
1,117,52855,1177,-16374,-1440,-4,37,2
1,118,52860,1203,-16419,-1349,0,19,-1
1,119,52865,1320,-16445,-1385,2,-2,-5
1,120,52870,1253,-16442,-1306,6,-16,-5
1,121,52875,1317,-16379,-1347,10,-31,-6
1,122,52880,1427,-16286,-1478,12,-41,-8
1,123,52885,1335,-16277,-1490,12,-41,-5
1,124,52890,1333,-16303,-1466,10,-37,-6
1,125,52895,1535,-16282,-1559,8,-29,-9
1,126,52900,1440,-16284,-1432,9,-14,-4
1,127,52905,1500,-16265,-1401,7,-5,-7
1,128,52910,1581,-16186,-1340,4,5,-5
1,129,52915,1429,-16225,-1278,3,16,-1
1,130,52920,1481,-16231,-1359,0,19,-1
1,131,52925,1574,-16167,-1252,2,21,-1
1,132,52930,1524,-16193,-1260,1,28,2
1,133,52935,1529,-16196,-1219,-1,29,2
1,134,52940,1600,-16264,-1355,-3,32,1
1,135,52945,1459,-16349,-1395,-4,39,4
1,136,52950,1385,-16375,-1477,-4,37,4
1,137,52955,1248,-16357,-1407,-4,36,4
1,138,52960,1267,-16415,-1473,-2,29,4
1,139,52965,1242,-16377,-1409,0,23,3
1,140,52970,1281,-16391,-1458,0,16,1
1,141,52975,1183,-16380,-1410,5,6,-1
1,142,52980,1118,-16416,-1496,4,-3,-3
1,143,52985,1127,-16391,-1614,9,-13,-3
1,144,52990,1280,-16324,-1503,13,-26,-4
1,145,52995,1435,-16306,-1335,15,-34,-7
1,146,53000,1669,-16274,-1374,13,-32,-9
1,147,53005,1621,-16229,-1281,14,-21,-5
1,148,53010,1519,-16239,-1435,8,-9,-4
1,149,53015,1618,-16145,-1478,7,2,-3
1,150,53020,1583,-16157,-1271,6,19,4
1,151,53025,1658,-16135,-1313,1,33,5
1,152,53030,1697,-16091,-1193,-3,47,3
1,153,53035,1530,-16114,-1201,-7,63,7
1,154,53040,1438,-16165,-1328,-9,75,9
1,155,53045,1415,-16161,-1393,-11,84,8
1,156,53050,1357,-16197,-1296,-13,90,10
1,157,53055,1282,-16275,-1394,-15,89,9
1,158,53060,1210,-16375,-1416,-15,82,10
1,159,53065,1139,-16409,-1459,-10,69,8
1,160,53070,1134,-16382,-1369,-4,46,6
1,161,53075,1176,-16385,-1287,-2,15,3
1,162,53080,1175,-16384,-1278,0,-13,0
1,163,53085,1291,-16361,-1378,5,-37,-3
1,164,53090,1502,-16282,-1393,9,-52,-5
1,165,53095,1571,-16282,-1485,10,-55,-3
1,166,53100,1516,-16284,-1358,8,-50,-2
1,167,53105,1698,-16275,-1496,2,-38,-6
1,168,53110,1634,-16278,-1487,2,-18,2
1,169,53115,1658,-16261,-1515,-4,2,3
1,170,53120,1735,-16266,-1509,-7,18,5
1,171,53125,1703,-16292,-1356,-10,35,9
1,172,53130,1590,-16321,-1312,-13,49,11
1,173,53135,1614,-16315,-1326,-16,62,11
1,174,53140,1561,-16300,-1433,-17,74,14
1,175,53145,1515,-16301,-1463,-18,77,19
1,176,53150,1428,-16285,-1322,-18,72,17
1,177,53155,1476,-16287,-1347,-20,65,15
1,178,53160,1495,-16204,-1179,-16,56,13
1,179,53165,1401,-16244,-1237,-18,47,15
1,180,53170,1392,-16289,-1358,-17,41,13
1,181,53175,1278,-16285,-1387,-15,39,16
1,182,53180,1178,-16296,-1483,-18,33,14
1,183,53185,1189,-16251,-1438,-15,26,11
1,184,53190,1140,-16259,-1348,-14,20,11
1,185,53195,1142,-16252,-1294,-14,10,8
1,186,53200,1271,-16237,-1258,-13,4,6
1,187,53205,1246,-16258,-1357,-13,8,6
1,188,53210,1166,-16231,-1464,-15,14,6
1,189,53215,1189,-16261,-1505,-17,20,4
1,190,53220,1231,-16271,-1424,-18,29,3
1,191,53225,1233,-16276,-1252,-20,44,5
1,192,53230,1269,-16251,-1427,-21,44,2
1,193,53235,1110,-16244,-1287,-17,45,4
1,194,53240,1098,-16334,-1404,-20,35,3
1,195,53245,1087,-16300,-1310,-18,24,-3
1,196,53250,1105,-16365,-1415,-20,16,-6
1,197,53255,1116,-16402,-1448,-18,3,-7
1,198,53260,1206,-16390,-1457,-15,-11,-11
1,199,53265,1226,-16382,-1432,-11,-25,-12
1,200,53270,1335,-16358,-1391,-8,-36,-14
1,201,53275,1438,-16336,-1390,-8,-43,-15
1,202,53280,1451,-16364,-1433,-8,-44,-14
1,203,53285,1458,-16355,-1479,-7,-42,-15
1,204,53290,1543,-16316,-1546,-10,-31,-15
1,205,53295,1601,-16328,-1514,-11,-23,-12
1,206,53300,1700,-16338,-1399,-11,-14,-13
1,207,53305,1760,-16337,-1217,-11,-5,-12
1,208,53310,1726,-16299,-1284,-14,6,-10
1,209,53315,1542,-16348,-1493,-18,18,-6
1,210,53320,1538,-16295,-1491,-20,24,-4
1,211,53325,1586,-16340,-1448,-21,30,-4
1,212,53330,1620,-16460,-1393,-22,38,-5
1,213,53335,1533,-16458,-1349,-21,46,-2
1,214,53340,1405,-16431,-1430,-21,51,0
1,215,53345,1248,-16367,-1421,-22,53,0
1,216,53350,1134,-16325,-1401,-19,47,0
1,217,53355,1128,-16335,-1315,-18,38,-3
1,218,53360,1140,-16443,-1346,-17,21,-4
1,219,53365,1290,-16458,-1360,-11,-1,-8
1,220,53370,1396,-16453,-1359,-6,-19,-10
1,221,53375,1359,-16364,-1366,-4,-35,-11
1,222,53380,1457,-16292,-1368,0,-50,-13
1,223,53385,1526,-16271,-1372,1,-51,-13
1,224,53390,1698,-16247,-1385,1,-47,-12
1,225,53395,1759,-16226,-1345,-4,-31,-9
1,226,53400,1743,-16222,-1387,-6,-11,-6
1,227,53405,1631,-16191,-1386,-9,8,-3
1,228,53410,1584,-16193,-1380,-11,26,-2
1,229,53415,1383,-16181,-1276,-12,44,4
1,230,53420,1300,-16254,-1275,-16,51,2
1,231,53425,1351,-16310,-1469,-16,52,-1
1,232,53430,1372,-16244,-1239,-11,52,1
1,233,53435,1311,-16306,-1449,-15,49,2
1,234,53440,1344,-16249,-1206,-10,41,2
1,235,53445,1308,-16316,-1314,-13,38,0
1,236,53450,1322,-16258,-1314,-10,36,-2
1,237,53455,1327,-16269,-1343,-11,31,-3
1,238,53460,1280,-16300,-1394,-11,29,-1
1,239,53465,1300,-16408,-1389,-8,27,-3
1,240,53470,1368,-16419,-1357,-8,28,-3
1,241,53475,1320,-16441,-1420,-8,29,-2
1,242,53480,1206,-16393,-1451,-5,28,-4
1,243,53485,1137,-16331,-1442,-3,17,-4
1,244,53490,1103,-16351,-1374,-1,6,-6
1,245,53495,1151,-16367,-1355,-1,-7,-8
1,246,53500,1218,-16362,-1331,2,-17,-10
1,247,53505,1266,-16343,-1419,4,-22,-10
1,248,53510,1316,-16269,-1428,6,-29,-13
1,249,53515,1375,-16242,-1405,5,-30,-15
1,250,53520,1403,-16296,-1446,4,-26,-13
1,251,53525,1471,-16234,-1401,5,-18,-12
1,252,53530,1610,-16228,-1402,3,-7,-12
1,253,53535,1530,-16249,-1394,0,9,-10
1,254,53540,1494,-16239,-1328,-1,21,-10
1,255,53545,1457,-16268,-1336,-4,31,-6
1,256,53550,1387,-16339,-1390,-6,38,-5
1,257,53555,1347,-16361,-1413,-2,37,-5
1,258,53560,1407,-16345,-1345,1,26,-4
1,259,53565,1446,-16341,-1277,4,9,-6
1,260,53570,1439,-16286,-1315,4,-7,-10
1,261,53575,1492,-16256,-1366,7,-17,-9
1,262,53580,1524,-16248,-1358,7,-18,-7
1,263,53585,1535,-16279,-1473,6,-12,-6
1,264,53590,1586,-16253,-1621,7,-5,-5
1,265,53595,1506,-16240,-1505,7,1,-2
1,266,53600,1456,-16226,-1358,6,4,-6
1,267,53605,1474,-16264,-1272,6,3,-5
1,268,53610,1423,-16290,-1197,6,3,-2
1,269,53615,1504,-16263,-1273,5,3,-2
1,270,53620,1470,-16251,-1323,6,7,0
1,271,53625,1375,-16243,-1411,6,9,1
1,272,53630,1414,-16278,-1349,6,10,-1
1,273,53635,1460,-16239,-1287,4,14,-1
1,274,53640,1466,-16261,-1269,2,19,3
1,275,53645,1625,-16310,-1410,3,19,5
1,276,53650,1609,-16289,-1433,4,18,5
1,277,53655,1572,-16254,-1412,5,14,5
1,278,53660,1617,-16262,-1514,4,11,2
1,279,53665,1604,-16321,-1473,5,13,4
1,280,53670,1549,-16367,-1516,7,20,7
1,281,53675,1532,-16343,-1592,6,27,9
1,282,53680,1498,-16306,-1430,8,26,11
1,283,53685,1518,-16332,-1449,7,22,10
1,284,53690,1499,-16325,-1357,9,17,8
1,285,53695,1409,-16348,-1357,10,16,8
1,286,53700,1230,-16330,-1325,10,14,10
1,287,53705,1208,-16310,-1412,10,13,9
1,288,53710,1305,-16308,-1414,10,14,9
1,289,53715,1325,-16308,-1381,10,10,9
1,290,53720,1397,-16268,-1339,9,8,5
1,291,53725,1254,-16330,-1352,6,13,7
1,292,53730,1149,-16325,-1405,9,16,7
1,293,53735,1328,-16318,-1430,8,20,5
1,294,53740,1359,-16251,-1428,8,25,6
1,295,53745,1291,-16289,-1363,7,28,6
1,296,53750,1209,-16361,-1390,6,29,4
1,297,53755,1130,-16424,-1450,6,29,4
1,298,53760,1152,-16389,-1453,8,24,2
1,299,53765,1201,-16339,-1424,11,15,3
1,300,53770,1116,-16333,-1402,13,3,0
1,301,53775,1098,-16296,-1308,16,-13,-4
1,302,53780,1152,-16258,-1301,18,-31,-7
1,303,53785,1161,-16214,-1301,19,-44,-7
1,304,53790,1253,-16136,-1330,22,-54,-8
1,305,53795,1389,-16147,-1381,22,-60,-9
1,306,53800,1483,-16133,-1362,21,-62,-11
1,307,53805,1595,-16148,-1386,20,-56,-11
1,308,53810,1605,-16170,-1458,18,-43,-11
1,309,53815,1667,-16159,-1460,16,-27,-9
1,310,53820,1673,-16137,-1424,14,-8,-5
1,311,53825,1651,-16139,-1334,11,10,-2
1,312,53830,1637,-16129,-1281,7,21,-1
1,313,53835,1624,-16181,-1306,5,31,1
1,314,53840,1544,-16266,-1375,5,34,2
1,315,53845,1435,-16325,-1429,2,33,4
1,316,53850,1430,-16325,-1387,5,27,5
1,317,53855,1578,-16302,-1344,9,15,4
1,318,53860,1568,-16276,-1309,9,6,4
1,319,53865,1541,-16305,-1344,9,-3,3
1,320,53870,1499,-16320,-1502,9,-7,2
1,321,53875,1569,-16354,-1551,10,-11,3
1,322,53880,1699,-16364,-1543,10,-6,5
1,323,53885,1680,-16359,-1488,9,1,7
1,324,53890,1560,-16377,-1463,8,9,7
1,325,53895,1460,-16340,-1443,8,13,10
1,326,53900,1424,-16264,-1390,7,18,9
1,327,53905,1404,-16239,-1367,4,24,10
1,328,53910,1322,-16245,-1332,5,28,11
1,329,53915,1253,-16229,-1326,1,33,9
1,330,53920,1149,-16240,-1452,-1,38,11
1,331,53925,1076,-16224,-1447,-1,34,11
1,332,53930,1112,-16236,-1320,1,28,11
1,333,53935,1113,-16255,-1300,3,17,9
1,334,53940,1090,-16233,-1401,6,2,5
1,335,53945,1063,-16231,-1466,6,-15,5
1,336,53950,1036,-16257,-1508,8,-33,7
1,337,53955,965,-16289,-1546,12,-57,8
1,338,53960,1394,-16285,-1745,16,-82,8
1,339,53965,1658,-16163,-1340,27,-101,12
1,340,53970,1874,-16176,-1524,23,-110,11
1,341,53975,1734,-16115,-1311,23,-104,14
1,342,53980,1716,-16130,-1639,13,-85,22
1,343,53985,1783,-16064,-1566,14,-59,30
1,344,53990,1982,-16009,-1556,5,-19,40
1,345,53995,1863,-16022,-1577,-5,29,53
1,346,54000,1245,-16096,-1695,-25,104,68
1,347,54005,1053,-16082,-1660,-27,124,79
1,348,54010,1120,-15986,-1411,-26,134,86
1,349,54015,936,-16143,-1343,-32,140,93
1,350,54020,702,-16313,-1348,-36,133,98
1,351,54025,516,-16359,-1291,-32,110,102
1,352,54030,426,-16404,-1488,-30,75,108
1,353,54035,431,-16331,-1595,-19,29,113
1,354,54040,667,-16133,-1374,-11,-20,112
1,355,54045,572,-16160,-1170,-11,-57,116
1,356,54050,354,-16280,-1199,-14,-84,121
1,357,54055,79,-16275,-1488,-17,-105,128
1,358,54060,8,-16147,-1593,-13,-129,138
1,359,54065,160,-16052,-1509,-5,-161,144
1,360,54070,468,-16026,-1242,-3,-196,150
1,361,54075,583,-16042,-1020,-3,-223,151
1,362,54080,482,-16054,-1175,-10,-235,160
1,363,54085,376,-16003,-1583,-15,-238,176
1,364,54090,616,-15818,-1735,-15,-235,188
1,365,54095,877,-15709,-1609,-21,-221,202
1,366,54100,1098,-15730,-1442,-32,-194,216
1,367,54105,1277,-15714,-1260,-43,-153,230
1,368,54110,1163,-15759,-1432,-59,-99,254
1,369,54115,820,-15896,-1771,-75,-46,278
1,370,54120,542,-15988,-1867,-85,-9,297
1,371,54125,464,-15992,-1780,-92,9,311
1,372,54130,99,-16075,-1513,-98,13,324
1,373,54135,-282,-16230,-1447,-100,0,335
1,374,54140,-698,-16360,-1444,-99,-33,347
1,375,54145,-754,-16386,-1698,-96,-90,356
1,376,54150,-673,-16316,-1546,-86,-156,360
1,377,54155,-603,-16428,-1605,-84,-223,363
1,378,54160,-763,-16496,-1570,-78,-286,370
1,379,54165,-656,-16489,-1691,-75,-337,378
1,380,54170,-397,-16448,-1828,-70,-377,387
1,381,54175,-260,-16432,-1730,-68,-410,397
1,382,54180,-231,-16588,-2001,-75,-424,409
1,383,54185,-143,-16548,-1690,-71,-428,422
1,384,54190,125,-16588,-1770,-79,-424,433
1,385,54195,474,-16557,-1826,-86,-403,447
1,386,54200,491,-16482,-1853,-97,-363,468
1,387,54205,437,-16442,-1988,-111,-317,484
1,388,54210,140,-16472,-2123,-123,-261,503
1,389,54215,-253,-16566,-1972,-135,-209,524
1,390,54220,-181,-16552,-1982,-149,-177,538
1,391,54225,-307,-16483,-1454,-149,-159,555
1,392,54230,-521,-16528,-1589,-157,-161,564
1,393,54235,-1103,-16598,-1436,-157,-181,571
1,394,54240,-1227,-16706,-1877,-164,-210,570
1,395,54245,-1394,-16652,-1649,-159,-234,580
1,396,54250,-868,-16676,-2213,-164,-246,585
1,397,54255,-1673,-16575,-1283,-153,-252,603
1,398,54260,404,-16140,-2499,-171,-271,598
1,399,54265,-3548,-16685,56,-190,-186,718
1,400,54270,-4738,-18285,-5213,-196,-317,628
1,401,54275,-311,-15338,1426,24,-505,533
1,402,54280,-690,-15906,-447,-199,-425,619
1,403,54285,-3625,-17978,-4428,-250,-440,648
1,404,54290,-686,-16032,-427,-33,-558,562
1,405,54295,-1111,-15921,-1339,-121,-502,605
1,406,54300,-1459,-16515,-2661,-180,-433,638
1,407,54305,-900,-16369,-1954,-148,-402,638
1,408,54310,-786,-16390,-1900,-153,-353,646
1,409,54315,-754,-16183,-1304,-162,-310,651
1,410,54320,-835,-16351,-1783,-185,-268,661
1,411,54325,-1553,-16441,-1698,-184,-240,671
1,412,54330,-1408,-16479,-1773,-184,-240,671
1,413,54335,-1835,-16542,-1764,-184,-237,678
1,414,54340,-1557,-16584,-1755,-181,-248,679
1,415,54345,-1861,-16709,-1861,-180,-264,680
1,416,54350,-1828,-16659,-1661,-168,-300,677
1,417,54355,-1694,-16632,-1919,-168,-330,672
1,418,54360,-1870,-16673,-1827,-159,-356,671
1,419,54365,-1539,-16611,-1996,-159,-377,664
1,420,54370,-1616,-16547,-2006,-155,-383,668
1,421,54375,-1594,-16530,-1998,-151,-377,670
1,422,54380,-1739,-16456,-1944,-150,-370,666
1,423,54385,-1810,-16554,-1994,-153,-357,665
1,424,54390,-2161,-16620,-2200,-153,-347,669
1,425,54395,-2368,-16621,-2073,-146,-356,666
1,426,54400,-2364,-16713,-1948,-140,-378,662
1,427,54405,-2061,-16703,-1847,-131,-411,659
1,428,54410,-1632,-16700,-1900,-121,-446,653
1,429,54415,-1498,-16632,-1872,-115,-464,648
1,430,54420,-1283,-16550,-2244,-115,-455,641
1,431,54425,-1421,-16575,-2240,-118,-421,646
1,432,54430,-1104,-16572,-2324,-121,-382,648
1,433,54435,-918,-16477,-2140,-124,-325,653
1,434,54440,-931,-16542,-2269,-131,-262,653
1,435,54445,-1210,-16496,-2206,-132,-216,654
1,436,54450,-1779,-16646,-2279,-138,-177,657
1,437,54455,-2265,-16657,-2033,-131,-164,659
1,438,54460,-2488,-16651,-1968,-127,-176,652
1,439,54465,-2151,-16487,-1871,-119,-205,640
1,440,54470,-2468,-16492,-1909,-111,-231,635
1,441,54475,-2413,-16347,-1804,-102,-269,618
1,442,54480,-2334,-16287,-2101,-101,-292,604
1,443,54485,-2699,-16436,-2135,-96,-292,604
1,444,54490,-2344,-16497,-2341,-88,-296,602
1,445,54495,-1846,-16394,-2033,-76,-305,597
1,446,54500,-1610,-16271,-1878,-72,-308,589
1,447,54505,-1747,-16235,-1887,-74,-311,576
1,448,54510,-2024,-16308,-2054,-75,-304,563
1,449,54515,-1775,-16253,-2291,-74,-280,560
1,450,54520,-1923,-16233,-2200,-70,-241,567
1,451,54525,-1661,-16241,-2046,-70,-211,559
1,452,54530,-1593,-16218,-2070,-74,-181,551
1,453,54535,-2010,-16221,-1958,-73,-155,546
1,454,54540,-1996,-16121,-1965,-70,-144,535
1,455,54545,-2137,-16062,-1943,-70,-118,533
1,456,54550,-2523,-16023,-1831,-69,-87,531
1,457,54555,-2680,-15901,-1745,-68,-72,518
1,458,54560,-2440,-15821,-1924,-71,-64,504
1,459,54565,-3079,-15884,-1805,-66,-57,501
1,460,54570,-3086,-15953,-1819,-61,-78,481
1,461,54575,-3115,-16069,-1762,-53,-105,469
1,462,54580,-3192,-16127,-1775,-41,-137,459
1,463,54585,-2954,-16142,-1788,-30,-184,439
1,464,54590,-2691,-16218,-1942,-24,-231,420
1,465,54595,-2556,-16236,-1964,-13,-266,404
1,466,54600,-2320,-16202,-1995,-2,-289,387
1,467,54605,-2147,-16183,-2214,-1,-283,373
1,468,54610,-2145,-16183,-2349,3,-259,366
1,469,54615,-2088,-16171,-2287,3,-225,357
1,470,54620,-2050,-16086,-2212,-2,-187,344
1,471,54625,-1916,-15975,-2174,-4,-148,335
1,472,54630,-2202,-15978,-1940,-5,-105,328
1,473,54635,-2288,-15825,-1844,-3,-72,316
1,474,54640,-2550,-15661,-1788,-9,-40,308
1,475,54645,-2672,-15561,-1598,-11,-13,293
1,476,54650,-2645,-15495,-1674,-14,13,281
1,477,54655,-2788,-15460,-1650,-16,48,270
1,478,54660,-2733,-15374,-1599,-17,71,257
1,479,54665,-3071,-15395,-1595,-19,90,244
1,480,54670,-3464,-15531,-1659,-21,99,224
1,481,54675,-3761,-15724,-1824,-19,87,208
1,482,54680,-3720,-15761,-1890,-8,55,191
1,483,54685,-3543,-15765,-1660,3,11,168
1,484,54690,-3302,-15783,-1598,14,-44,139
1,485,54695,-3471,-15811,-1693,22,-91,113
1,486,54700,-3471,-15829,-2030,27,-119,89
1,487,54705,-3267,-15753,-2252,31,-128,72
1,488,54710,-3101,-15758,-2323,35,-117,57
1,489,54715,-2823,-15710,-2240,40,-103,38
1,490,54720,-2781,-15664,-2050,37,-79,16
1,491,54725,-2846,-15617,-1940,34,-60,-5
1,492,54730,-2860,-15557,-1889,31,-38,-22
1,493,54735,-2849,-15468,-1803,30,-13,-40
1,494,54740,-2827,-15358,-1758,28,14,-56
1,495,54745,-2820,-15336,-1779,24,43,-75
1,496,54750,-3093,-15415,-1860,17,73,-92
1,497,54755,-3735,-15718,-2206,16,107,-128
1,498,54760,-3735,-15718,-2206,16,107,-128
1,499,54765,-3612,-15776,-2048,23,85,-147
1,500,54770,-3196,-15890,-1630,41,-11,-202
1,501,54775,-3197,-15970,-1882,48,-57,-230
1,502,54780,-3099,-15962,-2287,54,-87,-255
1,503,54785,-2895,-15975,-2417,57,-98,-275
1,504,54790,-2543,-15928,-2311,59,-86,-291
1,505,54795,-2208,-15915,-2241,56,-51,-308
1,506,54800,-2021,-15884,-2292,52,-5,-325
1,507,54805,-2154,-15844,-2278,45,41,-341
1,508,54810,-2451,-15837,-2142,36,89,-357
1,509,54815,-2519,-15836,-1967,30,133,-371
1,510,54820,-2407,-15701,-1876,28,170,-384
1,511,54825,-2486,-15613,-1849,25,206,-399
1,512,54830,-2815,-15706,-1862,19,239,-414
1,513,54835,-3129,-15821,-1996,15,255,-434
1,514,54840,-3242,-15873,-2105,16,255,-455
1,515,54845,-3160,-15894,-2047,21,244,-474
1,516,54850,-3027,-15945,-1888,29,222,-492
1,517,54855,-3048,-15982,-1843,36,197,-517
1,518,54860,-2912,-15936,-1907,40,165,-540
1,519,54865,-2615,-15869,-1886,45,139,-561
1,520,54870,-2401,-15801,-1977,48,135,-581
1,521,54875,-2353,-15845,-2142,47,150,-595
1,522,54880,-2262,-15833,-2144,44,170,-610
1,523,54885,-2043,-15773,-2027,43,190,-625
1,524,54890,-1987,-15766,-1965,42,214,-640
1,525,54895,-2193,-15822,-1944,37,239,-653
1,526,54900,-2263,-15864,-1943,36,253,-666
1,527,54905,-2133,-15793,-1880,37,263,-681
1,528,54910,-2068,-15819,-1849,38,271,-695
1,529,54915,-2292,-15997,-1963,36,281,-707
1,530,54920,-2322,-16066,-2097,39,285,-720
1,531,54925,-2089,-16020,-2050,42,286,-733
1,532,54930,-1697,-15973,-2010,43,287,-749
1,533,54935,-1589,-16015,-1922,40,295,-760
1,534,54940,-1518,-16063,-1990,39,314,-774
1,535,54945,-1493,-16097,-2130,35,339,-784
1,536,54950,-1466,-16100,-2292,32,372,-788
1,537,54955,-1371,-16141,-2311,32,402,-796
1,538,54960,-1314,-16223,-2191,31,424,-804
1,539,54965,-1434,-16273,-2046,32,438,-813
1,540,54970,-1685,-16249,-1947,31,445,-825
1,541,54975,-2160,-16370,-2135,33,436,-832
1,542,54980,-2212,-16440,-2243,43,401,-841
1,543,54985,-1804,-16362,-2084,57,342,-853
1,544,54990,-1308,-16252,-1816,70,277,-871
1,545,54995,-1235,-16319,-1782,75,231,-886
1,546,55000,-1341,-16409,-2001,78,197,-900
1,547,55005,-1072,-16365,-2428,80,185,-908
1,548,55010,-576,-16268,-2524,81,194,-907
1,549,55015,40,-16240,-2403,79,222,-910
1,550,55020,329,-16216,-2262,74,265,-912
1,551,55025,287,-16169,-2235,64,317,-914
1,552,55030,271,-16179,-2243,52,378,-916
1,553,55035,-70,-16283,-2349,38,448,-908
1,554,55040,-315,-16402,-2407,31,502,-899
1,555,55045,-264,-16489,-2372,32,528,-893
1,556,55050,-60,-16380,-2011,37,517,-894
1,557,55055,71,-16423,-1883,43,481,-903
1,558,55060,-406,-16555,-2003,43,448,-909
1,559,55065,-664,-16571,-2043,53,410,-911
1,560,55070,-77,-16393,-2311,61,369,-917
1,561,55075,138,-16283,-1954,65,360,-915
1,562,55080,750,-16341,-2370,57,365,-918
1,563,55085,502,-16283,-2199,56,388,-916
1,564,55090,96,-16351,-2420,50,409,-915
1,565,55095,250,-16139,-2044,51,423,-921
1,566,55100,159,-16188,-1974,35,451,-911
1,567,55105,678,-16048,-1902,32,474,-910
1,568,55110,1010,-15913,-1846,35,500,-912
1,569,55115,771,-15950,-1869,25,537,-909
1,570,55120,133,-16086,-2134,9,581,-903
1,571,55125,-219,-16064,-2180,6,605,-899
1,572,55130,-71,-15967,-2113,9,604,-898
1,573,55135,-136,-16070,-1789,13,589,-895
1,574,55140,-306,-16271,-2019,14,533,-899
1,575,55145,-181,-16212,-1622,35,447,-912
1,576,55150,534,-16164,-1613,47,354,-924
1,577,55155,297,-16381,-1863,50,289,-923
1,578,55160,536,-16469,-2107,61,243,-931
1,579,55165,979,-16353,-2580,60,221,-931
1,580,55170,1410,-16367,-2702,62,221,-924
1,581,55175,1794,-16392,-2532,60,236,-921
1,582,55180,1956,-16453,-2209,53,270,-916
1,583,55185,1855,-16533,-2150,40,316,-909
1,584,55190,1666,-16584,-2235,29,362,-900
1,585,55195,1533,-16589,-2227,24,399,-889
1,586,55200,1382,-16664,-2364,13,429,-878
1,587,55205,1414,-16656,-2347,11,439,-874
1,588,55210,1458,-16634,-2270,11,434,-871
1,589,55215,1336,-16675,-1961,15,421,-865
1,590,55220,1315,-16672,-1983,14,398,-862
1,591,55225,1697,-16513,-1890,16,368,-860
1,592,55230,1744,-16524,-2056,13,350,-852
1,593,55235,1725,-16585,-2138,16,335,-850
1,594,55240,2015,-16535,-2205,14,325,-849
1,595,55245,2002,-16545,-2155,8,332,-841
1,596,55250,2089,-16554,-2260,6,339,-840
1,597,55255,2188,-16438,-1902,7,344,-830
1,598,55260,1744,-16570,-2362,-10,353,-812
1,599,55265,2471,-17234,-2946,-1,340,-817
1,600,55270,17375,-21968,-9043,129,686,-1032
1,601,55275,32767,-1353,-22405,136,3090,-1437
1,602,55280,9478,-7866,-5802,-1459,7374,409
1,603,55285,-32768,-32768,32153,-1772,8121,2565
1,604,55290,-6347,-24835,14971,-4,3771,361
1,605,55295,29943,-3426,4018,710,868,-347
1,606,55300,9582,-11815,-21094,-306,-56,342
1,607,55305,-32768,-28077,-4033,230,-1176,708
1,608,55310,-31320,-24945,18938,845,-3087,-410
1,609,55315,7788,-19406,-14005,875,-4322,-1171
1,610,55320,26367,-5719,3614,1658,-3701,-409
1,611,55325,30506,-8207,-9384,745,-2699,-197
1,612,55330,8453,-13862,-10402,226,-1703,-1
1,613,55335,-20944,-21223,-1471,192,-856,85
1,614,55340,414,-17969,-8937,363,-754,-418
1,615,55345,22312,-10315,-3025,562,9,-289
1,616,55350,21315,-10154,4833,165,1012,219
1,617,55355,7146,-16349,-2776,-422,1523,419
1,618,55360,-7022,-19718,-5023,-248,1549,389
1,619,55365,-15205,-17952,949,42,1213,217
1,620,55370,1025,-16835,-9779,2,583,-37
1,621,55375,6091,-14260,2788,290,450,97
1,622,55380,5277,-15886,4753,123,388,199
1,623,55385,889,-17135,-378,21,281,177
1,624,55390,-3505,-16878,-4219,76,101,97
1,625,55395,-228,-15977,-8204,82,-92,-4
1,626,55400,2226,-15951,-3756,163,-118,56
1,627,55405,5171,-16006,1882,187,-37,107
1,628,55410,5732,-16141,1382,123,38,110
1,629,55415,5184,-15736,-2539,66,95,73
1,630,55420,1453,-16167,-5695,27,130,85
1,631,55425,-145,-16462,-4183,55,111,97
1,632,55430,1674,-16525,-1298,91,94,116
1,633,55435,4723,-16129,669,96,124,132
1,634,55440,6001,-15856,-879,57,157,132
1,635,55445,3367,-15980,-2051,19,205,136
1,636,55450,-26,-16638,-3557,-14,184,132
1,637,55455,398,-16479,-2540,22,128,118
1,638,55460,2850,-16189,-1417,36,121,132
1,639,55465,4942,-15958,-480,29,167,151
1,640,55470,4111,-16092,-590,-4,221,158
1,641,55475,1799,-16420,-2072,-38,233,144
1,642,55480,66,-16557,-2710,-37,198,135
1,643,55485,1106,-16376,-2427,-24,146,131
1,644,55490,2031,-16379,-1090,-14,135,149
1,645,55495,2681,-16453,-326,-12,112,151
1,646,55500,2014,-16437,-797,-20,66,133
1,647,55505,1052,-16445,-2273,-29,-9,111
1,648,55510,692,-16393,-2463,-16,-81,102
1,649,55515,1224,-16375,-2021,-3,-128,108
1,650,55520,3144,-16013,-1310,-6,-136,105
1,651,55525,2777,-15875,-1676,-13,-118,92
1,652,55530,1928,-15970,-2363,-31,-102,90
1,653,55535,1653,-15916,-1879,-33,-90,93
1,654,55540,2174,-15858,-1478,-34,-71,105
1,655,55545,3035,-15733,-1049,-35,-49,111
1,656,55550,3076,-15759,-1261,-49,-25,111
1,657,55555,2414,-15783,-1565,-57,-8,107
1,658,55560,1679,-15851,-1767,-63,-7,105
1,659,55565,1859,-15791,-1602,-62,-5,109
1,660,55570,2274,-15864,-1410,-65,9,119
1,661,55575,2775,-15809,-1058,-63,25,118
1,662,55580,2557,-15857,-1127,-72,32,116
1,663,55585,1830,-15983,-1546,-82,27,111
1,664,55590,1351,-16057,-1588,-80,4,105
1,665,55595,1503,-16049,-1478,-76,-18,108
1,666,55600,1792,-16047,-1268,-71,-32,113
1,667,55605,2170,-16007,-1194,-67,-53,107
1,668,55610,1923,-16024,-1296,-69,-73,99
1,669,55615,1519,-16046,-1535,-71,-93,89
1,670,55620,1370,-16011,-1512,-71,-105,88
1,671,55625,1548,-15927,-1343,-68,-110,91
1,672,55630,1965,-15896,-1251,-65,-113,95
1,673,55635,2212,-15856,-1240,-66,-116,93
1,674,55640,2265,-15912,-1430,-69,-122,88
1,675,55645,1947,-15944,-1345,-70,-124,88
1,676,55650,2039,-15962,-1445,-72,-124,87
1,677,55655,2411,-15919,-1457,-68,-110,90
1,678,55660,2526,-15887,-1498,-71,-90,96
1,679,55665,2686,-15792,-1636,-75,-70,96
1,680,55670,2518,-15891,-1719,-81,-49,100
1,681,55675,2186,-16079,-1684,-79,-39,101
1,682,55680,2517,-15993,-1342,-75,-36,97
1,683,55685,2647,-16030,-1415,-83,-19,107
1,684,55690,2377,-16142,-1474,-83,0,118
1,685,55695,2460,-16021,-1572,-71,-11,113
1,686,55700,2220,-16038,-1557,-74,-13,111
1,687,55705,1966,-16065,-1490,-73,-18,107
1,688,55710,2098,-16015,-1397,-67,-21,104
1,689,55715,2021,-16133,-1436,-68,-14,110
1,690,55720,2197,-16133,-1463,-62,-17,110
1,691,55725,2174,-16077,-1354,-60,-15,109
1,692,55730,2011,-16138,-1387,-60,-19,106
1,693,55735,1904,-16130,-1308,-57,-25,101
1,694,55740,1894,-16159,-1419,-59,-23,101
1,695,55745,2029,-16253,-1388,-54,-21,102
1,696,55750,2073,-16323,-1462,-53,-18,102
1,697,55755,2068,-16359,-1496,-51,-19,97
1,698,55760,2104,-16380,-1508,-50,-20,94
1,699,55765,2106,-16380,-1489,-49,-17,93
1,700,55770,2138,-16381,-1535,-46,-7,95
1,701,55775,2113,-16437,-1582,-45,2,93
1,702,55780,2013,-16399,-1637,-45,9,92
1,703,55785,1887,-16422,-1645,-43,9,89
1,704,55790,1865,-16466,-1563,-38,3,85
1,705,55795,1831,-16428,-1454,-33,-9,84
1,706,55800,1814,-16364,-1515,-28,-23,81
1,707,55805,1774,-16388,-1558,-23,-36,78
1,708,55810,1792,-16330,-1621,-18,-49,72
1,709,55815,1812,-16289,-1578,-13,-62,68
1,710,55820,1854,-16330,-1454,-11,-71,66
1,711,55825,1926,-16371,-1435,-8,-73,62
1,712,55830,2064,-16412,-1526,-2,-70,62
1,713,55835,2175,-16396,-1604,-2,-66,60
1,714,55840,2259,-16317,-1579,1,-60,57
1,715,55845,2256,-16257,-1524,0,-50,55
1,716,55850,2177,-16249,-1506,0,-34,54
1,717,55855,2152,-16285,-1485,-1,-13,55
1,718,55860,2232,-16309,-1520,-3,6,56
1,719,55865,2234,-16318,-1556,-2,20,58
1,720,55870,2142,-16323,-1624,0,30,56
1,721,55875,2082,-16313,-1503,0,33,54
1,722,55880,1987,-16284,-1464,1,34,52
1,723,55885,1960,-16227,-1454,2,36,52
1,724,55890,1991,-16183,-1537,6,35,52
1,725,55895,1951,-16158,-1514,7,35,48
1,726,55900,1924,-16119,-1448,6,36,44
1,727,55905,1820,-16185,-1440,6,37,43
1,728,55910,1735,-16261,-1508,6,38,40
1,729,55915,1650,-16373,-1706,10,39,38
1,730,55920,1619,-16400,-1682,17,29,36
1,731,55925,1605,-16374,-1499,22,8,31
1,732,55930,1593,-16301,-1306,27,-18,24
1,733,55935,1516,-16240,-1348,34,-41,18
1,734,55940,1541,-16205,-1504,38,-63,15
1,735,55945,1730,-16127,-1593,42,-81,12
1,736,55950,1921,-16093,-1475,45,-88,8
1,737,55955,2054,-16090,-1460,43,-82,7
1,738,55960,2024,-16096,-1478,42,-70,5
1,739,55965,2051,-16027,-1532,40,-52,4
1,740,55970,2022,-16045,-1634,37,-28,5
1,741,55975,2021,-16034,-1536,36,-6,9
1,742,55980,2013,-16080,-1530,31,13,8
1,743,55985,1947,-16127,-1483,29,29,7
1,744,55990,1757,-16216,-1588,26,44,7
1,745,55995,1705,-16285,-1685,27,48,8
1,746,56000,1762,-16328,-1754,32,41,6
1,747,56005,1802,-16358,-1618,34,28,1
1,748,56010,1867,-16323,-1402,38,7,-3
1,749,56015,1867,-16327,-1357,41,-12,-5
1,750,56020,1880,-16234,-1458,45,-28,-10
1,751,56025,1954,-16262,-1623,46,-40,-11
1,752,56030,2030,-16198,-1645,45,-48,-12
1,753,56035,2135,-16172,-1595,45,-46,-14
1,754,56040,2250,-16155,-1486,44,-36,-13
1,755,56045,2202,-16161,-1550,39,-12,-11
1,756,56050,2031,-16172,-1600,34,12,-9
1,757,56055,1970,-16163,-1626,31,30,-7
1,758,56060,1941,-16209,-1590,28,44,-8
1,759,56065,1858,-16279,-1521,26,49,-9
1,760,56070,1711,-16320,-1538,25,50,-9
1,761,56075,1618,-16292,-1510,27,45,-13
1,762,56080,1546,-16304,-1496,30,29,-15
1,763,56085,1558,-16298,-1417,32,11,-17
1,764,56090,1652,-16307,-1418,33,-9,-19
1,765,56095,1730,-16317,-1459,34,-28,-25
1,766,56100,1714,-16291,-1516,34,-44,-28
1,767,56105,1702,-16229,-1556,36,-54,-32
1,768,56110,1753,-16198,-1565,36,-60,-32
1,769,56115,1873,-16191,-1536,35,-62,-32
1,770,56120,1925,-16140,-1505,33,-56,-33
1,771,56125,1906,-16146,-1512,30,-46,-33
1,772,56130,1846,-16194,-1556,25,-34,-33
1,773,56135,1827,-16202,-1613,24,-29,-32
1,774,56140,1862,-16146,-1577,24,-22,-34
1,775,56145,1869,-16124,-1441,21,-16,-34
1,776,56150,1877,-16148,-1405,19,-13,-32
1,777,56155,1866,-16209,-1515,15,-8,-31
1,778,56160,1933,-16222,-1558,14,-4,-31
1,779,56165,1979,-16182,-1628,15,-5,-31
1,780,56170,2007,-16167,-1618,13,-3,-31
1,781,56175,1968,-16181,-1492,11,-4,-33
1,782,56180,1912,-16181,-1435,9,-2,-32
1,783,56185,1906,-16160,-1506,6,5,-32
1,784,56190,1918,-16187,-1574,3,11,-30
1,785,56195,1949,-16203,-1591,3,17,-27
1,786,56200,1844,-16212,-1565,1,20,-29
1,787,56205,1765,-16179,-1456,2,16,-29
1,788,56210,1735,-16148,-1436,0,9,-30
1,789,56215,1755,-16195,-1435,-2,3,-31
1,790,56220,1747,-16279,-1506,-1,-3,-29
1,791,56225,1704,-16374,-1682,2,-12,-28
1,792,56230,1713,-16319,-1663,5,-26,-32
1,793,56235,1754,-16250,-1571,7,-44,-35
1,794,56240,1829,-16205,-1402,9,-63,-34
1,795,56245,1946,-16193,-1338,8,-74,-34
1,796,56250,2011,-16180,-1417,8,-75,-34
1,797,56255,2065,-16163,-1544,6,-70,-33
1,798,56260,2091,-16168,-1647,0,-59,-29
1,799,56265,2146,-16209,-1661,-2,-45,-29
1,800,56270,2263,-16206,-1597,-5,-26,-23
1,801,56275,2267,-16176,-1517,-9,-2,-21
1,802,56280,2234,-16158,-1504,-15,19,-18
1,803,56285,2073,-16137,-1580,-19,40,-14
1,804,56290,1959,-16175,-1557,-23,51,-12
1,805,56295,1895,-16200,-1517,-26,61,-8
1,806,56300,1884,-16296,-1562,-25,67,-8
1,807,56305,1747,-16343,-1673,-24,59,-7
1,808,56310,1774,-16261,-1510,-21,42,-5
1,809,56315,1792,-16188,-1471,-17,24,-9
1,810,56320,1813,-16172,-1456,-17,10,-10
1,811,56325,1870,-16143,-1499,-17,8,-7
1,812,56330,1923,-16099,-1514,-20,12,-7
1,813,56335,1849,-16139,-1496,-23,21,-4
1,814,56340,1780,-16297,-1549,-24,29,-4
1,815,56345,1733,-16353,-1650,-24,33,-3
1,816,56350,1677,-16319,-1570,-23,29,0
1,817,56355,1551,-16299,-1487,-22,20,-1
1,818,56360,1469,-16286,-1405,-19,5,-5
1,819,56365,1519,-16220,-1395,-18,-14,-7
1,820,56370,1600,-16157,-1424,-16,-29,-8
1,821,56375,1676,-16118,-1410,-17,-34,-8
1,822,56380,1733,-16148,-1523,-20,-32,-8
1,823,56385,1829,-16327,-1618,-20,-25,-4
1,824,56390,1958,-16389,-1671,-23,-14,-4
1,825,56395,2026,-16318,-1558,-26,-1,-4
1,826,56400,1940,-16328,-1549,-26,7,-1
1,827,56405,1809,-16322,-1639,-25,11,1
1,828,56410,1783,-16253,-1633,-26,12,1
1,829,56415,1849,-16277,-1587,-26,12,2
1,830,56420,1894,-16211,-1441,-27,13,3
1,831,56425,1883,-16147,-1350,-28,13,5
1,832,56430,1804,-16175,-1327,-29,17,4
1,833,56435,1784,-16198,-1436,-33,23,4
1,834,56440,1717,-16306,-1646,-36,32,6
1,835,56445,1705,-16484,-1934,-36,39,8
1,836,56450,1690,-16586,-2047,-32,35,10
1,837,56455,1654,-16587,-1872,-29,19,8
1,838,56460,1632,-16525,-1455,-23,-8,2
1,839,56465,1676,-16456,-1300,-17,-38,-1
1,840,56470,1718,-16347,-1513,-13,-61,0
1,841,56475,1764,-16270,-1686,-10,-77,2
1,842,56480,1875,-16225,-1704,-10,-83,2
1,843,56485,2011,-16211,-1630,-11,-82,0
1,844,56490,2039,-16154,-1543,-14,-65,2
1,845,56495,2076,-16137,-1513,-17,-38,4
1,846,56500,2030,-16092,-1514,-22,-12,9
1,847,56505,1939,-16076,-1512,-26,12,13
1,848,56510,1867,-16074,-1437,-30,29,13
1,849,56515,1857,-16109,-1397,-31,38,15
1,850,56520,1856,-16155,-1312,-37,44,14
1,851,56525,1839,-16171,-1316,-36,51,17
1,852,56530,1685,-16193,-1421,-38,51,19
1,853,56535,1604,-16226,-1570,-38,49,17
1,854,56540,1671,-16265,-1600,-36,41,17
1,855,56545,1676,-16242,-1619,-35,28,16
1,856,56550,1628,-16295,-1634,-34,13,16
1,857,56555,1612,-16340,-1601,-31,-2,14
1,858,56560,1602,-16342,-1570,-24,-18,11
1,859,56565,1606,-16309,-1662,-23,-34,11
1,860,56570,1579,-16275,-1651,-20,-46,12
1,861,56575,1596,-16247,-1647,-18,-56,8
1,862,56580,1616,-16232,-1579,-16,-66,6
1,863,56585,1703,-16193,-1491,-15,-76,6
1,864,56590,1769,-16134,-1505,-14,-81,5
1,865,56595,1857,-16136,-1524,-14,-85,8
1,866,56600,1948,-16114,-1517,-15,-79,9
1,867,56605,2013,-16115,-1466,-18,-68,8
1,868,56610,2055,-16109,-1492,-21,-51,10
1,869,56615,2107,-16090,-1544,-24,-31,15
1,870,56620,2114,-16104,-1573,-27,-12,18
1,871,56625,2041,-16161,-1617,-31,6,19
1,872,56630,1992,-16198,-1661,-34,18,22
1,873,56635,1953,-16253,-1695,-36,27,24
1,874,56640,1917,-16260,-1648,-36,32,22
1,875,56645,1877,-16258,-1544,-33,28,24
1,876,56650,1858,-16269,-1542,-33,24,24
1,877,56655,1795,-16293,-1590,-33,20,24
1,878,56660,1763,-16348,-1673,-32,18,23
1,879,56665,1619,-16421,-1796,-31,17,24
1,880,56670,1570,-16442,-1798,-27,9,23
1,881,56675,1551,-16447,-1711,-24,-4,23
1,882,56680,1636,-16349,-1559,-18,-21,19
1,883,56685,1689,-16334,-1494,-16,-39,17
1,884,56690,1738,-16278,-1520,-15,-55,16
1,885,56695,1830,-16221,-1618,-13,-64,16
1,886,56700,1865,-16218,-1709,-13,-63,15
1,887,56705,1889,-16236,-1699,-12,-57,14
1,888,56710,1845,-16272,-1724,-14,-46,16
1,889,56715,1878,-16285,-1723,-15,-36,18
1,890,56720,1913,-16269,-1659,-13,-33,17
1,891,56725,1893,-16226,-1598,-12,-37,18
1,892,56730,1879,-16199,-1566,-12,-43,15
1,893,56735,1942,-16228,-1556,-11,-46,14
1,894,56740,1999,-16248,-1601,-12,-45,14
1,895,56745,2069,-16229,-1631,-12,-35,18
1,896,56750,2089,-16218,-1662,-13,-21,22
1,897,56755,2087,-16196,-1637,-15,-6,22
1,898,56760,2067,-16179,-1613,-18,11,24
1,899,56765,1979,-16202,-1569,-20,24,25
1,900,56770,1889,-16230,-1533,-22,35,26
1,901,56775,1808,-16185,-1522,-23,40,28
1,902,56780,1769,-16192,-1518,-21,36,28
1,903,56785,1710,-16197,-1484,-21,27,25
1,904,56790,1713,-16157,-1487,-16,16,25
1,905,56795,1654,-16191,-1428,-16,7,22
1,906,56800,1611,-16289,-1613,-15,-1,23
1,907,56805,1642,-16269,-1681,-11,-7,22
1,908,56810,1702,-16230,-1727,-11,-11,20
1,909,56815,1796,-16165,-1712,-9,-18,19
1,910,56820,1865,-16194,-1567,-8,-20,17
1,911,56825,1857,-16182,-1543,-11,-12,16
1,912,56830,1845,-16130,-1559,-13,1,16
1,913,56835,1872,-16115,-1649,-15,16,17
1,914,56840,1868,-16124,-1742,-18,34,19
1,915,56845,1770,-16154,-1644,-22,47,21
1,916,56850,1688,-16178,-1606,-22,57,17
1,917,56855,1665,-16210,-1583,-21,62,19
1,918,56860,1699,-16226,-1471,-22,65,19
1,919,56865,1476,-16327,-1698,-24,61,18
1,920,56870,1785,-16226,-1529,-18,51,17
1,921,56875,1404,-16400,-1763,-20,44,15
1,922,56880,1539,-16377,-1559,-14,23,7
1,923,56885,1412,-16380,-1733,-14,14,9
1,924,56890,1412,-16398,-1670,-8,-5,3
1,925,56895,1694,-16338,-1729,-5,-22,-1
1,926,56900,1544,-16402,-1718,-3,-31,-1
1,927,56905,1665,-16328,-1689,1,-50,-5
1,928,56910,1769,-16326,-1796,0,-55,-6
1,929,56915,1794,-16302,-1675,3,-54,-4
1,930,56920,2025,-16171,-1759,1,-52,-6
1,931,56925,2010,-16158,-1694,0,-38,-3
1,932,56930,1988,-16191,-1739,-2,-27,-4
1,933,56935,2097,-16117,-1784,-4,-12,-4
1,934,56940,2076,-16145,-1666,-8,3,0
1,935,56945,2112,-16179,-1655,-8,15,3
1,936,56950,2133,-16204,-1698,-11,28,4
1,937,56955,2020,-16295,-1705,-12,37,7
1,938,56960,2002,-16226,-1676,-12,37,5
1,939,56965,1837,-16256,-1712,-14,37,7
1,940,56970,1847,-16281,-1598,-10,32,7
1,941,56975,1808,-16281,-1556,-9,25,5
1,942,56980,1809,-16231,-1545,-8,13,4
1,943,56985,1773,-16240,-1634,-8,3,4
1,944,56990,1785,-16251,-1665,-5,-5,3
1,945,56995,1786,-16238,-1656,-5,-10,3
1,946,57000,1839,-16241,-1663,-6,-10,2
1,947,57005,1874,-16253,-1736,-6,-8,3
1,948,57010,1874,-16263,-1701,-5,-4,3
1,949,57015,1780,-16245,-1646,-7,-1,3
1,950,57020,1748,-16215,-1608,-7,-4,3
1,951,57025,1730,-16226,-1570,-8,-8,2
1,952,57030,1812,-16225,-1576,-7,-12,1
1,953,57035,1877,-16258,-1663,-7,-13,2
1,954,57040,1926,-16256,-1686,-6,-14,3
1,955,57045,1943,-16275,-1768,-6,-12,2
1,956,57050,1945,-16227,-1749,-6,-5,2
1,957,57055,1948,-16223,-1631,-11,12,4
1,958,57060,1932,-16239,-1650,-12,22,4
1,959,57065,1900,-16300,-1675,-11,27,7
1,960,57070,1857,-16308,-1694,-13,27,6
1,961,57075,1779,-16337,-1688,-14,25,6
1,962,57080,1754,-16335,-1709,-11,17,5
1,963,57085,1730,-16306,-1711,-9,9,4
1,964,57090,1746,-16263,-1614,-6,-1,4
1,965,57095,1790,-16249,-1569,-6,-10,3
1,966,57100,1814,-16268,-1629,-6,-13,1
1,967,57105,1823,-16212,-1693,-8,-12,1
1,968,57110,1812,-16194,-1720,-6,-12,1
1,969,57115,1847,-16188,-1680,-7,-5,2
1,970,57120,1876,-16163,-1569,-9,2,1
1,971,57125,1863,-16100,-1562,-9,8,2
1,972,57130,1833,-16143,-1592,-11,18,2
1,973,57135,1763,-16187,-1734,-13,27,4
1,974,57140,1757,-16253,-1806,-14,33,6
1,975,57145,1728,-16262,-1721,-14,37,5
1,976,57150,1677,-16279,-1641,-14,37,4
1,977,57155,1659,-16293,-1546,-13,31,2
1,978,57160,1570,-16284,-1532,-12,25,-1
1,979,57165,1606,-16270,-1653,-11,16,1
1,980,57170,1651,-16285,-1732,-9,7,-2
1,981,57175,1712,-16284,-1787,-8,-4,-2
1,982,57180,1759,-16302,-1771,-6,-9,-3
1,983,57185,1714,-16260,-1678,-3,-11,-6
1,984,57190,1789,-16215,-1676,-4,-11,-6
1,985,57195,1805,-16196,-1751,-4,-8,-4
1,986,57200,1844,-16195,-1764,-4,-3,-5
1,987,57205,1842,-16266,-1792,-6,5,-4
1,988,57210,1777,-16267,-1744,-6,13,-4
1,989,57215,1743,-16269,-1692,-7,17,-5
1,990,57220,1727,-16295,-1655,-8,21,-5
1,991,57225,1740,-16294,-1701,-6,22,-5
1,992,57230,1789,-16266,-1705,-7,24,-4
1,993,57235,1795,-16328,-1737,-6,20,-3
1,994,57240,1816,-16336,-1765,-6,19,-6
1,995,57245,1822,-16305,-1750,-5,18,-5
1,996,57250,1840,-16308,-1724,-6,18,-3
1,997,57255,1836,-16288,-1749,-5,17,-4
1,998,57260,1813,-16269,-1776,-4,19,-3
1,999,57265,1781,-16330,-1816,-4,19,-3
