event_id,seq,ts_us,ax,ay,az,gx,gy,gz
2,0,110045776,99,-43,4148,-2,2,-1
2,1,110053222,99,-43,4148,-2,2,0
2,2,110060668,100,-41,4147,-2,2,-1
2,3,110068115,101,-40,4147,-1,5,-3
2,4,110075561,106,-37,4150,-3,4,2
2,5,110083007,106,-37,4150,-2,3,1
2,6,110090454,98,-44,4149,-1,4,1
2,7,110097900,96,-42,4155,0,3,0
2,8,110105346,96,-43,4146,-2,3,0
2,9,110112792,96,-43,4146,-1,3,1
2,10,110120239,102,-42,4148,-2,2,2
2,11,110127685,101,-42,4155,-2,3,3
2,12,110135131,99,-41,4149,-2,4,0
2,13,110142578,99,-41,4149,-5,2,-1
2,14,110150054,101,-39,4150,0,5,0
2,15,110157501,101,-35,4152,-1,1,0
2,16,110164947,101,-44,4145,-2,6,0
2,17,110172393,101,-44,4145,-3,1,0
2,18,110179840,104,-46,4147,0,2,1
2,19,110187347,96,-41,4148,-3,4,1
2,20,110194793,94,-45,4152,-1,4,0
2,21,110202239,94,-45,4152,-1,4,0
2,22,110209686,93,-45,4153,-3,4,1
2,23,110217132,95,-40,4152,-1,4,3
2,24,110224578,95,-43,4146,0,4,-1
2,25,110232025,95,-43,4146,-3,2,2
2,26,110239471,104,-46,4154,0,4,1
2,27,110246948,102,-47,4149,0,5,1
2,28,110254486,94,-41,4153,-2,3,0
2,29,110261932,94,-41,4153,-2,5,1
2,30,110269378,102,-40,4155,-1,5,2
2,31,110276824,104,-43,4150,-1,5,1
2,32,110284271,105,-48,4143,1,5,0
2,33,110291717,105,-48,4143,0,2,1
2,34,110299224,97,-47,4146,0,2,3
2,35,110306671,93,-43,4153,0,3,1
2,36,110314117,97,-45,4149,-3,6,2
2,37,110321563,97,-45,4149,-3,4,2
2,38,110329010,105,-40,4153,0,3,4
2,39,110336456,104,-43,4152,-3,3,2
2,40,110343902,98,-42,4147,-3,4,1
2,41,110351348,98,-42,4147,-2,5,4
2,42,110358795,101,-43,4156,-3,1,-1
2,43,110366241,94,-40,4152,0,5,1
2,44,110373687,95,-40,4145,0,5,0
2,45,110381134,95,-40,4145,-1,3,-1
2,46,110388580,101,-39,4147,-1,6,0
2,47,110396026,96,-38,4149,-3,5,2
2,48,110403472,108,-43,4147,-4,4,1
2,49,110410919,108,-43,4147,-1,5,0
2,50,110418365,104,-36,4151,-2,6,0
2,51,110425811,101,-42,4147,-2,3,2
2,52,110433258,94,-46,4151,-3,3,-1
2,53,110440704,94,-46,4151,-1,3,1
2,54,110448150,97,-42,4150,0,5,0
2,55,110455596,103,-46,4147,0,4,3
2,56,110463043,99,-43,4149,-2,3,0
2,57,110470489,99,-43,4149,-1,4,1
2,58,110477935,95,-40,4149,0,4,1
2,59,110485382,96,-42,4141,-2,4,0
2,60,110492828,100,-42,4143,-1,2,-1
2,61,110500274,100,-42,4143,-1,2,-1
2,62,110507720,101,-44,4144,-2,5,-1
2,63,110515167,98,-44,4155,-4,5,-1
2,64,110522613,96,-44,4150,-1,5,-1
2,65,110530059,96,-44,4150,-2,2,3
2,66,110537506,94,-46,4147,0,5,1
2,67,110544952,96,-46,4148,-2,5,1
2,68,110552398,94,-41,4146,0,4,2
2,69,110559844,94,-41,4146,-2,6,-3
2,70,110567657,103,-35,4151,-1,3,0
2,71,110575103,103,-41,4153,-3,4,2
2,72,110582550,100,-47,4152,-2,4,3
2,73,110589996,107,-40,4154,-3,2,2
2,74,110597442,107,-40,4154,-2,2,3
2,75,110604888,102,-38,4147,-1,4,2
2,76,110612335,98,-43,4145,-2,3,3
2,77,110619781,98,-43,4145,-1,5,1
2,78,110627288,104,-39,4142,-1,8,0
2,79,110634735,94,-42,4148,-2,4,1
2,80,110642181,99,-36,4150,-1,3,-1
2,81,110649688,99,-37,4151,-3,7,2
2,82,110657135,99,-37,4151,-3,7,0
2,83,110664581,96,-39,4150,0,2,-1
2,84,110672058,99,-43,4149,1,2,1
2,85,110679504,101,-44,4147,-1,5,0
2,86,110686950,101,-44,4147,-1,5,0
2,87,110694396,97,-39,4147,-4,5,0
2,88,110701843,106,-39,4139,-3,3,1
2,89,110709289,104,-42,4145,0,4,-1
2,90,110717163,104,-42,4145,-1,4,1
2,91,110724609,97,-36,4151,-2,4,2
2,92,110732055,92,-37,4149,-2,3,1
2,93,110739501,100,-37,4154,-2,3,1
2,94,110746948,100,-37,4154,0,3,2
2,95,110754394,93,-44,4155,0,4,3
2,96,110762023,94,-42,4147,-1,2,1
2,97,110769470,99,-43,4146,0,2,1
2,98,110776916,99,-43,4146,-2,3,0
2,99,110784362,105,-42,4143,0,3,0
2,100,110791809,103,-42,4145,-1,2,1
2,101,110799255,101,-46,4154,-2,3,2
2,102,110806793,101,-46,4154,-2,4,1
2,103,110814239,96,-37,4151,0,2,1
2,104,110821685,97,-37,4144,0,3,2
2,105,110829132,94,-44,4148,-2,3,5
2,106,110836578,94,-44,4148,-2,3,2
2,107,110844024,99,-36,4145,-1,1,0
2,108,110851501,100,-47,4144,-2,2,-3
2,109,110858947,87,-42,4143,-3,4,0
2,110,110866394,87,-42,4143,-2,5,1
2,111,110873840,92,-40,4145,-2,4,0
2,112,110881286,102,-38,4147,-2,3,0
2,113,110888732,103,-44,4152,-2,5,0
2,114,110896179,103,-44,4152,-1,4,1
2,115,110903686,101,-40,4150,-1,4,0
2,116,110911132,104,-43,4149,-1,4,4
2,117,110918579,104,-45,4149,-3,5,0
2,118,110926025,104,-45,4149,-4,4,0
2,119,110933471,103,-36,4146,-1,3,2
2,120,110941040,100,-42,4148,-1,3,0
2,121,110948486,95,-42,4156,-1,4,-1
2,122,110955932,95,-42,4156,-2,3,1
2,123,110963378,98,-40,4147,-1,4,2
2,124,110970825,99,-36,4143,-1,3,1
2,125,110978271,93,-42,4150,1,3,4
2,126,110985717,93,-42,4150,-1,5,-1
2,127,110993164,97,-47,4153,0,5,2
2,128,111000610,102,-42,4148,-2,4,-1
2,129,111008056,97,-47,4148,-1,4,2
2,130,111015594,97,-47,4148,-1,6,1
2,131,111023040,96,-43,4143,-3,5,2
2,132,111030487,99,-38,4154,-1,4,1
2,133,111037933,104,-41,4149,0,2,1
2,134,111045379,104,-41,4149,-2,3,1
2,135,111052886,101,-40,4149,-3,5,1
2,136,111060333,97,-44,4152,-2,4,-1
2,137,111067779,99,-43,4159,-1,5,0
2,138,111075256,99,-43,4159,-3,5,0
2,139,111082702,103,-40,4151,-3,4,2
2,140,111090148,93,-45,4155,-1,4,1
2,141,111097595,98,-44,4154,1,4,2
2,142,111105041,98,-44,4154,-2,4,1
2,143,111112487,102,-41,4140,0,5,-1
2,144,111120208,99,-40,4145,0,4,1
2,145,111127655,102,-44,4145,-1,5,1
2,146,111135101,102,-44,4145,0,3,1
2,147,111142547,98,-41,4146,-2,4,1
2,148,111149993,107,-40,4140,-3,3,2
2,149,111157440,98,-43,4153,-1,3,0
2,150,111164978,98,-43,4153,-2,1,0
2,151,111172485,93,-42,4151,-3,6,-1
2,152,111179962,100,-41,4145,-1,4,3
2,153,111187408,96,-39,4145,-1,5,0
2,154,111194854,96,-39,4145,-1,3,-1
2,155,111202301,93,-41,4144,-1,4,0
2,156,111210174,94,-41,4153,-3,6,1
2,157,111217620,92,-42,4145,-2,3,0
2,158,111225067,92,-42,4145,-2,4,1
2,159,111232513,103,-44,4150,-1,3,-1
2,160,111239959,100,-37,4156,-1,5,1
2,161,111247406,93,-38,4152,-3,3,1
2,162,111254943,93,-38,4152,-2,3,1
2,163,111262390,96,-42,4150,-5,3,0
2,164,111269836,95,-43,4146,-3,5,1
2,165,111277282,98,-44,4152,-1,3,-1
2,166,111284729,98,-44,4152,-3,0,-1
2,167,111292175,98,-45,4151,-1,5,2
2,168,111300231,103,-38,4147,-1,6,0
2,169,111307678,106,-39,4146,-3,5,-1
2,170,111315124,106,-39,4146,-3,4,0
2,171,111322570,92,-46,4145,-2,5,0
2,172,111330017,102,-38,4147,-4,3,1
2,173,111337524,96,-36,4148,-3,5,1
2,174,111345001,96,-36,4148,0,3,1
2,175,111352447,96,-40,4151,-3,4,2
2,176,111359893,103,-33,4155,-5,4,-2
2,177,111367340,102,-39,4147,-1,5,-1
2,178,111374786,102,-39,4147,0,4,2
2,179,111382232,102,-46,4149,-2,4,0
2,180,111389984,99,-44,4155,0,3,2
2,181,111397430,103,-40,4154,-1,4,0
2,182,111404876,100,-40,4147,-2,2,1
2,183,111412322,100,-40,4147,-2,3,0
2,184,111419769,99,-45,4153,-1,5,-1
2,185,111427215,107,-43,4152,1,5,-1
2,186,111435211,99,-44,4144,-2,5,2
2,187,111442657,99,-44,4144,-1,3,1
2,188,111450103,95,-40,4147,-1,3,0
2,189,111457611,99,-43,4152,-1,5,0
2,190,111465057,98,-37,4152,-2,2,0
2,191,111472503,98,-37,4152,-3,3,-1
2,192,111479980,97,-42,4147,-2,1,1
2,193,111487426,100,-44,4143,-1,2,1
2,194,111494903,95,-37,4153,-2,4,-2
2,195,111502349,95,-37,4153,0,3,1
2,196,111509796,105,-47,4148,-2,3,0
2,197,111517242,99,-41,4150,1,3,2
2,198,111525207,97,-39,4148,-4,4,1
2,199,111532653,97,-39,4148,-2,5,-1
2,200,111540100,106,-43,4148,-2,3,2
2,201,111547546,103,-49,4144,-2,3,3
2,202,111554992,103,-40,4147,-3,4,0
2,203,111562438,103,-40,4147,-2,6,0
2,204,111569976,94,-46,4152,-4,3,1
2,205,111577423,101,-44,4152,-2,4,0
2,206,111584869,102,-42,4156,0,1,1
2,207,111592315,102,-42,4156,-1,4,0
2,208,111599822,98,-41,4147,-2,3,2
2,209,111607269,94,-37,4147,0,5,1
2,210,111615264,102,-42,4153,-3,5,-1
2,211,111622711,102,-42,4153,-1,4,0
2,212,111630157,105,-42,4147,-1,4,0
2,213,111637603,104,-48,4152,-3,4,0
2,214,111645050,105,-40,4143,0,2,1
2,215,111652496,105,-40,4143,-1,4,1
2,216,111660125,93,-40,4151,0,4,2
2,217,111667572,99,-39,4150,-1,3,1
2,218,111675018,94,-37,4146,-3,6,1
2,219,111682464,94,-37,4146,-2,4,4
2,220,111689910,91,-41,4149,-1,5,-1
2,221,111697357,99,-40,4148,-1,4,-1
2,222,111705261,103,-49,4147,-2,4,1
2,223,111712707,103,-49,4147,-1,4,0
2,224,111720184,101,-43,4152,-1,3,-2
2,225,111727630,106,-37,4151,-2,3,0
2,226,111735229,104,-35,4147,-1,3,0
2,227,111742675,98,-44,4144,-2,3,-1
2,228,111750152,98,-44,4144,-2,4,0
2,229,111757598,101,-39,4148,-3,6,3
2,230,111765167,97,-43,4154,-2,4,1
2,231,111772613,89,-37,4149,-3,3,0
2,232,111780090,89,-37,4149,0,2,1
2,233,111787536,95,-38,4152,-2,4,0
2,234,111795166,93,-42,4154,0,4,0
2,235,111802703,97,-43,4145,0,2,2
2,236,111810211,97,-43,4145,1,2,1
2,237,111817657,107,-41,4155,-5,5,1
2,238,111825164,104,-44,4152,-1,2,0
2,239,111832611,104,-38,4150,1,4,-1
2,240,111840087,104,-38,4150,-1,1,-1
2,241,111847534,101,-40,4148,-3,4,0
2,242,111855255,103,-40,4149,-2,3,-1
2,243,111862701,101,-41,4143,-1,3,2
2,244,111870178,101,-41,4143,-1,3,0
2,245,111877624,106,-42,4154,1,4,1
2,246,111885223,98,-38,4153,-1,2,0
2,247,111892669,95,-40,4149,-2,2,0
2,248,111900146,95,-40,4149,-3,4,0
2,249,111907592,100,-41,4152,-1,5,2
2,250,111915069,101,-36,4150,0,5,2
2,251,111922515,101,-41,4145,-1,6,1
2,252,111929962,101,-41,4145,-1,4,2
2,253,111937408,101,-43,4149,-1,5,1
2,254,111944946,96,-41,4154,0,2,0
2,255,111952392,108,-40,4152,-1,1,2
2,256,111959930,108,-40,4152,-1,1,0
2,257,111967376,102,-41,4148,-4,3,-1
2,258,111974914,98,-45,4148,-2,5,0
2,259,111982360,99,-45,4149,-1,3,-1
2,260,111990142,99,-45,4149,-1,3,-1
2,261,111997589,97,-37,4144,-2,5,0
2,262,112005096,105,-42,4151,-1,7,0
2,263,112012573,105,-41,4147,-4,4,1
2,264,112020233,105,-41,4147,-3,4,0
2,265,112027709,100,-42,4149,-1,3,2
2,266,112035186,93,-46,4147,-1,3,1
2,267,112042633,100,-39,4138,-1,4,0
2,268,112050170,100,-39,4138,-2,5,0
2,269,112057617,100,-42,4144,0,2,2
2,270,112065093,97,-44,4151,0,6,1
2,271,112072540,102,-43,4149,0,4,1
2,272,112080261,102,-43,4149,-2,6,1
2,273,112087707,101,-41,4143,-4,3,2
2,274,112095184,97,-41,4147,-1,3,2
2,275,112102630,99,-41,4152,-1,5,0
2,276,112110107,99,-41,4152,-1,5,4
2,277,112117614,97,-40,4151,-5,4,1
2,278,112125122,104,-40,4149,-3,5,0
2,279,112132568,103,-36,4152,-2,4,1
2,280,112140045,103,-36,4152,0,4,-1
2,281,112147491,102,-41,4151,-4,5,1
2,282,112154968,99,-47,4153,-4,5,-1
2,283,112162414,100,-46,4149,-2,3,0
2,284,112169921,100,-46,4149,0,3,4
2,285,112177368,92,-39,4149,-3,2,1
2,286,112184906,95,-41,4149,-1,5,-3
2,287,112192352,100,-46,4148,0,2,1
2,288,112199920,105,-45,4152,-1,4,2
2,289,112207366,105,-45,4152,-1,2,1
2,290,112214904,103,-40,4147,-1,1,2
2,291,112222351,105,-40,4152,-3,3,1
2,292,112229949,99,-42,4147,-3,3,1
2,293,112237396,99,-42,4147,-5,4,1
2,294,112244903,101,-41,4153,-1,3,4
2,295,112252349,100,-41,4151,2,3,5
2,296,112259979,102,-43,4142,-1,3,-1
2,297,112267456,102,-43,4142,-2,5,2
2,298,112274932,91,-42,4141,-2,5,1
2,299,112282379,97,-38,4153,-1,4,1
2,300,112289916,103,-45,4147,-2,3,0
2,301,112297363,103,-45,4147,-1,3,-1
2,302,112304901,98,-42,4151,-1,5,-1
2,303,112312347,105,-38,4150,-4,4,2
2,304,112319885,100,-38,4152,-1,0,1
2,305,112327331,100,-38,4152,0,4,1
2,306,112334869,95,-42,4150,0,5,-1
2,307,112342315,97,-37,4152,-1,3,0
2,308,112349853,91,-38,4149,0,3,1
2,309,112357299,91,-38,4149,-3,4,-1
2,310,112364837,92,-48,4152,1,4,1
2,311,112372283,98,-48,4152,0,3,3
2,312,112379760,98,-45,4153,0,2,2
2,313,112387207,98,-45,4153,-2,3,1
2,314,112394714,97,-45,4151,-3,3,1
2,315,112402160,104,-42,4144,-2,6,2
2,316,112409637,105,-40,4145,-1,3,0
2,317,112417083,105,-40,4145,-2,1,0
2,318,112424621,101,-42,4150,-3,5,1
2,319,112432067,103,-44,4151,-2,4,0
2,320,112439605,98,-40,4149,-2,2,2
2,321,112447052,98,-40,4149,-3,4,2
2,322,112454528,100,-40,4149,-2,3,1
2,323,112461975,106,-40,4150,0,5,2
2,324,112469421,98,-43,4150,0,5,4
2,325,112476867,98,-43,4150,-1,6,1
2,326,112484375,104,-40,4155,0,4,-1
2,327,112491821,99,-46,4158,0,5,1
2,328,112499359,95,-45,4151,-1,2,2
2,329,112506835,95,-45,4151,-3,3,2
2,330,112514373,103,-45,4152,-2,3,2
2,331,112521820,106,-42,4149,-1,5,1
2,332,112529357,100,-46,4148,-2,5,1
2,333,112536804,100,-46,4148,-3,4,0
2,334,112544372,98,-45,4157,-3,3,0
2,335,112551879,100,-43,4147,-2,3,-1
2,336,112559356,102,-41,4143,-1,3,-1
2,337,112566802,102,-41,4143,-1,2,-2
2,338,112574340,92,-43,4150,-2,4,1
2,339,112581817,101,-41,4150,-1,5,0
2,340,112589355,102,-38,4148,-2,4,0
2,341,112596801,102,-38,4148,-1,4,1
2,342,112604339,93,-42,4149,0,2,3
2,343,112611816,98,-40,4145,-2,4,2
2,344,112619354,108,-42,4150,-1,3,0
2,345,112626800,108,-42,4150,-2,1,0
2,346,112634338,103,-41,4147,-1,4,2
2,347,112641815,96,-49,4152,-2,3,1
2,348,112649353,98,-45,4148,0,4,2
2,349,112656799,102,-47,4151,-1,5,1
2,350,112664337,102,-47,4151,-3,2,2
2,351,112671844,102,-45,4150,-1,5,1
2,352,112679351,96,-40,4153,-3,3,0
2,353,112686798,101,-45,4147,-1,4,2
2,354,112694335,101,-45,4147,1,5,1
2,355,112701812,101,-41,4149,-2,2,-1
2,356,112709350,92,-39,4159,-2,1,1
2,357,112716796,97,-39,4149,-2,5,0
2,358,112724334,97,-39,4149,-2,4,4
2,359,112731811,101,-42,4144,-3,4,-2
2,360,112739349,101,-42,4150,0,3,2
2,361,112746795,100,-43,4151,-2,4,0
2,362,112754333,100,-43,4151,-2,2,0
2,363,112761810,103,-44,4152,-2,3,2
2,364,112769348,104,-39,4143,-2,2,0
2,365,112776794,100,-47,4148,-3,1,1
2,366,112784332,100,-47,4148,-2,5,0
2,367,112791809,99,-40,4150,-2,4,1
2,368,112799346,103,-39,4156,-1,4,1
2,369,112806793,96,-42,4144,-2,4,-1
2,370,112814361,96,-42,4144,0,3,1
2,371,112821899,92,-41,4152,-1,3,2
2,372,112829345,90,-43,4150,-4,4,1
2,373,112836791,103,-35,4153,-1,2,1
2,374,112844329,103,-35,4153,-3,4,2
2,375,112851806,100,-41,4147,0,4,0
2,376,112859344,108,-37,4144,-1,4,2
2,377,112866790,101,-43,4145,-3,5,1
2,378,112874328,101,-43,4145,-1,4,2
2,379,112881805,107,-41,4149,-4,4,0
2,380,112889343,102,-39,4153,0,4,1
2,381,112896789,98,-39,4149,-1,2,3
2,382,112904327,98,-39,4149,-3,2,2
2,383,112911773,101,-45,4152,-3,6,0
2,384,112919342,96,-43,4153,-1,3,1
2,385,112926788,98,-43,4150,-2,5,3
2,386,112934326,98,-43,4150,-3,5,0
2,387,112941802,98,-50,4151,-2,5,0
2,388,112949340,105,-39,4150,-2,4,-3
2,389,112956787,108,-37,4145,-2,3,2
2,390,112964324,108,-37,4145,-2,2,2
2,391,112971771,97,-36,4149,-4,3,0
2,392,112979339,106,-37,4148,-4,2,2
2,393,112986785,95,-36,4146,-1,4,1
2,394,112994323,95,-36,4146,-1,5,1
2,395,113001770,96,-45,4153,-3,4,-3
2,396,113009307,93,-39,4149,-3,4,-2
2,397,113016784,91,-38,4146,-3,4,1
2,398,113024322,91,-38,4146,-2,4,0
2,399,113031768,92,-37,4151,-1,2,2
2,400,113039306,105,-39,4140,0,3,1
2,401,113046783,101,-33,4153,-2,5,0
2,402,113054321,77,-128,4148,-3,6,-12
2,403,113061767,77,-128,4148,-1,6,-64
2,404,113069305,126,33,4152,-1,6,4
2,405,113076782,106,-66,4149,-2,4,-17
2,406,113084320,210,-466,4158,-2,2,25
2,407,113091857,210,-466,4158,-10,-3,21
2,408,113099304,97,-727,4157,-15,6,-15
2,409,113106781,118,-207,4116,-15,4,-1
2,410,113114318,97,5,4169,-1,-2,-20
2,411,113121765,97,5,4169,-17,23,-28
2,412,113129302,90,92,4186,5,-29,0
2,413,113136779,30,71,4114,-9,10,-6
2,414,113144317,69,-215,4173,-8,-8,-82
2,415,113151763,69,-215,4173,-1,4,-53
2,416,113159301,156,-286,4128,2,15,-37
2,417,113166778,86,-364,4163,3,3,-25
2,418,113174316,62,-238,4204,-7,9,-27
2,419,113181762,62,-238,4204,-6,-4,-18
2,420,113189300,77,-392,4118,-2,6,8
2,421,113196777,365,-243,4174,-6,13,78
2,422,113204315,398,429,4247,-53,42,194
2,423,113211791,398,429,4247,-113,15,211
2,424,113219543,226,698,6282,-1357,188,251
2,425,113227050,381,327,6912,-1842,1186,254
2,426,113234588,-338,163,3647,-1122,-375,45
2,427,113242034,-338,163,3647,-1024,71,-1
2,428,113249572,-379,-461,3912,-1061,-620,-104
2,429,113257110,-149,201,4424,-1099,-630,-105
2,430,113264587,167,120,4336,-1043,-118,-69
2,431,113272033,167,120,4336,-1084,-108,-43
2,432,113279571,273,-365,4351,-1207,-209,44
2,433,113287017,454,-375,4353,-1282,-106,116
2,434,113294555,274,-234,4689,-1397,-24,212
2,435,113302001,274,-234,4689,-1435,-18,174
2,436,113309539,9,-163,4815,-1431,-210,154
2,437,113316986,205,-389,4935,-1464,-439,146
2,438,113324462,358,-562,4914,-1466,-1384,227
2,439,113331909,358,-562,4914,-1509,-1882,257
2,440,113339355,436,-706,4357,-1534,-2009,385
2,441,113346801,493,-648,4355,-1596,-1939,396
2,442,113354248,224,-455,4802,-1845,-1762,418
2,443,113361816,224,-455,4802,-1909,-1575,391
2,444,113369415,293,-655,4524,-1806,-1339,401
2,445,113376892,690,-1037,3906,-1759,-1173,408
2,446,113384338,662,-1185,4092,-1719,-1330,358
2,447,113391784,662,-1185,4092,-1719,-1523,338
2,448,113399291,665,-1061,4551,-1775,-1830,332
2,449,113406768,734,-1121,4638,-1799,-1904,370
2,450,113414306,670,-1089,4225,-1912,-1973,391
2,451,113421752,670,-1089,4225,-1941,-1801,401
2,452,113429290,489,-1298,3905,-1946,-1569,387
2,453,113436767,646,-1345,3898,-1980,-1300,400
2,454,113444427,836,-1549,3919,-2004,-1211,404
2,455,113451873,792,-1550,3847,-2020,-1049,325
2,456,113459320,792,-1550,3847,-2056,-846,311
2,457,113466766,669,-1456,3549,-2091,-799,264
2,458,113474212,561,-1728,3058,-2078,-498,263
2,459,113481658,545,-1734,3275,-2028,-331,221
2,460,113489105,545,-1734,3275,-2044,-361,193
2,461,113496551,546,-1643,3370,-2065,-393,162
2,462,113504028,688,-1816,3210,-2041,-486,147
2,463,113511505,786,-1819,3031,-1914,-417,90
2,464,113518951,786,-1819,3031,-1893,-388,7
2,465,113526397,756,-2057,3134,-1800,-379,54
2,466,113533843,912,-2291,3338,-1804,-241,25
2,467,113541290,958,-2353,3282,-1756,-178,-5
2,468,113548736,958,-2353,3282,-1715,-411,9
2,469,113556182,958,-2274,2833,-1630,-392,35
2,470,113563629,1054,-2121,2645,-1530,-488,46
2,471,113571075,1079,-1993,2507,-1327,-482,-12
2,472,113578521,1079,-1993,2507,-1261,-460,-41
2,473,113585968,1200,-2116,2429,-1165,-370,12
2,474,113593414,1135,-2366,2685,-1212,-351,37
2,475,113600860,1088,-2511,2595,-1182,78,-50
2,476,113608306,1088,-2511,2595,-1217,157,-73
2,477,113615753,846,-2860,3385,-1248,-366,-108
2,478,113623199,1007,-2853,3247,-1275,-460,-166
2,479,113630645,1236,-2816,2671,-1224,-366,-164
2,480,113638092,1236,-2816,2671,-1238,-257,-163
2,481,113645599,1317,-2872,2575,-1148,-155,-87
2,482,113653045,1273,-2976,2785,-1078,-208,-45
2,483,113660491,1165,-2836,2643,-997,-303,-114
2,484,113667938,1165,-2836,2643,-1001,-323,-102
2,485,113675384,1023,-2838,2505,-1090,-307,-149
2,486,113682830,1270,-2484,2220,-1053,-291,-185
2,487,113690277,1394,-2322,2182,-883,-277,-217
2,488,113697723,1394,-2322,2182,-829,-295,-222
2,489,113705230,1250,-2707,2329,-702,-185,-142
2,490,113712677,1310,-2936,2475,-669,-123,-114
2,491,113720123,1430,-2908,2496,-587,-159,-74
2,492,113727569,1430,-2908,2496,-595,-152,-72
2,493,113735015,1373,-2673,2389,-590,-92,-86
2,494,113742462,1162,-2836,2585,-585,-113,-92
2,495,113749908,1055,-3037,2798,-586,-157,-117
2,496,113757354,1055,-3037,2798,-545,-232,-141
2,497,113764801,1219,-3017,2621,-524,-206,-120
2,498,113772247,1261,-3213,2549,-519,-251,-110
2,499,113779693,1391,-2950,2497,-604,-224,-145
2,500,113787139,1391,-2950,2497,-604,-270,-162
2,501,113794586,1357,-3041,2563,-503,-258,-166
2,502,113802032,1409,-2906,2425,-451,-193,-165
2,503,113809478,1541,-2652,2055,-378,78,-125
2,504,113816925,1541,-2652,2055,-333,258,-91
2,505,113824371,1495,-2835,2123,-281,312,-35
2,506,113831817,1432,-2971,2238,-280,334,-41
2,507,113839263,1403,-2847,2322,-262,237,-23
2,508,113846710,1403,-2847,2322,-255,187,-9
2,509,113854156,1387,-2822,2300,-214,162,36
2,510,113861602,1352,-2997,2451,-191,102,49
2,511,113869049,1243,-3324,2647,-223,76,-4
2,512,113876495,1243,-3324,2647,-255,-21,-45
2,513,113883941,1088,-3493,2817,-336,-84,-106
2,514,113891387,1125,-3459,2671,-359,-96,-112
2,515,113898834,1227,-3227,2466,-448,-117,-148
2,516,113906280,1227,-3227,2466,-458,-123,-170
2,517,113913726,1353,-3109,2311,-405,-100,-124
2,518,113921173,1391,-3066,2264,-386,-115,-131
2,519,113928619,1423,-2983,2081,-351,-21,-162
2,520,113936065,1423,-2983,2081,-308,43,-152
2,521,113943511,1367,-2936,2082,-226,106,-101
2,522,113950958,1388,-2850,2070,-190,126,-100
2,523,113958404,1387,-2957,2139,-129,141,-82
2,524,113965850,1387,-2957,2139,-122,120,-53
2,525,113973297,1427,-3050,2306,-140,16,-75
2,526,113980743,1308,-3333,2520,-150,-56,-87
2,527,113988189,1225,-3507,2675,-221,-174,-125
2,528,113995635,1225,-3507,2675,-249,-236,-129
2,529,114003112,1428,-3193,2337,-233,-178,-109
2,530,114010559,1466,-3116,2226,-202,-126,-86
2,531,114018005,1449,-3201,2291,-176,-51,-77
2,532,114025451,1449,-3201,2291,-173,-75,-74
2,533,114032897,1497,-3149,2217,-155,-57,-68
2,534,114040405,1499,-3045,2086,-146,-23,-61
2,535,114047851,1522,-2978,2043,-102,71,-43
2,536,114055297,1522,-2978,2043,-60,83,-24
2,537,114062744,1476,-3065,2132,-16,105,-39
2,538,114070190,1408,-3128,2182,-6,72,-44
2,539,114077636,1389,-3043,2127,11,135,-27
2,540,114085083,1389,-3043,2127,23,139,-20
2,541,114092529,1418,-3069,2235,35,83,-26
2,542,114099975,1414,-3164,2309,26,59,-29
2,543,114107421,1457,-3301,2382,-7,-9,-29
2,544,114114868,1457,-3301,2382,-33,-49,-22
2,545,114122314,1539,-3508,2393,-67,-83,-52
2,546,114129760,1566,-3523,2279,-79,-31,-56
2,547,114137207,1489,-3348,2337,-59,36,-53
2,548,114144653,1489,-3348,2337,-31,59,-51
2,549,114152099,1444,-3245,2353,38,98,-33
2,550,114159545,1432,-3114,2238,61,176,-17
2,551,114166992,1380,-2999,2252,100,148,8
2,552,114174438,1380,-2999,2252,106,199,14
2,553,114181884,1378,-2876,2136,121,204,35
2,554,114189331,1314,-2867,2112,133,209,45
2,555,114196777,1230,-2918,2235,120,206,36
2,556,114204223,1230,-2918,2235,109,172,29
2,557,114211669,1205,-2857,2315,96,144,29
2,558,114219116,1177,-2894,2390,103,81,41
2,559,114226593,1217,-3024,2472,102,26,38
2,560,114234039,1217,-3024,2472,103,-47,31
2,561,114241485,1298,-3159,2525,87,-61,23
2,562,114248931,1355,-3275,2496,71,-19,21
2,563,114256378,1355,-3275,2496,52,6,16
2,564,114263885,1363,-3347,2588,35,-17,-14
2,565,114271331,1407,-3308,2449,54,74,-10
2,566,114278778,1437,-3274,2385,62,98,-23
2,567,114286224,1419,-3180,2320,83,92,-21
2,568,114293670,1419,-3180,2320,85,138,-17
2,569,114301116,1416,-3098,2240,91,134,-17
2,570,114308563,1384,-3065,2215,101,134,-9
2,571,114316009,1418,-3001,2095,143,142,12
2,572,114323455,1418,-3001,2095,167,168,24
2,573,114330902,1504,-2936,1968,196,201,34
2,574,114338348,1558,-2887,1850,272,285,74
2,575,114345794,1558,-2887,1850,315,359,86
2,576,114353240,1627,-2783,1644,450,536,155
2,577,114360687,1732,-2670,1373,537,657,197
2,578,114368133,1646,-2546,1295,725,875,282
2,579,114375579,1646,-2546,1295,820,977,340
2,580,114383026,1511,-2350,1247,986,1175,444
2,581,114390472,1303,-2327,1406,1041,1181,505
2,582,114397918,1106,-2294,1774,1252,1098,633
2,583,114405364,1106,-2294,1774,1275,1046,670
2,584,114412811,919,-2358,1706,1209,1182,788
2,585,114420257,331,-2480,3834,2192,1063,788
2,586,114427703,256,-1055,3824,5333,6014,457
2,587,114435150,256,-1055,3824,4837,3185,107
2,588,114442596,1268,-4066,9536,3813,-910,58
2,589,114450073,2897,-3668,7932,2383,-1706,730
2,590,114457519,-1094,-5111,2677,1905,-914,-362
2,591,114464965,-1094,-5111,2677,1651,-274,-406
2,592,114472412,-561,-3871,2674,1099,422,-201
2,593,114479858,303,-3144,3605,839,436,-213
2,594,114487365,162,-2819,3010,198,359,-235
2,595,114494842,162,-2819,3010,-54,479,-266
2,596,114502288,-510,-2375,1470,-602,956,-200
2,597,114509735,-382,-1979,531,-896,1013,-121
2,598,114517181,345,-2042,-184,-1457,1032,25
2,599,114524658,345,-2042,-184,-1692,958,142
2,600,114532104,-280,-2201,-727,-2462,1043,-638
2,601,114539886,3306,492,9822,-6061,708,-277
2,602,114547332,570,-3997,7431,-3794,-3859,-855
2,603,114554779,680,-5181,3057,-838,213,-535
2,604,114562225,680,-5181,3057,469,1128,-247
2,605,114569671,791,-3836,5417,1051,691,-745
2,606,114577117,1065,-2067,2207,812,611,-802
2,607,114584594,1580,-1948,942,-167,513,-289
2,608,114592041,1580,-1948,942,-460,402,-200
2,609,114599487,1423,-2819,2766,-894,-189,-315
2,610,114606933,1760,-3036,2059,-760,39,-300
2,611,114614440,1649,-2779,2640,-54,206,-104
2,612,114621887,1649,-2779,2640,149,-59,-111
2,613,114629516,1406,-2542,2227,151,3,-29
2,614,114636962,1591,-2495,1425,155,127,97
2,615,114644470,1516,-2512,1865,358,259,257
2,616,114651947,1516,-2512,1865,521,103,320
2,617,114659393,1284,-2474,2191,706,171,419
2,618,114666839,1265,-2580,2007,751,211,456
2,619,114674316,1280,-2612,2287,819,52,559
2,620,114681762,1280,-2612,2287,850,-77,610
2,621,114689208,1038,-2728,2368,878,36,598
2,622,114696655,878,-2772,2056,855,162,584
2,623,114704101,805,-2572,735,851,1120,620
2,624,114711547,805,-2572,735,891,1870,639
2,625,114719177,686,-1994,1276,893,1822,665
2,626,114726623,476,-2075,1325,913,2191,660
2,627,114734069,-1183,-3162,1430,-191,-7614,75
2,628,114741546,-1183,-3162,1430,372,-7527,-103
2,629,114748992,390,-1854,-1711,1280,-343,303
2,630,114756439,1613,-2756,6866,1505,-1060,584
2,631,114763946,-815,-4731,5746,1138,-1246,446
2,632,114771392,-815,-4731,5746,620,-608,327
2,633,114778930,-1488,-4319,3164,307,649,-329
2,634,114786376,-563,-2910,2946,251,1356,-419
2,635,114793823,-158,-2301,3037,-282,2737,-61
2,636,114801269,-158,-2301,3037,-694,3253,79
2,637,114808715,484,-2623,3108,-1536,3541,33
2,638,114816162,546,-2431,4006,-1821,3292,27
2,639,114823608,389,-2517,6123,-1851,825,-195
2,640,114831054,389,-2517,6123,-1280,-98,-454
2,641,114838500,386,-3012,4863,-533,-769,-791
2,642,114845947,636,-3096,3564,-539,-700,-717
2,643,114853393,959,-2958,3228,-804,-643,-550
2,644,114860839,959,-2958,3228,-941,-751,-560
2,645,114868286,1248,-3013,2758,-1104,-899,-681
2,646,114875732,1414,-2720,2836,-1141,-1353,-681
2,647,114883178,1080,-2178,1521,-988,-1182,-594
2,648,114890716,1080,-2178,1521,-836,-679,-489
2,649,114898162,1147,-2134,1421,-539,-588,-356
2,650,114905670,1332,-2250,1638,-386,-621,-324
2,651,114913116,1386,-2127,924,-55,-99,-192
2,652,114920562,1386,-2127,924,104,184,-95
2,653,114928009,1465,-2107,1164,321,402,72
2,654,114935455,1406,-2341,1620,376,443,133
2,655,114942901,1295,-2428,1836,519,530,269
2,656,114950347,1295,-2428,1836,645,542,335
2,657,114957794,973,-2424,2435,760,608,432
2,658,114965240,438,-2924,3248,726,621,400
2,659,114972686,194,-3355,3981,504,356,296
2,660,114980133,194,-3355,3981,375,281,222
2,661,114987609,306,-3281,3945,230,129,133
2,662,114995117,403,-2954,3326,236,101,109
2,663,115002593,443,-2315,1995,355,1813,312
2,664,115010040,443,-2315,1995,356,1255,314
2,665,115017486,543,-3279,4910,275,-52,9
2,666,115024932,668,-3028,3784,240,-54,-5
2,667,115032379,626,-2743,3062,263,55,2
2,668,115039825,626,-2743,3062,279,98,25
2,669,115047271,616,-2788,3080,146,207,82
2,670,115054718,686,-2720,3036,125,184,67
2,671,115062164,693,-2619,2915,209,57,55
2,672,115069610,693,-2619,2915,247,34,56
2,673,115077056,621,-2546,2742,304,87,74
2,674,115084533,557,-2510,2705,309,159,90
2,675,115091979,517,-2565,2837,318,271,116
2,676,115099426,517,-2565,2837,305,262,110
2,677,115106872,458,-2611,3062,287,223,92
2,678,115114318,425,-2542,3103,294,214,90
2,679,115121765,453,-2543,3137,335,226,93
2,680,115129211,453,-2543,3137,340,271,106
2,681,115136657,494,-2667,3321,317,321,101
2,682,115144104,443,-2746,3493,298,283,80
2,683,115151550,454,-2689,3655,265,217,51
2,684,115158996,454,-2689,3655,260,-37,53
2,685,115166442,438,-2615,3491,282,56,36
2,686,115173889,433,-2593,3190,291,134,46
2,687,115181335,413,-2608,3260,295,177,56
2,688,115188781,413,-2608,3260,276,170,37
2,689,115196228,397,-2603,3276,233,202,21
2,690,115203674,407,-2594,3270,217,205,15
2,691,115211120,359,-2557,3374,203,143,-8
2,692,115218566,359,-2557,3374,199,82,-12
2,693,115226013,371,-2561,3317,184,117,-36
2,694,115233459,409,-2564,3266,178,146,-42
2,695,115240905,514,-2555,3291,180,150,-31
2,696,115248352,514,-2555,3291,191,131,-23
2,697,115255798,589,-2564,3292,200,101,-16
2,698,115263336,556,-2553,3271,201,107,-12
2,699,115270782,513,-2538,3262,195,116,-1
2,700,115278228,513,-2538,3262,198,111,1
2,701,115285675,485,-2516,3271,202,110,7
2,702,115293121,433,-2513,3283,203,110,8
2,703,115300567,424,-2510,3258,210,122,3
2,704,115308013,424,-2510,3258,225,122,1
2,705,115315521,425,-2529,3259,215,151,-10
2,706,115322967,408,-2518,3315,204,162,-17
2,707,115330413,471,-2488,3290,210,205,-17
2,708,115337860,471,-2488,3290,220,192,-11
2,709,115345306,443,-2445,3330,223,178,8
2,710,115352752,477,-2450,3341,224,185,21
2,711,115360198,454,-2426,3348,210,193,23
2,712,115367645,454,-2426,3348,218,183,39
2,713,115375091,435,-2384,3303,246,176,44
2,714,115382537,421,-2344,3219,268,168,55
2,715,115389984,505,-2325,3081,332,169,79
2,716,115397430,505,-2325,3081,377,190,80
2,717,115404876,489,-2312,2961,457,230,103
2,718,115412322,447,-2279,2938,488,265,111
2,719,115419769,452,-2161,2897,570,312,151
2,720,115427215,452,-2161,2897,626,412,167
2,721,115434661,364,-2213,2991,679,465,191
2,722,115442108,332,-2390,3369,653,428,190
2,723,115449554,316,-2413,3532,557,330,140
2,724,115457000,316,-2413,3532,545,341,137
2,725,115464447,350,-2228,3450,599,383,134
2,726,115471893,339,-2163,3376,638,441,175
2,727,115479339,305,-2288,3627,614,350,164
2,728,115486785,305,-2288,3627,596,320,149
2,729,115494232,232,-2120,3453,680,420,156
2,730,115501678,97,-2115,3375,709,486,170
2,731,115509124,84,-2192,3457,680,539,166
2,732,115516571,84,-2192,3457,669,540,153
2,733,115524017,110,-2253,3647,639,454,133
2,734,115531494,154,-2136,3665,633,411,136
2,735,115539001,154,-2000,3502,680,416,141
2,736,115546447,154,-2000,3502,722,425,159
2,737,115553894,197,-2038,3586,771,321,190
2,738,115561340,192,-1997,3620,764,272,197
2,739,115568908,171,-1973,3500,835,244,215
2,740,115576538,171,-1973,3500,864,172,212
2,741,115583984,57,-1969,3516,842,216,189
2,742,115591430,-133,-2074,3553,811,258,146
2,743,115598876,-38,-1996,3663,726,294,142
2,744,115606323,-38,-1996,3663,716,292,148
2,745,115613769,-1,-1871,3611,775,333,137
2,746,115621429,-47,-1742,3595,834,356,123
2,747,115628875,-63,-1835,3773,892,349,138
2,748,115636322,-63,-1835,3773,838,296,171
2,749,115643768,12,-1868,3779,828,316,160
2,750,115651214,155,-1871,3880,834,304,163
2,751,115658660,236,-1858,3985,834,247,194
2,752,115666442,236,-1858,3985,833,244,218
2,753,115673889,146,-1873,3996,806,208,221
2,754,115681335,66,-1812,4184,762,174,220
2,755,115688781,-98,-1719,4234,642,205,177
2,756,115696258,-98,-1719,4234,596,222,166
2,757,115703704,-131,-1636,4145,545,252,163
2,758,115711212,-137,-1595,4112,530,213,167
2,759,115718658,-208,-1625,4185,483,47,148
2,760,115726104,-208,-1625,4185,437,-31,132
2,761,115733551,-189,-1596,4024,404,-54,118
2,762,115740997,-131,-1536,3841,413,-44,125
2,763,115748443,-165,-1578,3791,446,-18,128
2,764,115755920,-165,-1578,3791,456,-11,119
2,765,115763366,-201,-1578,3798,450,7,113
2,766,115770812,-163,-1552,3872,446,23,111
2,767,115778259,-190,-1519,4030,431,50,98
2,768,115785705,-190,-1519,4030,404,81,89
2,769,115793212,-182,-1422,4171,355,112,96
2,770,115800750,-191,-1385,4245,334,89,93
2,771,115808197,-178,-1397,4237,311,26,91
2,772,115815643,-178,-1397,4237,304,-21,88
2,773,115823089,-162,-1389,4148,289,-114,79
2,774,115830627,-204,-1408,4013,283,-136,67
2,775,115838073,-236,-1434,3888,265,-115,30
2,776,115845520,-236,-1434,3888,256,-84,22
2,777,115852966,-156,-1393,3843,265,-26,27
2,778,115860412,-84,-1374,3874,269,-11,31
2,779,115867858,-81,-1387,3919,273,-21,33
2,780,115875305,-81,-1387,3919,283,-49,29
2,781,115882751,-120,-1370,3896,296,-74,24
2,782,115890197,-132,-1334,3937,286,-65,19
2,783,115897644,-126,-1332,3969,279,-59,31
2,784,115905090,-126,-1332,3969,278,-35,33
2,785,115912536,-106,-1284,3973,274,25,30
2,786,115919982,-95,-1270,4064,262,23,39
2,787,115927429,-67,-1213,4094,244,-3,47
2,788,115934967,-67,-1213,4094,239,-22,47
2,789,115942443,-68,-1169,4070,242,-79,52
2,790,115949890,-77,-1178,3950,252,-89,61
2,791,115957336,-91,-1228,3840,274,-104,77
2,792,115964782,-91,-1228,3840,271,-92,86
2,793,115972229,-62,-1225,3810,293,-60,97
2,794,115979705,-122,-1247,3808,313,-38,95
2,795,115987152,-202,-1231,3918,330,4,73
2,796,115994598,-202,-1231,3918,330,4,63
2,797,116002044,-247,-1226,4002,344,-53,19
2,798,116009490,-278,-1204,4002,361,-59,1
2,799,116016937,-183,-1145,4033,347,-16,-7
2,800,116024444,-183,-1145,4033,318,16,-8
2,801,116031982,-131,-1151,4050,256,87,-34
2,802,116039428,-132,-1072,4060,240,162,-21
2,803,116046875,-189,-1257,4163,264,134,-27
2,804,116054321,-189,-1257,4163,255,83,-49
2,805,116061767,-53,-1187,4191,222,-24,-50
2,806,116069366,22,-1111,4082,220,-72,-41
2,807,116076812,-55,-1146,3957,230,-26,-39
2,808,116084259,-55,-1146,3957,231,21,-44
2,809,116091705,-121,-1100,3990,208,34,-44
2,810,116099151,-79,-1007,4038,212,18,-30
2,811,116106597,-79,-1017,4006,210,-11,-3
2,812,116114074,-79,-1017,4006,215,-29,-1
2,813,116121551,-130,-1083,3907,240,-25,-8
2,814,116128997,-141,-1055,3862,259,-11,-12
2,815,116136444,-97,-1016,3893,284,5,-3
2,816,116143890,-97,-1016,3893,276,25,-1
2,817,116151336,-41,-1007,3908,310,58,13
2,818,116158813,-35,-957,3976,329,56,16
2,819,116166290,30,-944,4082,343,71,52
2,820,116173736,30,-944,4082,336,70,77
2,821,116181182,120,-975,4168,323,-2,107
2,822,116188629,115,-965,4121,305,-35,116
2,823,116196075,45,-1012,4013,279,-49,144
2,824,116203521,45,-1012,4013,285,-51,149
2,825,116210968,-70,-1022,3937,297,-25,133
2,826,116218414,-158,-966,3940,305,5,131
2,827,116225860,-140,-910,4035,295,22,134
2,828,116233306,-140,-910,4035,297,16,132
2,829,116240753,-135,-891,4044,315,-54,119
2,830,116248199,-153,-882,3917,320,-78,117
2,831,116255645,-149,-838,3814,337,-25,115
2,832,116263092,-149,-838,3814,350,36,123
2,833,116270538,-117,-809,3892,364,134,139
2,834,116277984,-126,-858,4000,375,169,140
2,835,116285430,-133,-889,4157,376,173,138
2,836,116292877,-133,-889,4157,361,162,138
2,837,116300323,-120,-851,4244,340,177,131
2,838,116307769,-193,-812,4306,333,185,114
2,839,116315216,-205,-736,4379,296,181,95
2,840,116322662,-205,-736,4379,270,195,104
2,841,116330108,-86,-658,4259,247,384,118
2,842,116337554,-129,-759,4703,211,136,121
2,843,116345001,-165,-799,4427,148,-82,109
2,844,116352447,-165,-799,4427,128,-156,111
2,845,116359893,-197,-846,4124,118,-148,105
2,846,116367340,-189,-818,3890,125,-76,108
2,847,116374786,-176,-792,3897,139,24,120
2,848,116382232,-176,-792,3897,146,31,120
2,849,116389678,-159,-768,4000,148,11,108
2,850,116397125,-153,-797,4011,157,1,117
2,851,116404571,-212,-794,3992,190,-42,90
2,852,116412017,-212,-794,3992,191,-28,66
2,853,116419464,-223,-675,3974,199,43,64
2,854,116426910,-218,-735,4058,210,66,69
2,855,116434356,-109,-710,4170,209,93,90
2,856,116441802,-109,-710,4170,199,80,100
2,857,116449249,15,-659,4270,166,10,121
2,858,116456695,-16,-712,4224,156,-16,130
2,859,116464141,-114,-728,4134,161,-54,139
2,860,116471588,-114,-728,4134,163,-53,145
2,861,116479034,-121,-624,4050,149,-4,146
2,862,116486480,-195,-684,4029,155,23,143
2,863,116493927,-232,-702,4031,169,-31,122
2,864,116501373,-232,-702,4031,169,-48,124
2,865,116508819,-223,-780,3960,213,-57,127
2,866,116516265,-209,-736,3905,220,-49,121
2,867,116523712,-249,-693,3871,234,14,118
2,868,116531158,-249,-693,3871,250,59,111
2,869,116538604,-276,-660,3983,278,134,76
2,870,116546051,-271,-583,4245,274,159,73
2,871,116553497,-226,-414,4471,243,159,67
2,872,116560943,-226,-414,4471,213,153,68
2,873,107609375,109,-44,4144,-1,3,2
2,874,107616821,109,-44,4144,0,4,0
2,875,107624267,108,-41,4146,-1,0,2
2,876,107631774,97,-44,4151,0,3,2
2,877,107639221,97,-42,4155,-2,5,1
2,878,107646667,97,-42,4155,-1,3,-1
2,879,107654113,100,-42,4154,-1,5,-2
2,880,107661560,102,-45,4149,0,4,3
2,881,107669006,101,-45,4147,-1,3,0
2,882,107676452,101,-45,4147,-1,3,0
2,883,107683898,97,-38,4149,0,3,3
2,884,107691345,103,-42,4147,1,4,3
2,885,107698852,99,-44,4147,0,4,0
2,886,107706329,99,-44,4147,-1,3,0
2,887,107713775,104,-40,4152,-2,2,2
2,888,107721221,103,-40,4148,-2,2,2
2,889,107728668,95,-40,4147,-1,4,1
2,890,107736114,95,-40,4147,-2,3,1
2,891,107743560,99,-47,4150,-3,2,-1
2,892,107751007,94,-42,4149,-2,2,3
2,893,107758453,97,-46,4150,-2,4,2
2,894,107765899,97,-46,4150,-2,5,0
2,895,107773345,104,-38,4151,-3,6,1
2,896,107780792,105,-38,4149,-2,3,2
2,897,107788238,107,-41,4156,-3,3,0
2,898,107795684,107,-41,4156,0,4,0
2,899,107803131,98,-42,4154,-4,6,1
2,900,107810577,98,-42,4150,0,4,0
2,901,107818054,98,-41,4148,-2,3,0
2,902,107825500,98,-41,4148,-1,2,3
2,903,107832946,99,-41,4147,-1,3,1
2,904,107840393,100,-40,4150,-3,3,0
2,905,107847839,96,-37,4146,-4,5,1
2,906,107855285,96,-37,4146,-2,3,2
2,907,107862731,99,-38,4147,-3,4,0
2,908,107870178,104,-38,4144,-3,3,0
2,909,107877624,102,-45,4155,0,4,2
2,910,107885070,102,-45,4155,-1,3,0
2,911,107892517,102,-39,4143,-2,2,0
2,912,107899963,103,-37,4144,0,3,1
2,913,107907409,99,-42,4147,-2,3,0
2,914,107914855,99,-42,4147,0,5,1
2,915,107922302,96,-44,4143,-3,5,0
2,916,107929748,94,-45,4145,-2,4,-1
2,917,107937194,99,-41,4147,-3,4,3
2,918,107944641,99,-41,4147,-3,3,-1
2,919,107952087,103,-34,4151,-2,5,1
2,920,107959533,98,-39,4148,-3,5,1
2,921,107966979,98,-42,4156,-1,5,0
2,922,107974426,98,-42,4156,0,5,3
2,923,107981872,103,-41,4156,-1,2,0
2,924,107989318,103,-43,4145,-1,5,0
2,925,107996765,95,-49,4150,-1,5,1
2,926,108004211,95,-49,4150,-1,3,2
2,927,108011657,94,-49,4142,-1,4,1
2,928,108019165,107,-44,4144,1,3,0
2,929,108026611,101,-39,4156,-2,4,0
2,930,108034057,101,-39,4156,-1,2,1
2,931,108041503,101,-42,4142,-2,6,-1
2,932,108048950,97,-39,4144,-3,6,2
2,933,108056396,101,-43,4148,1,4,0
2,934,108063842,101,-43,4148,-2,5,0
2,935,108071289,99,-42,4151,0,4,0
2,936,108078735,97,-44,4151,-1,3,0
2,937,108086181,101,-41,4151,2,4,2
2,938,108093627,101,-41,4151,0,3,2
2,939,108101074,99,-42,4145,0,2,0
2,940,108108520,98,-43,4148,-4,4,1
2,941,108115966,104,-42,4149,0,4,1
2,942,108123413,104,-42,4149,-1,4,0
2,943,108130859,105,-41,4146,-3,4,0
2,944,108138427,100,-45,4147,-2,6,-1
2,945,108145874,94,-43,4150,-2,3,1
2,946,108153320,94,-43,4150,-1,2,1
2,947,108160766,98,-42,4144,0,4,1
2,948,108168304,94,-45,4149,1,5,2
2,949,108175750,95,-41,4152,-3,5,-1
2,950,108183197,95,-41,4152,0,2,-1
2,951,108190643,106,-40,4154,-1,5,-1
2,952,108198089,98,-45,4153,-1,4,2
2,953,108205535,95,-44,4146,-2,3,2
2,954,108212982,95,-44,4146,-2,3,1
2,955,108220428,104,-35,4149,-1,2,-1
2,956,108227874,102,-39,4152,-1,5,0
2,957,108235321,102,-41,4152,-1,5,0
2,958,108242767,102,-41,4152,-1,5,2
2,959,108250213,101,-43,4144,-3,4,-1
2,960,108257659,99,-37,4144,-3,4,0
2,961,108265106,93,-45,4147,-2,2,-1
2,962,108272644,93,-45,4147,-2,5,1
2,963,108280120,98,-41,4146,-2,4,1
2,964,108287567,105,-35,4158,-2,5,-1
2,965,108295013,102,-41,4150,0,3,1
2,966,108302459,102,-41,4150,-1,3,0
2,967,108309906,101,-40,4151,0,4,1
2,968,108317352,100,-44,4148,-2,1,-1
2,969,108324798,100,-46,4149,-2,5,4
2,970,108332244,100,-46,4149,-2,5,2
2,971,108339691,105,-39,4153,-1,3,-1
2,972,108347137,100,-36,4147,-2,3,1
2,973,108354614,96,-43,4146,-1,2,2
2,974,108362060,96,-43,4146,-1,2,0
2,975,108369506,94,-46,4151,-1,3,1
2,976,108376953,99,-38,4145,-2,2,0
2,977,108384399,98,-40,4146,-3,4,-1
2,978,108391845,98,-40,4146,-2,3,1
2,979,108399291,97,-42,4145,-2,3,1
2,980,108406738,99,-42,4147,-1,3,1
2,981,108414184,96,-40,4151,-1,5,-1
2,982,108421630,96,-40,4151,0,3,0
2,983,108429077,101,-40,4149,0,1,0
2,984,108436523,101,-42,4143,-2,5,0
2,985,108443969,101,-43,4144,2,2,3
2,986,108451416,101,-43,4144,0,3,4
2,987,108458862,101,-45,4153,-3,4,-2
2,988,108466308,100,-46,4151,-1,3,1
2,989,108473754,95,-40,4149,-1,5,0
2,990,108481201,95,-40,4149,-2,4,2
2,991,108488647,98,-41,4149,-2,3,0
2,992,108496093,96,-43,4151,-2,4,-1
2,993,108503540,96,-47,4148,1,2,1
2,994,108510986,96,-47,4148,-2,3,0
2,995,108518432,96,-43,4145,0,1,1
2,996,108525878,94,-46,4147,0,3,1
2,997,108533325,94,-40,4155,-2,6,-1
2,998,108540771,94,-40,4155,-3,4,0
2,999,108548217,94,-38,4159,-1,5,0
