event_id,seq,ts_ms,ax,ay,az,gx,gy,gz
1,0,34728,102,-34,4147,-1,6,1
1,1,34735,100,-39,4146,-2,5,0
1,2,34743,106,-36,4151,-2,4,0
1,3,34750,99,-39,4148,-2,5,1
1,4,34758,99,-39,4148,0,4,1
1,5,34765,95,-50,4159,-3,5,1
1,6,34773,101,-48,4149,-3,5,0
1,7,34780,101,-31,4140,-1,4,2
1,8,34788,101,-31,4140,-2,6,1
1,9,34795,94,-34,4160,0,3,0
1,10,34803,93,-41,4146,-1,6,2
1,11,34810,99,-44,4156,-1,3,0
1,12,34818,99,-44,4156,-1,4,0
1,13,34825,99,-44,4152,0,1,1
1,14,34833,104,-44,4152,-2,5,1
1,15,34840,96,-36,4149,-2,3,0
1,16,34848,96,-36,4149,-2,4,0
1,17,34855,103,-39,4148,-4,3,0
1,18,34863,100,-40,4155,-1,4,2
1,19,34870,93,-41,4149,-4,5,-1
1,20,34878,99,-43,4155,-2,2,2
1,21,34885,99,-43,4155,-4,3,3
1,22,34893,98,-47,4146,-2,3,1
1,23,34900,94,-41,4153,0,4,3
1,24,34908,104,-34,4146,-4,4,1
1,25,34915,104,-34,4146,-3,2,1
1,26,34923,93,-36,4155,-3,5,2
1,27,34930,99,-42,4159,0,3,2
1,28,34938,97,-41,4152,-3,5,2
1,29,34945,97,-41,4152,-4,7,-1
1,30,34953,103,-38,4156,-2,4,1
1,31,34960,103,-40,4140,-2,4,0
1,32,34968,105,-43,4157,-2,5,1
1,33,34975,105,-43,4157,-2,7,1
1,34,34983,106,-39,4146,-3,4,0
1,35,34990,96,-37,4154,-2,2,2
1,36,34998,95,-43,4150,0,4,-1
1,37,35005,95,-43,4150,-2,6,4
1,38,35013,93,-45,4149,-1,5,1
1,39,35020,100,-36,4153,-3,7,3
1,40,35027,102,-39,4151,-2,4,0
1,41,35035,102,-39,4151,-2,6,2
1,42,35042,96,-41,4153,-2,2,2
1,43,35050,99,-42,4150,-2,4,5
1,44,35057,96,-41,4150,-3,5,-1
1,45,35065,96,-41,4150,-2,3,2
1,46,35072,105,-44,4149,-4,3,2
1,47,35080,101,-41,4151,-2,4,3
1,48,35087,101,-43,4152,-2,3,3
1,49,35095,101,-43,4152,-3,5,2
1,50,35102,103,-39,4153,-3,5,-2
1,51,35110,97,-37,4152,-2,4,-1
1,52,35117,98,-44,4156,-3,6,1
1,53,35125,98,-44,4156,-1,4,-1
1,54,35132,98,-40,4149,-3,6,0
1,55,35140,96,-41,4151,-4,5,0
1,56,35147,100,-38,4139,-2,6,-1
1,57,35155,100,-38,4139,-5,6,0
1,58,35162,128,-45,4155,-3,4,1
1,59,35170,123,-33,4153,-2,3,1
1,60,35177,95,-29,4138,0,4,-1
1,61,35184,95,-29,4138,-1,7,2
1,62,35192,82,-45,4157,-3,4,-1
1,63,35199,79,-54,4139,-4,4,-2
1,64,35207,90,-46,4146,0,4,1
1,65,35214,90,-46,4146,-1,4,1
1,66,35222,94,-34,4152,-1,2,2
1,67,35229,99,-25,4147,0,5,2
1,68,35237,104,-31,4156,-5,4,-1
1,69,35244,104,-31,4156,-1,7,0
1,70,35252,107,-42,4153,0,4,-1
1,71,35259,104,-46,4152,-3,6,0
1,72,35267,107,-48,4150,-2,5,-1
1,73,35274,107,-48,4150,-3,4,-3
1,74,35281,104,-51,4140,-3,3,0
1,75,35289,93,-38,4154,-3,2,0
1,76,35296,94,-38,4153,-4,3,1
1,77,35304,94,-38,4153,-3,4,2
1,78,35311,99,-29,4147,-4,4,1
1,79,35319,102,-33,4150,-1,3,-1
1,80,35326,99,-31,4149,-1,6,2
1,81,35334,99,-31,4149,-2,3,0
1,82,35341,99,-44,4151,-2,5,2
1,83,35349,102,-48,4153,-3,2,2
1,84,35356,100,-47,4152,-2,6,-1
1,85,35363,100,-47,4152,-2,4,0
1,86,35371,104,-47,4160,-2,6,-1
1,87,35378,107,-43,4152,-1,2,-1
1,88,35386,99,-38,4150,-3,6,0
1,89,35393,99,-38,4150,-1,2,1
1,90,35401,97,-43,4158,-2,4,1
1,91,35408,93,-33,4153,-1,7,2
1,92,35416,94,-39,4153,-3,4,0
1,93,35423,94,-39,4153,-3,7,-1
1,94,35431,93,-38,4150,0,6,-2
1,95,35438,98,-44,4147,-2,6,0
1,96,35445,106,-44,4149,0,4,2
1,97,35453,106,-44,4149,-1,5,3
1,98,35460,105,-39,4151,-3,5,1
1,99,35468,105,-47,4152,-3,6,1
1,100,35475,105,-42,4151,-4,5,-2
1,101,35483,105,-42,4151,-4,4,0
1,102,35490,105,-39,4154,-3,5,2
1,103,35498,97,-40,4147,-1,4,1
1,104,35505,93,-42,4151,-4,3,0
1,105,35513,93,-42,4151,-1,3,-1
1,106,35520,93,-39,4148,-2,6,-1
1,107,35527,97,-39,4145,-2,3,0
1,108,35535,94,-39,4144,-2,3,-1
1,109,35542,94,-39,4144,-1,3,1
1,110,35550,106,-39,4151,-2,4,-1
1,111,35557,105,-41,4146,-2,4,-1
1,112,35565,99,-42,4146,-2,4,3
1,113,35572,99,-42,4146,-2,2,-1
1,114,35580,99,-43,4156,0,6,3
1,115,35587,107,-41,4149,-3,5,-1
1,116,35594,97,-41,4149,0,5,0
1,117,35602,97,-41,4149,-4,7,3
1,118,35609,101,-37,4145,-2,3,1
1,119,35617,95,-39,4152,-4,5,2
1,120,35624,94,-36,4153,-3,5,-1
1,121,35632,94,-36,4153,-1,2,-2
1,122,35639,94,-40,4149,-2,5,1
1,123,35647,101,-36,4149,-4,5,1
1,124,35654,103,-38,4149,-2,4,1
1,125,35661,103,-38,4149,-3,4,1
1,126,35669,104,-43,4154,-2,3,0
1,127,35676,102,-39,4150,-1,2,0
1,128,35684,100,-36,4149,-4,4,1
1,129,35691,100,-36,4149,-3,3,-1
1,130,35699,102,-40,4144,-1,4,-1
1,131,35706,96,-39,4148,-1,3,1
1,132,35714,95,-37,4154,-5,4,1
1,133,35721,95,-37,4154,-5,5,3
1,134,35728,95,-43,4146,-4,6,0
1,135,35736,96,-45,4152,-5,3,1
1,136,35743,98,-45,4149,-2,5,0
1,137,35751,98,-45,4149,-3,5,1
1,138,35758,103,-38,4151,-2,3,2
1,139,35766,103,-37,4150,-2,5,-1
1,140,35773,99,-42,4147,-2,4,2
1,141,35781,99,-42,4147,-3,4,1
1,142,35788,102,-46,4140,-1,5,0
1,143,35795,97,-44,4150,-3,4,1
1,144,35803,97,-43,4155,-1,5,1
1,145,35810,97,-43,4155,0,3,0
1,146,35818,95,-40,4149,0,3,-2
1,147,35825,96,-35,4157,-3,4,-2
1,148,35833,100,-38,4155,-2,6,0
1,149,35840,100,-38,4155,-1,3,2
1,150,35848,100,-44,4155,-1,4,0
1,151,35855,105,-40,4149,0,3,0
1,152,35863,99,-43,4146,-3,5,0
1,153,35870,99,-43,4146,0,4,1
1,154,35878,98,-45,4144,-4,5,0
1,155,35885,100,-41,4149,-4,5,-1
1,156,35892,100,-37,4154,-2,6,2
1,157,35900,100,-37,4154,-2,5,-1
1,158,35907,100,-39,4151,-3,3,1
1,159,35915,96,-41,4154,-1,5,2
1,160,35922,89,-39,4159,-4,5,1
1,161,35930,89,-39,4159,-1,4,-1
1,162,35937,99,-35,4151,-2,4,-1
1,163,35945,98,-35,4153,-2,4,0
1,164,35952,97,-42,4160,-2,2,2
1,165,35959,97,-42,4160,-4,5,-2
1,166,35967,100,-45,4147,-2,4,-1
1,167,35974,101,-42,4149,-4,3,-1
1,168,35982,100,-46,4156,-3,4,0
1,169,35989,100,-46,4156,-1,4,0
1,170,35997,96,-46,4147,-2,5,2
1,171,36004,96,-41,4141,-5,3,0
1,172,36012,99,-40,4150,-3,4,0
1,173,36019,99,-40,4150,-4,5,0
1,174,36027,95,-38,4143,-1,5,0
1,175,36034,99,-37,4151,-2,5,-2
1,176,36042,98,-40,4148,-1,4,-1
1,177,36049,98,-40,4148,-2,5,0
1,178,36057,100,-43,4148,-3,4,2
1,179,36064,100,-37,4142,-3,3,1
1,180,36071,105,-40,4148,-2,6,-2
1,181,36079,105,-40,4148,-3,5,-1
1,182,36086,96,-42,4153,-3,4,-1
1,183,36094,100,-43,4152,-2,4,-1
1,184,36101,100,-41,4151,-1,5,0
1,185,36109,100,-41,4151,-1,3,0
1,186,36116,96,-36,4149,-1,0,-1
1,187,36124,92,-38,4151,-2,3,0
1,188,36131,97,-36,4152,-2,4,2
1,189,36139,97,-36,4152,-2,2,0
1,190,36146,98,-40,4145,-3,4,0
1,191,36154,104,-43,4151,-3,3,-2
1,192,36161,99,-40,4141,-3,3,2
1,193,36169,99,-40,4141,-4,2,1
1,194,36176,101,-40,4146,-2,5,-1
1,195,36183,100,-42,4152,-2,5,2
1,196,36191,102,-36,4153,-2,2,4
1,197,36198,102,-36,4153,-3,3,1
1,198,36206,103,-40,4147,-4,5,-1
1,199,36213,99,-45,4147,-4,6,0
1,200,36221,99,-44,4152,-3,5,-1
1,201,36228,99,-44,4152,-1,6,2
1,202,36236,100,-41,4151,-3,6,-1
1,203,36243,74,-63,4150,-1,4,1
1,204,36251,-459,-107,4171,-3,-3,-96
1,205,36258,-459,-107,4171,-2,-4,-168
1,206,36266,-546,-20,4167,-7,-5,-262
1,207,36273,165,-28,4154,-3,0,-281
1,208,36280,1126,14,4117,2,1,-123
1,209,36288,1126,14,4117,5,8,-21
1,210,36295,369,-12,4151,-1,5,3
1,211,36303,-27,-47,4160,-2,6,1
1,212,36310,107,-38,4152,-1,3,2
1,213,36318,107,-38,4152,-3,6,-1
1,214,36325,106,-40,4157,-1,3,3
1,215,36333,91,-42,4156,-3,2,2
1,216,36340,94,-38,4146,-2,4,0
1,217,36348,94,-38,4146,-3,4,0
1,218,36355,103,-35,4147,-1,4,1
1,219,36363,97,-38,4146,-2,2,1
1,220,36370,101,-46,4155,-2,4,-1
1,221,36377,101,-46,4155,-1,3,1
1,222,36385,96,-42,4148,-1,5,0
1,223,36392,102,-43,4150,-3,3,1
1,224,36400,108,-39,4157,-2,5,-1
1,225,36407,108,-39,4157,-3,5,0
1,226,36415,107,-36,4146,-2,4,2
1,227,36422,107,-39,4143,-1,5,0
1,228,36430,102,-45,4148,0,6,0
1,229,36437,102,-45,4148,0,5,3
1,230,36445,102,-40,4151,-1,7,-2
1,231,36452,99,-42,4143,-2,4,0
1,232,36459,100,-40,4148,-1,2,-1
1,233,36467,100,-40,4148,-4,4,-1
1,234,36474,105,-38,4146,-2,5,-1
1,235,36482,109,-38,4149,-1,3,1
1,236,36489,99,-44,4151,-1,3,0
1,237,36497,99,-44,4151,-5,5,0
1,238,36504,103,-42,4155,0,3,2
1,239,36512,99,-38,4151,-2,4,-1
1,240,36519,97,-42,4142,-1,3,0
1,241,36527,97,-42,4142,-2,4,2
1,242,36534,98,-37,4150,-3,6,-2
1,243,36541,96,-45,4147,-2,5,-1
1,244,36549,94,-41,4149,-2,5,-3
1,245,36556,94,-41,4149,-1,4,0
1,246,36564,96,-40,4149,-1,5,2
1,247,36571,97,-40,4151,-3,4,-1
1,248,36579,101,-38,4153,-2,5,0
1,249,36586,101,-38,4153,-2,5,0
1,250,36594,104,-43,4149,-3,5,1
1,251,36601,95,-44,4152,-1,2,0
1,252,36608,96,-38,4154,-4,6,1
1,253,36616,96,-38,4154,-1,6,-3
1,254,36623,99,-43,4153,-2,4,0
1,255,36631,99,-43,4141,-4,5,0
1,256,36638,102,-42,4150,-5,4,-2
1,257,36646,102,-42,4150,-4,5,-3
1,258,36653,104,-38,4155,-4,4,-5
1,259,36661,115,-36,4138,-7,5,-3
1,260,36668,267,-16,4145,-8,8,18
1,261,36675,267,-16,4145,-6,7,49
1,262,36683,270,-26,4146,-3,3,78
1,263,36690,-4,-47,4148,-6,0,67
1,264,36698,185,-45,4143,-5,8,64
1,265,36705,185,-45,4143,-4,8,79
1,266,36713,92,-27,4153,-7,7,42
1,267,36720,117,236,4143,-13,10,-8
1,268,36728,55,-17,4147,11,8,156
1,269,36735,55,-17,4147,0,5,61
1,270,36743,-214,-370,4169,-3,4,-2
1,271,36750,152,-10,4149,-3,5,9
1,272,36757,165,-10,4150,-5,4,29
1,273,36765,165,-10,4150,-7,5,21
1,274,36772,-2,-77,4153,-3,6,-1
1,275,36780,73,-49,4145,-4,8,-4
1,276,36787,106,-31,4147,-1,6,-3
1,277,36795,106,-31,4147,-1,9,-7
1,278,36802,93,-32,4149,-1,11,-9
1,279,36810,46,-27,4148,-5,11,-19
1,280,36817,-32,-29,4145,2,12,-17
1,281,36824,-32,-29,4145,5,15,-26
1,282,36832,105,-68,4157,-2,14,-31
1,283,36839,59,-71,4159,-4,13,-37
1,284,36847,-62,-44,4144,2,26,-80
1,285,36854,-62,-44,4144,3,32,-82
1,286,36862,181,-23,4158,-1,50,-55
1,287,36869,229,-50,4144,5,71,-44
1,288,36877,90,-33,4162,13,149,-30
1,289,36884,90,-33,4162,14,222,-35
1,290,36891,-4,-50,4236,-9,470,-56
1,291,36899,-209,-101,4292,-5,765,-83
1,292,36906,-212,-179,4165,-3,1048,-83
1,293,36914,-212,-179,4165,2,946,-151
1,294,36921,-13,61,4164,-35,813,-153
1,295,36929,-89,103,4297,-45,876,-138
1,296,36936,-203,-9,4475,-160,1034,-141
1,297,36944,-203,-9,4475,-270,1065,-142
1,298,36951,-158,17,4466,-367,1091,-147
1,299,36959,-345,57,3975,-329,1207,-173
1,300,36966,-533,105,3970,-239,1266,-204
1,301,36973,-533,105,3970,-223,1228,-208
1,302,36981,-423,-85,4158,-228,1380,-242
1,303,36988,-434,-169,4345,-240,1378,-268
1,304,36996,-531,-63,4456,-381,1585,-290
1,305,37003,-531,-63,4456,-390,1554,-290
1,306,37011,-386,7,4882,-461,1359,-229
1,307,37018,-335,-154,5411,-541,1178,-204
1,308,37026,-204,-304,5696,-782,735,-164
1,309,37033,-204,-304,5696,-961,376,-137
1,310,37040,-185,-382,5874,-1358,-417,-125
1,311,37048,-443,-265,5223,-1467,-595,-135
1,312,37055,-571,-129,4467,-1538,-623,-92
1,313,37063,-571,-129,4467,-1556,-535,-80
1,314,37070,-642,-296,4116,-1549,-216,-86
1,315,37078,-481,-454,4077,-1524,-105,-74
1,316,37085,-559,-502,4302,-1545,-82,-107
1,317,37093,-559,-502,4302,-1579,-99,-113
1,318,37100,-671,-454,4351,-1658,-62,-136
1,319,37108,-689,-485,4310,-1680,5,-138
1,320,37115,-647,-592,4337,-1700,121,-166
1,321,37122,-647,-592,4337,-1718,159,-170
1,322,37130,-518,-746,4400,-1774,124,-176
1,323,37137,-460,-918,4404,-1822,81,-181
1,324,37145,-445,-976,4197,-1899,0,-200
1,325,37152,-445,-976,4197,-1902,-31,-212
1,326,37160,-535,-994,3947,-1887,-24,-243
1,327,37167,-629,-961,3680,-1862,59,-240
1,328,37175,-737,-1010,3615,-1824,344,-269
1,329,37182,-737,-1010,3615,-1775,403,-273
1,330,37189,-781,-1184,3722,-1717,617,-306
1,331,37197,-915,-1345,3917,-1728,692,-366
1,332,37204,-873,-1458,4094,-1752,715,-440
1,333,37212,-873,-1458,4094,-1754,700,-470
1,334,37219,-700,-1492,4138,-1778,476,-525
1,335,37227,-560,-1515,4068,-1807,340,-514
1,336,37234,-565,-1567,3755,-1845,146,-549
1,337,37242,-565,-1567,3755,-1839,75,-561
1,338,37249,-636,-1574,3430,-1798,87,-573
1,339,37257,-696,-1649,3174,-1737,163,-576
1,340,37264,-736,-1720,3078,-1633,350,-593
1,341,37271,-736,-1720,3078,-1577,459,-609
1,342,37279,-705,-1701,3162,-1475,533,-623
1,343,37286,-671,-1786,3234,-1432,593,-616
1,344,37294,-644,-2039,3264,-1332,673,-638
1,345,37301,-644,-2039,3264,-1282,687,-653
1,346,37309,-692,-2236,3362,-1295,743,-714
1,347,37316,-784,-2194,3510,-1314,739,-770
1,348,37324,-588,-2093,3585,-1318,684,-754
1,349,37331,-588,-2093,3585,-1311,573,-749
1,350,37339,-327,-1967,3594,-1280,194,-721
1,351,37346,-261,-1946,3365,-1268,27,-680
1,352,37354,-410,-2140,2943,-1219,-74,-614
1,353,37361,-410,-2140,2943,-1174,-17,-606
1,354,37368,-557,-2296,2636,-1039,237,-580
1,355,37376,-482,-2297,2595,-964,365,-566
1,356,37383,-266,-2236,2723,-839,552,-503
1,357,37391,-266,-2236,2723,-782,602,-440
1,358,37398,-348,-2306,2996,-722,517,-412
1,359,37406,-617,-2431,3161,-705,473,-413
1,360,37413,-697,-2563,3151,-670,467,-433
1,361,37421,-697,-2563,3151,-638,472,-442
1,362,37428,-674,-2625,3146,-596,498,-464
1,363,37436,-667,-2613,3179,-583,486,-478
1,364,37443,-607,-2574,3204,-582,432,-481
1,365,37450,-607,-2574,3204,-588,390,-482
1,366,37458,-519,-2565,3177,-608,297,-470
1,367,37465,-661,-2563,3161,-623,207,-493
1,368,37473,-611,-2594,3069,-656,280,-484
1,369,37480,-611,-2594,3069,-644,217,-497
1,370,37488,-391,-2547,3003,-619,112,-482
1,371,37495,-384,-2569,2867,-604,94,-465
1,372,37503,-523,-2669,2764,-567,120,-443
1,373,37510,-523,-2669,2764,-550,168,-445
1,374,37518,-578,-2670,2766,-503,197,-454
1,375,37525,-467,-2575,2784,-491,223,-440
1,376,37532,-483,-2585,2876,-425,143,-398
1,377,37540,-483,-2585,2876,-431,106,-421
1,378,37547,-453,-2664,2779,-399,278,-304
1,379,37555,-99,-2798,2719,-304,114,-300
1,380,37562,-454,-2874,2640,-166,193,-249
1,381,37570,-454,-2874,2640,-172,301,-224
1,382,37577,-700,-3095,2728,-153,442,-279
1,383,37585,-586,-3064,2988,-149,418,-300
1,384,37592,-568,-2916,3211,-214,343,-319
1,385,37600,-568,-2916,3211,-230,262,-317
1,386,37607,-429,-2914,3274,-306,86,-290
1,387,37615,-485,-2914,3230,-337,-41,-311
1,388,37622,-468,-2779,2878,-359,-116,-335
1,389,37630,-468,-2779,2878,-331,-28,-215
1,390,37637,-202,-2902,2649,-273,-75,-240
1,391,37644,-175,-2833,2542,-239,-69,-214
1,392,37652,-371,-2834,2440,-163,100,-127
1,393,37659,-371,-2834,2440,-123,210,-126
1,394,37667,-470,-2839,2505,4,323,-120
1,395,37674,-698,-2881,2796,16,352,-106
1,396,37682,-735,-3111,3017,-103,482,-146
1,397,37689,-735,-3111,3017,-78,395,-179
1,398,37697,-461,-3042,3145,-64,235,-152
1,399,37704,-481,-3041,3232,-136,203,-152
1,400,37712,-528,-3222,3110,-209,29,-159
1,401,37719,-528,-3222,3110,-229,35,-204
1,402,37727,-539,-3165,2980,-232,20,-199
1,403,37734,-465,-3010,2942,-244,20,-200
1,404,37741,-386,-3061,2866,-277,13,-157
1,405,37749,-386,-3061,2866,-294,20,-167
1,406,37756,-333,-3060,2765,-278,75,-129
1,407,37764,-232,-2965,2751,-275,80,-97
1,408,37771,-205,-2962,2738,-267,71,-39
1,409,37779,-205,-2962,2738,-254,67,-6
1,410,37786,-262,-2972,2659,-170,116,10
1,411,37794,-254,-3030,2636,-119,137,111
1,412,37801,-487,-3325,2788,-231,252,99
1,413,37808,-487,-3325,2788,-228,237,87
1,414,37816,-501,-3238,2914,-240,201,81
1,415,37823,-603,-3068,3057,-249,150,81
1,416,37831,-663,-3121,3012,-256,37,55
1,417,37838,-663,-3121,3012,-264,3,37
1,418,37846,-597,-3086,2849,-285,-25,26
1,419,37853,-529,-3057,2695,-294,-3,35
1,420,37861,-474,-3128,2672,-312,39,44
1,421,37868,-474,-3128,2672,-324,37,44
1,422,37875,-396,-3088,2682,-312,57,70
1,423,37883,-326,-2989,2704,-295,48,94
1,424,37890,-394,-3041,2686,-300,29,145
1,425,37898,-394,-3041,2686,-312,38,151
1,426,37905,-455,-3130,2629,-298,61,168
1,427,37913,-487,-3142,2608,-287,76,177
1,428,37920,-569,-3173,2623,-251,127,187
1,429,37928,-569,-3173,2623,-233,122,178
1,430,37935,-684,-3167,2720,-241,71,150
1,431,37943,-822,-3153,2733,-249,42,129
1,432,37950,-829,-3269,2667,-264,78,94
1,433,37958,-829,-3269,2667,-266,99,76
1,434,37965,-658,-3359,2691,-299,88,62
1,435,37972,-542,-3269,2800,-341,45,65
1,436,37980,-419,-3136,2754,-388,-91,58
1,437,37987,-419,-3136,2754,-374,-110,91
1,438,37995,-439,-3041,2583,-336,-128,118
1,439,38002,-462,-3027,2377,-292,-99,138
1,440,38010,-518,-3112,2274,-243,29,177
1,441,38017,-518,-3112,2274,-219,90,187
1,442,38025,-516,-3178,2314,-170,175,205
1,443,38032,-573,-3206,2467,-162,211,216
1,444,38039,-648,-3236,2660,-171,172,222
1,445,38047,-648,-3236,2660,-198,123,206
1,446,38054,-692,-3214,2743,-222,1,194
1,447,38062,-689,-3170,2641,-232,-37,189
1,448,38069,-645,-3182,2456,-192,-69,190
1,449,38077,-645,-3182,2456,-184,-45,195
1,450,38084,-713,-3246,2346,-153,23,184
1,451,38092,-791,-3292,2345,-136,75,169
1,452,38099,-816,-3232,2499,-125,128,146
1,453,38107,-816,-3232,2499,-127,103,133
1,454,38114,-777,-3154,2621,-140,50,131
1,455,38122,-644,-3195,2562,-130,28,139
1,456,38129,-665,-3256,2515,-141,-17,138
1,457,38136,-665,-3256,2515,-144,-33,131
1,458,38144,-699,-3227,2452,-130,-26,138
1,459,38151,-688,-3202,2413,-119,-12,142
1,460,38159,-682,-3238,2397,-93,11,157
1,461,38166,-682,-3238,2397,-86,30,160
1,462,38174,-717,-3293,2425,-84,51,153
1,463,38181,-756,-3261,2516,-92,41,149
1,464,38189,-770,-3247,2545,-96,30,149
1,465,38196,-770,-3247,2545,-93,29,142
1,466,38204,-747,-3276,2554,-95,7,142
1,467,38211,-731,-3284,2539,-106,-4,139
1,468,38218,-724,-3299,2492,-116,-9,143
1,469,38226,-724,-3299,2492,-122,-17,139
1,470,38233,-766,-3271,2495,-127,-35,137
1,471,38241,-757,-3231,2476,-118,-34,144
1,472,38248,-774,-3288,2444,-109,-29,144
1,473,38256,-774,-3288,2444,-109,-24,138
1,474,38263,-899,-3346,2472,-126,-13,106
1,475,38271,-951,-3376,2539,-138,-2,92
1,476,38278,-856,-3361,2603,-158,-21,66
1,477,38285,-856,-3361,2603,-177,-62,56
1,478,38293,-724,-3316,2613,-218,-142,63
1,479,38300,-679,-3249,2513,-233,-174,69
1,480,38308,-660,-3167,2348,-226,-202,82
1,481,38315,-660,-3167,2348,-188,-180,91
1,482,38323,-678,-3114,2203,-136,-92,133
1,483,38330,-665,-3171,2152,-110,-44,148
1,484,38338,-710,-3276,2191,-38,68,175
1,485,38345,-710,-3276,2191,-23,109,175
1,486,38352,-867,-3363,2415,-41,123,150
1,487,38360,-884,-3372,2646,-66,86,138
1,488,38367,-817,-3337,2719,-121,-40,121
1,489,38375,-817,-3337,2719,-140,-109,118
1,490,38382,-812,-3329,2659,-200,-203,99
1,491,38390,-745,-3237,2470,-187,-243,97
1,492,38397,-702,-3170,2249,-165,-201,126
1,493,38405,-702,-3170,2249,-138,-171,140
1,494,38412,-710,-3188,2111,-78,-35,159
1,495,38420,-722,-3208,2119,-43,34,175
1,496,38427,-704,-3253,2240,14,138,209
1,497,38434,-704,-3253,2240,32,166,219
1,498,38442,-729,-3332,2422,28,157,229
1,499,38449,-756,-3348,2582,6,132,231
1,500,38457,-750,-3367,2632,-36,68,241
1,501,38464,-750,-3367,2632,-52,28,246
1,502,38472,-780,-3395,2643,-110,-65,239
1,503,38479,-898,-3385,2611,-141,-106,231
1,504,38487,-950,-3364,2525,-187,-146,213
1,505,38494,-950,-3364,2525,-198,-142,211
1,506,38502,-884,-3351,2446,-205,-143,208
1,507,38509,-792,-3319,2369,-199,-137,218
1,508,38517,-729,-3280,2292,-178,-102,250
1,509,38524,-729,-3280,2292,-163,-81,263
1,510,38532,-809,-3298,2291,-145,-49,271
1,511,38539,-884,-3321,2324,-140,7,286
1,512,38546,-862,-3357,2378,-135,15,291
1,513,38554,-941,-3407,2425,-134,15,292
1,514,38561,-941,-3407,2425,-140,18,280
1,515,38569,-976,-3378,2475,-156,-8,267
1,516,38576,-978,-3328,2486,-165,-29,266
1,517,38584,-1011,-3330,2452,-190,-55,255
1,518,38591,-1011,-3330,2452,-198,-56,244
1,519,38599,-1007,-3324,2394,-204,-49,235
1,520,38606,-965,-3268,2356,-203,-45,229
1,521,38614,-945,-3202,2320,-202,-48,231
1,522,38621,-945,-3202,2320,-194,-45,233
1,523,38629,-924,-3186,2260,-171,-30,245
1,524,38636,-915,-3235,2217,-163,-17,250
1,525,38643,-980,-3245,2224,-142,7,242
1,526,38651,-980,-3245,2224,-141,20,236
1,527,38658,-1062,-3230,2266,-130,48,232
1,528,38666,-1076,-3289,2289,-123,61,230
1,529,38673,-1082,-3372,2322,-108,71,216
1,530,38681,-1082,-3372,2322,-115,72,204
1,531,38688,-1102,-3363,2378,-129,39,182
1,532,38696,-1119,-3311,2408,-146,18,173
1,533,38703,-1126,-3307,2373,-172,-14,158
1,534,38711,-1126,-3307,2373,-179,-28,148
1,535,38718,-1097,-3347,2290,-168,-30,137
1,536,38725,-1108,-3381,2230,-163,-14,125
1,537,38733,-1113,-3321,2226,-158,11,112
1,538,38740,-1113,-3321,2226,-155,17,113
1,539,38748,-1071,-3281,2235,-146,21,113
1,540,38755,-1037,-3313,2193,-136,32,116
1,541,38763,-993,-3361,2183,-112,54,124
1,542,38770,-993,-3361,2183,-105,50,124
1,543,38778,-1005,-3341,2207,-106,36,126
1,544,38785,-1052,-3324,2220,-106,32,128
1,545,38793,-1114,-3359,2227,-109,37,125
1,546,38800,-1114,-3359,2227,-108,38,123
1,547,38807,-1145,-3388,2231,-95,41,106
1,548,38815,-1137,-3373,2237,-89,40,101
1,549,38822,-1179,-3378,2250,-90,31,89
1,550,38830,-1179,-3378,2250,-98,28,74
1,551,38837,-1225,-3394,2257,-112,28,53
1,552,38845,-1151,-3404,2236,-117,24,48
1,553,38852,-1073,-3430,2198,-104,16,45
1,554,38860,-1073,-3430,2198,-103,13,48
1,555,38867,-1014,-3413,2174,-104,2,57
1,556,38875,-1011,-3421,2138,-104,8,72
1,557,38882,-1067,-3408,2146,-102,3,75
1,558,38890,-1067,-3408,2146,-111,-3,78
1,559,38897,-1029,-3344,2134,-114,-22,99
1,560,38905,-937,-3339,2072,-98,-28,121
1,561,38912,-961,-3431,2032,-77,-2,166
1,562,38919,-961,-3431,2032,-75,14,174
1,563,38927,-979,-3489,2041,-57,28,202
1,564,38934,-946,-3473,2062,-59,30,219
1,565,38942,-843,-3439,2070,-59,-24,279
1,566,38949,-843,-3439,2070,-71,-57,316
1,567,38957,-733,-3481,1988,-62,-142,406
1,568,38964,-606,-3544,1852,-42,-186,437
1,569,38972,-395,-3479,1652,110,-319,527
1,570,38979,-395,-3479,1652,187,-325,608
1,571,38986,-201,-3402,1423,326,-347,823
1,572,38994,-33,-3448,1248,377,-356,929
1,573,39001,232,-3446,1109,476,-359,1196
1,574,39009,232,-3446,1109,555,-376,1349
1,575,39016,378,-3488,1032,778,-468,1626
1,576,39024,159,-3402,1085,884,-549,1746
1,577,39031,-51,-3237,1070,1075,-679,2001
1,578,39039,-51,-3237,1070,1180,-771,2117
1,579,39046,-396,-3106,1024,1401,-925,2192
1,580,39054,-634,-2759,984,1508,-1024,2263
1,581,39061,-1053,-2494,905,1757,-1120,2363
1,582,39069,-1053,-2494,905,1901,-1084,2385
1,583,39076,-1848,-2410,983,2186,-879,2329
1,584,39083,-2212,-2185,1066,2377,-736,2254
1,585,39091,-2026,-2099,1348,2684,-540,2177
1,586,39098,-2026,-2099,1348,2721,-472,2129
1,587,39106,-2131,-1784,1816,2757,-885,1811
1,588,39113,-2141,-1588,1961,2832,-1291,1668
1,589,39121,-1911,-996,1721,2845,-1366,1338
1,590,39128,-1911,-996,1721,3027,-1673,1230
1,591,39136,-1299,-319,1294,3364,-1598,1249
1,592,39143,-1443,-190,1194,3510,-1541,1253
1,593,39150,-2376,-463,1610,3758,-1342,1085
1,594,39158,-2376,-463,1610,3812,-1293,927
1,595,39165,-3108,-703,2234,3944,-1054,633
1,596,39173,-2022,-1108,7008,3305,-1389,473
1,597,39180,-943,-2350,9907,-6555,-18773,700
1,598,39188,-943,-2350,9907,-4827,-13067,-811
1,599,39195,-5668,-3443,2533,-4105,-12584,-2132
1,600,39203,-2660,340,5877,-2323,-11677,-1812
1,601,39210,1786,963,2966,-552,-3371,137
1,602,39218,1786,963,2966,445,-3591,255
1,603,39225,-2531,-2532,3020,564,-4044,-839
1,604,39233,-784,-2141,1976,343,-4031,-826
1,605,39240,704,-1796,388,112,-1023,-583
1,606,39248,704,-1796,388,161,-77,-469
1,607,39255,1234,-2337,2979,281,235,-406
1,608,39263,940,-2699,4126,328,220,-437
1,609,39270,671,-2451,3665,335,539,-513
1,610,39277,671,-2451,3665,288,698,-516
1,611,39285,843,-1998,3573,242,904,-431
1,612,39292,864,-1869,3481,231,954,-383
1,613,39300,840,-1776,3321,279,1038,-208
1,614,39307,840,-1776,3321,293,1088,-166
1,615,39315,676,-1896,3568,318,1009,-144
1,616,39322,524,-1914,3577,335,1015,-138
1,617,39330,533,-1900,3622,402,1072,-112
1,618,39337,533,-1900,3622,400,931,-86
1,619,39345,573,-2002,4236,321,447,-70
1,620,39352,583,-2022,4345,283,274,-66
1,621,39359,479,-2031,4244,212,-39,-32
1,622,39367,479,-2031,4244,145,-48,-59
1,623,39374,183,-1989,3681,124,153,-80
1,624,39382,321,-2098,3472,55,318,-141
1,625,39389,606,-1937,3530,85,269,-95
1,626,39397,606,-1937,3530,134,203,-56
1,627,39404,343,-1946,3318,227,446,-73
1,628,39412,424,-1849,3395,242,425,-17
1,629,39419,178,-1817,3308,301,734,-49
1,630,39426,178,-1817,3308,307,843,-50
1,631,39434,108,-1757,3490,307,1052,-103
1,632,39441,154,-1833,3836,293,1078,-129
1,633,39449,291,-1805,4125,232,906,-141
1,634,39456,291,-1805,4125,226,756,-130
1,635,39464,185,-1704,4063,235,637,-106
1,636,39471,131,-1748,3874,226,595,-83
1,637,39479,146,-1824,3787,203,514,-105
1,638,39486,146,-1824,3787,190,477,-88
1,639,39493,168,-1894,3796,140,425,-59
1,640,39501,244,-1926,3783,140,377,-73
1,641,39508,191,-1901,3745,168,354,-58
1,642,39516,191,-1901,3745,165,377,-25
1,643,39523,148,-1890,3608,151,504,-12
1,644,39531,155,-1844,3599,158,592,4
1,645,39538,181,-1726,3690,201,759,69
1,646,39546,181,-1726,3690,212,804,93
1,647,39553,79,-1665,3840,245,872,135
1,648,39560,-102,-1723,3805,255,955,148
1,649,39568,-82,-1749,3918,258,976,140
1,650,39575,-82,-1749,3918,250,925,135
1,651,39583,-150,-1819,3984,216,836,137
1,652,39590,-209,-1897,3789,199,786,130
1,653,39598,-204,-1909,3705,168,700,77
1,654,39605,-204,-1909,3705,165,648,67
1,655,39613,-178,-1794,3729,153,512,81
1,656,39620,-215,-1776,3747,145,463,89
1,657,39627,-237,-1779,3737,152,415,85
1,658,39635,-237,-1779,3737,150,402,85
1,659,39642,-247,-1735,3816,138,362,88
1,660,39650,-285,-1718,3843,135,350,90
1,661,39657,-335,-1700,3791,128,354,82
1,662,39665,-335,-1700,3791,133,375,81
1,663,39672,-324,-1659,3780,135,382,86
1,664,39680,-322,-1647,3845,130,375,88
1,665,39687,-340,-1659,3857,136,339,94
1,666,39695,-340,-1659,3857,134,326,101
1,667,39702,-362,-1704,3887,113,276,100
1,668,39709,-431,-1764,3926,108,243,89
1,669,39717,-484,-1835,3951,78,176,68
1,670,39724,-484,-1835,3951,58,120,48
1,671,39732,-471,-1861,3901,21,34,19
1,672,39739,-429,-1783,3795,16,-1,2
1,673,39747,-411,-1686,3794,15,-55,-4
1,674,39754,-411,-1686,3794,20,-55,8
1,675,39762,-407,-1713,3748,20,-20,1
1,676,39769,-362,-1662,3748,17,-7,14
1,677,39776,-388,-1644,3732,28,55,1
1,678,39784,-388,-1644,3732,39,85,6
1,679,39791,-357,-1643,3767,45,127,17
1,680,39799,-352,-1662,3798,47,143,25
1,681,39806,-372,-1675,3853,42,163,28
1,682,39814,-372,-1675,3853,40,160,34
1,683,39821,-369,-1678,3871,36,121,41
1,684,39829,-404,-1698,3833,32,104,41
1,685,39836,-415,-1707,3812,15,53,34
1,686,39844,-415,-1707,3812,10,31,32
1,687,39851,-390,-1678,3780,9,2,31
1,688,39859,-392,-1656,3770,11,3,30
1,689,39866,-367,-1652,3814,10,-1,43
1,690,39873,-367,-1652,3814,8,-10,42
1,691,39881,-418,-1655,3808,9,22,30
1,692,39888,-471,-1637,3796,11,39,32
1,693,39896,-450,-1666,3838,1,51,25
1,694,39903,-450,-1666,3838,-3,39,22
1,695,39911,-445,-1685,3831,-8,29,8
1,696,39918,-430,-1659,3812,-8,10,10
1,697,39926,-414,-1662,3791,-13,-15,14
1,698,39933,-414,-1662,3791,-11,-19,14
1,699,39941,-404,-1674,3767,-6,-12,11
1,700,39948,-399,-1664,3755,0,-4,12
1,701,39956,-405,-1666,3747,10,25,20
1,702,39963,-405,-1666,3747,15,46,18
1,703,39970,-357,-1637,3821,2,25,43
1,704,39978,-447,-1692,3880,-7,41,29
1,705,39985,-446,-1653,3850,-16,46,11
1,706,39993,-446,-1653,3850,-14,42,11
1,707,40000,-407,-1624,3771,-2,54,11
1,708,40008,-431,-1643,3724,2,69,14
1,709,40015,-429,-1642,3744,14,79,27
1,710,40023,-429,-1642,3744,19,84,21
1,711,40030,-462,-1704,3776,26,64,12
1,712,40038,-415,-1704,3805,24,38,16
1,713,40045,-424,-1733,3811,13,2,14
1,714,40053,-424,-1733,3811,18,-16,8
1,715,40060,-392,-1676,3834,24,-81,24
1,716,40067,-444,-1687,3782,18,-89,29
1,717,40075,-457,-1689,3773,3,-59,17
1,718,40082,-457,-1689,3773,0,-67,12
1,719,40090,-410,-1627,3852,-2,-60,18
1,720,40097,-423,-1622,3838,-2,-48,18
1,721,40105,-431,-1669,3787,3,15,23
1,722,40112,-431,-1669,3787,1,48,21
1,723,40120,-411,-1683,3840,-3,59,27
1,724,40127,-429,-1678,3848,-3,55,26
1,725,40135,-511,-1671,3817,-3,31,22
1,726,40142,-511,-1671,3817,-3,-7,14
1,727,40150,-591,-1693,3805,5,-97,5
1,728,40157,-558,-1747,3759,11,-130,-1
1,729,40164,-499,-1673,3764,4,-234,-33
1,730,40172,-499,-1673,3764,-11,-263,-35
1,731,40179,-402,-1593,3758,-29,-241,-46
1,732,40187,-256,-1570,3781,-26,-210,-40
1,733,40194,-235,-1622,3796,-1,-131,-19
1,734,40202,-235,-1622,3796,5,-90,-3
1,735,40209,-325,-1690,3791,7,-30,7
1,736,40217,-353,-1725,3827,7,-28,15
1,737,40224,-378,-1716,3863,-5,-44,19
1,738,40232,-378,-1716,3863,-13,-66,31
1,739,40239,-370,-1719,3886,-21,-81,37
1,740,40247,-415,-1714,3813,-17,-71,35
1,741,40254,-443,-1695,3749,-13,-66,43
1,742,40262,-443,-1695,3749,-13,-53,38
1,743,40269,-400,-1671,3774,-18,-55,32
1,744,40276,-379,-1623,3791,-20,-45,25
1,745,40284,-364,-1568,3809,-14,-41,15
1,746,40291,-364,-1568,3809,-10,-41,16
1,747,40299,-363,-1587,3818,-10,-30,10
1,748,40306,-390,-1613,3816,-8,-26,5
1,749,40314,-387,-1644,3806,-1,-5,8
1,750,40321,-387,-1644,3806,0,7,8
1,751,40329,-376,-1649,3784,-4,22,0
1,752,40336,-355,-1652,3826,-9,19,5
1,753,40344,-327,-1682,3866,-13,-11,8
1,754,40351,-327,-1682,3866,-9,-22,10
1,755,40358,-360,-1668,3819,-16,-51,12
1,756,40366,-385,-1664,3783,-20,-75,7
1,757,40373,-400,-1668,3775,-17,-114,4
1,758,40381,-400,-1668,3775,-11,-123,4
1,759,40388,-392,-1707,3771,0,-102,6
1,760,40396,-368,-1699,3777,-2,-88,1
1,761,40403,-349,-1655,3815,-7,-66,2
1,762,40411,-349,-1655,3815,-6,-50,1
1,763,40418,-329,-1646,3848,-9,-45,4
1,764,40425,-331,-1659,3842,-12,-48,3
1,765,40433,-346,-1643,3787,-12,-15,7
1,766,40440,-346,-1643,3787,-7,9,6
1,767,40448,-350,-1642,3782,-8,46,10
1,768,40455,-336,-1679,3838,-12,54,13
1,769,40463,-363,-1682,3839,-9,65,11
1,770,40470,-363,-1682,3839,-2,70,10
1,771,40478,-393,-1667,3790,10,69,6
1,772,40485,-396,-1681,3764,10,65,10
1,773,40493,-405,-1696,3742,10,65,12
1,774,40500,-405,-1696,3742,12,58,5
1,775,40507,-345,-1672,3769,17,48,2
1,776,40515,-331,-1653,3793,18,45,2
1,777,40522,-337,-1656,3851,3,29,5
1,778,40530,-337,-1656,3851,0,23,4
1,779,40537,-345,-1672,3845,2,40,5
1,780,40545,-362,-1678,3812,3,47,8
1,781,40552,-384,-1670,3796,-2,58,2
1,782,40560,-384,-1670,3796,-1,59,-2
1,783,40567,-401,-1641,3793,3,59,-3
1,784,40574,-402,-1643,3797,2,67,-5
1,785,40582,-373,-1646,3813,-2,74,-6
1,786,40589,-373,-1646,3813,-1,79,-4
1,787,40597,-362,-1668,3812,4,82,-2
1,788,40604,-351,-1667,3804,1,73,1
1,789,40612,-363,-1663,3784,-2,55,4
1,790,40619,-363,-1663,3784,-6,41,6
1,791,40627,-368,-1657,3784,-10,8,5
1,792,40634,-362,-1664,3819,-10,-15,6
1,793,40641,-367,-1681,3819,-10,-36,6
1,794,40649,-367,-1681,3819,-9,-26,8
1,795,40656,-357,-1684,3832,-14,-6,9
1,796,40664,-359,-1673,3822,-12,11,12
1,797,40671,-364,-1669,3786,-11,55,17
1,798,40679,-364,-1669,3786,-7,80,18
1,799,40686,-380,-1657,3774,-5,106,23
1,800,40694,-383,-1656,3786,-6,122,25
1,801,40701,-394,-1663,3808,5,126,31
1,802,40708,-394,-1663,3808,5,106,30
1,803,40716,-393,-1669,3793,3,84,27
1,804,40723,-375,-1674,3800,3,69,27
1,805,40731,-381,-1667,3843,0,20,31
1,806,40738,-381,-1667,3843,-2,-9,31
1,807,40746,-390,-1661,3841,-10,-70,36
1,808,40753,-405,-1673,3810,-11,-89,36
1,809,40761,-440,-1676,3788,-19,-109,28
1,810,40768,-440,-1676,3788,-21,-121,26
1,811,40776,-418,-1676,3783,-14,-91,24
1,812,40783,-414,-1689,3785,-13,-56,21
1,813,40790,-407,-1647,3793,-12,-9,14
1,814,40798,-407,-1647,3793,-8,15,12
1,815,40805,-406,-1642,3770,-4,52,13
1,816,40813,-423,-1685,3786,0,57,10
1,817,40820,-422,-1668,3779,11,86,5
1,818,40828,-422,-1668,3779,18,107,8
1,819,40835,-403,-1671,3800,13,117,10
1,820,40843,-383,-1661,3843,0,102,8
1,821,40850,-373,-1655,3841,-4,56,7
1,822,40858,-373,-1655,3841,-4,29,8
1,823,40865,-402,-1666,3795,-4,-33,8
1,824,40872,-419,-1692,3777,-3,-61,10
1,825,40880,-430,-1698,3806,-11,-56,12
1,826,40887,-430,-1698,3806,-16,-52,11
1,827,40895,-397,-1657,3842,-12,-47,8
1,828,40902,-403,-1622,3789,-11,-35,7
1,829,40910,-439,-1631,3735,-4,10,4
1,830,40917,-439,-1631,3735,-1,41,4
1,831,40925,-421,-1660,3738,18,134,9
1,832,40932,-403,-1677,3768,24,184,12
1,833,40939,-407,-1664,3804,36,268,18
1,834,40947,-407,-1664,3804,34,296,17
1,835,40954,-412,-1668,3802,36,327,15
1,836,40962,-427,-1656,3773,36,331,16
1,837,40969,-420,-1663,3762,40,329,18
1,838,40977,-420,-1663,3762,43,316,19
1,839,40984,-421,-1670,3797,35,268,30
1,840,40992,-463,-1670,3847,30,228,25
1,841,40999,-497,-1648,3867,6,117,16
1,842,41007,-497,-1648,3867,1,75,10
1,843,41014,-529,-1635,3819,-12,11,8
1,844,41022,-510,-1636,3775,-13,-14,5
1,845,41029,-486,-1633,3771,-10,-25,-2
1,846,41036,-486,-1633,3771,-3,-26,5
1,847,41044,-469,-1652,3812,-2,-25,5
1,848,41051,-470,-1677,3810,-3,-20,9
1,849,41059,-436,-1675,3821,-3,-12,18
1,850,41066,-436,-1675,3821,-4,-30,30
1,851,41074,-501,-1689,3791,9,25,11
1,852,41081,-529,-1661,3749,16,41,15
1,853,41089,-519,-1668,3748,12,63,15
1,854,41096,-519,-1668,3748,9,76,9
1,855,41104,-522,-1635,3792,10,79,1
1,856,41111,-503,-1603,3825,9,74,8
1,857,41119,-534,-1630,3780,6,76,-6
1,858,41126,-534,-1630,3780,6,68,-17
1,859,41134,-491,-1584,3795,4,34,-15
1,860,41141,-495,-1605,3794,8,23,-18
1,861,41148,-512,-1647,3801,0,-17,-21
1,862,41156,-512,-1647,3801,-4,-38,-25
1,863,41163,-495,-1658,3801,-3,-79,-11
1,864,41171,-530,-1716,3806,-2,-75,-17
1,865,41178,-513,-1717,3781,0,-48,-22
1,866,41186,-513,-1717,3781,1,-30,-16
1,867,41193,-478,-1681,3818,6,3,-11
1,868,41201,-465,-1670,3834,13,24,-11
1,869,41208,-497,-1673,3776,24,70,3
1,870,41216,-497,-1673,3776,22,95,14
1,871,41223,-517,-1708,3740,12,140,15
1,872,41230,-493,-1649,3784,14,142,5
1,873,41238,-502,-1590,3803,21,123,6
1,874,32285,102,-36,4150,-1,1,2
1,875,32292,102,-36,4150,-2,3,1
1,876,32300,99,-37,4155,-2,6,0
1,877,32307,100,-36,4153,-3,7,-1
1,878,32315,99,-43,4149,-3,5,1
1,879,32322,99,-43,4149,-6,3,-1
1,880,32330,96,-40,4152,0,4,-1
1,881,32337,105,-37,4154,-1,5,-1
1,882,32345,108,-37,4145,-4,6,2
1,883,32352,108,-37,4145,-2,3,-1
1,884,32360,101,-37,4151,-3,5,0
1,885,32368,102,-36,4143,-2,3,-1
1,886,32375,103,-32,4153,-3,4,3
1,887,32383,103,-32,4153,-2,5,1
1,888,32390,101,-41,4154,0,5,1
1,889,32397,100,-43,4149,-1,4,1
1,890,32405,107,-35,4151,-2,5,1
1,891,32413,107,-35,4151,-2,6,2
1,892,32420,110,-34,4150,-2,4,1
1,893,32428,96,-38,4148,-3,2,3
1,894,32435,101,-43,4153,-3,4,1
1,895,32442,101,-43,4153,-2,5,1
1,896,32450,103,-40,4153,-3,1,0
1,897,32457,102,-38,4148,-2,2,1
1,898,32465,100,-44,4155,0,3,1
1,899,32472,100,-44,4155,-3,5,1
1,900,32480,99,-41,4154,-1,4,0
1,901,32487,100,-33,4152,-3,4,1
1,902,32495,100,-28,4151,-2,3,0
1,903,32502,100,-28,4151,-2,3,-1
1,904,32509,102,-37,4151,-2,3,0
1,905,32517,103,-37,4152,-3,4,-1
1,906,32524,97,-44,4154,-1,3,0
1,907,32532,97,-44,4154,-2,3,1
1,908,32539,102,-44,4149,-3,4,-1
1,909,32547,97,-39,4146,-3,4,0
1,910,32554,107,-36,4149,-2,4,0
1,911,32562,107,-36,4149,-2,7,-2
1,912,32569,105,-35,4144,-3,3,1
1,913,32577,104,-33,4146,-3,3,2
1,914,32584,103,-38,4144,-2,4,2
1,915,32591,103,-38,4144,-2,4,2
1,916,32599,106,-38,4154,-1,4,2
1,917,32606,103,-39,4154,-3,4,0
1,918,32614,107,-42,4148,-3,5,-1
1,919,32621,107,-42,4148,-1,5,1
1,920,32629,104,-43,4152,0,5,1
1,921,32636,97,-44,4149,-2,8,2
1,922,32644,105,-43,4153,-2,4,1
1,923,32651,105,-43,4153,-1,3,1
1,924,32658,107,-41,4155,0,5,0
1,925,32666,99,-42,4154,-1,6,-1
1,926,32673,97,-38,4152,-3,2,2
1,927,32681,97,-38,4152,-3,5,-1
1,928,32688,105,-39,4150,-1,4,0
1,929,32696,100,-41,4148,-3,3,2
1,930,32703,100,-35,4151,-2,5,1
1,931,32711,100,-35,4151,-3,5,1
1,932,32718,98,-37,4156,-3,4,0
1,933,32726,95,-38,4152,-4,5,-2
1,934,32733,101,-47,4152,-2,5,1
1,935,32740,101,-47,4152,-3,6,2
1,936,32748,96,-44,4155,-4,6,-1
1,937,32755,96,-39,4156,-2,4,2
1,938,32763,95,-39,4155,-2,4,-2
1,939,32771,95,-39,4155,1,7,-2
1,940,32778,109,-42,4149,-5,6,1
1,941,32786,99,-39,4150,-3,3,2
1,942,32793,101,-42,4157,-3,3,0
1,943,32801,101,-42,4157,-4,3,1
1,944,32808,104,-43,4144,-3,5,0
1,945,32816,105,-44,4150,-4,7,-2
1,946,32823,100,-39,4156,-1,4,2
1,947,32830,100,-39,4156,-3,4,1
1,948,32838,104,-35,4147,-3,3,0
1,949,32845,101,-38,4149,-4,3,1
1,950,32853,97,-40,4156,-3,4,1
1,951,32861,97,-40,4156,-1,4,0
1,952,32868,107,-42,4149,-4,7,1
1,953,32876,104,-39,4152,-2,5,0
1,954,32883,103,-43,4152,-3,5,-2
1,955,32891,103,-43,4152,-2,6,1
1,956,32898,107,-41,4152,-5,3,0
1,957,32906,102,-37,4153,-4,5,2
1,958,32913,92,-42,4145,-3,6,1
1,959,32920,93,-41,4157,-2,7,2
1,960,32928,93,-41,4157,-1,3,3
1,961,32935,105,-39,4148,-1,5,-1
1,962,32943,100,-37,4150,-5,6,-2
1,963,32951,100,-39,4152,-3,4,2
1,964,32958,100,-39,4152,-2,7,1
1,965,32966,99,-35,4154,-2,9,2
1,966,32973,101,-39,4148,-1,3,0
1,967,32981,102,-42,4147,-1,5,2
1,968,32988,102,-42,4147,-1,5,0
1,969,32995,100,-36,4146,-4,2,-1
1,970,33003,100,-41,4154,-3,5,0
1,971,33010,94,-43,4148,-2,3,0
1,972,33018,94,-43,4148,-3,4,0
1,973,33025,101,-37,4152,-2,2,3
1,974,33033,100,-37,4156,-2,5,4
1,975,33040,98,-39,4155,-1,5,0
1,976,33048,98,-39,4155,-2,4,0
1,977,33055,102,-35,4153,-1,5,1
1,978,33063,100,-34,4151,-2,3,1
1,979,33070,100,-41,4145,-3,5,1
1,980,33078,100,-41,4145,-1,3,1
1,981,33086,96,-42,4148,-3,4,-1
1,982,33093,106,-41,4150,-2,5,2
1,983,33101,101,-36,4150,-3,5,2
1,984,33108,101,-36,4150,-3,5,1
1,985,33116,95,-38,4151,-2,8,0
1,986,33123,95,-41,4148,-4,6,0
1,987,33131,97,-35,4147,-1,4,1
1,988,33138,97,-35,4147,-1,4,0
1,989,33145,96,-39,4143,-2,5,1
1,990,33153,98,-36,4145,-3,6,0
1,991,33160,100,-35,4159,-2,4,0
1,992,33168,100,-35,4159,-3,6,0
1,993,33176,103,-43,4164,-1,3,1
1,994,33183,98,-36,4147,-1,3,2
1,995,33191,100,-39,4152,-3,5,0
1,996,33198,100,-39,4152,-2,4,2
1,997,33206,106,-43,4145,-1,2,-1
1,998,33213,93,-44,4150,-2,5,0
1,999,33220,99,-45,4150,-5,4,0
