event_id,seq,ts_ms,ax,ay,az,gx,gy,gz
1,0,28402221,100,-46,4149,-2,3,0
1,1,28409667,104,-41,4156,0,5,0
1,2,28417114,104,-41,4156,1,6,2
1,3,28424560,101,-42,4152,-4,5,2
1,4,28432006,99,-39,4151,-3,7,-1
1,5,28439453,95,-40,4148,-4,5,3
1,6,28446899,95,-40,4148,-1,5,0
1,7,28454345,95,-45,4146,-4,4,0
1,8,28461791,102,-42,4149,-2,3,0
1,9,28469238,100,-37,4146,-2,4,1
1,10,28476684,100,-37,4146,-2,5,0
1,11,28484130,100,-40,4145,0,3,2
1,12,28491577,106,-39,4155,-1,4,2
1,13,28499023,104,-44,4152,-3,5,0
1,14,28506469,104,-44,4152,-3,4,-1
1,15,28513916,102,-44,4152,-3,5,1
1,16,28521362,99,-40,4144,-2,2,3
1,17,28528808,95,-42,4152,-3,6,-2
1,18,28536254,95,-42,4152,1,4,1
1,19,28543701,96,-40,4149,-2,4,-2
1,20,28551269,95,-40,4144,-3,6,-1
1,21,28558746,102,-38,4151,-5,2,-1
1,22,28566192,102,-38,4151,-4,2,0
1,23,28573638,98,-43,4156,-3,4,-2
1,24,28581085,101,-42,4155,-4,4,0
1,25,28588531,105,-47,4141,0,5,-2
1,26,28596069,105,-47,4141,-2,6,-3
1,27,28603515,96,-47,4143,-2,4,3
1,28,28610961,100,-40,4150,-1,4,0
1,29,28618408,99,-46,4148,-3,6,1
1,30,28625854,99,-46,4148,-3,4,1
1,31,28633300,96,-43,4151,-3,4,-1
1,32,28641052,91,-39,4151,-3,5,-3
1,33,28648498,98,-44,4152,0,5,0
1,34,28655944,98,-44,4152,-2,5,1
1,35,28663391,96,-48,4145,-2,1,1
1,36,28670837,99,-34,4147,-3,3,0
1,37,28678283,98,-24,4150,-2,6,-2
1,38,28686248,98,-24,4150,-3,4,-1
1,39,28693695,98,-32,4148,-2,6,0
1,40,28701141,98,-55,4159,-4,4,-1
1,41,28708587,102,-60,4154,-2,2,0
1,42,28716033,102,-60,4154,-2,3,1
1,43,28723480,96,-38,4150,-3,4,1
1,44,28731018,96,-19,4151,-2,4,-2
1,45,28738464,95,-33,4148,-1,4,-1
1,46,28745910,95,-33,4148,-3,4,-2
1,47,28753356,96,-56,4145,-3,2,2
1,48,28760803,103,-55,4149,-2,4,2
1,49,28768249,105,-35,4146,0,4,3
1,50,28776245,105,-35,4146,-1,1,4
1,51,28783691,97,-26,4148,-3,6,-1
1,52,28791137,97,-39,4149,-1,3,-1
1,53,28798583,98,-56,4147,-1,2,1
1,54,28806030,98,-56,4147,-3,5,2
1,55,28813476,97,-49,4147,-2,3,2
1,56,28821014,97,-34,4153,-2,5,1
1,57,28828491,100,-28,4151,-1,6,-1
1,58,28835937,100,-28,4151,-3,4,-1
1,59,28843383,98,-47,4147,-2,7,1
1,60,28850830,106,-49,4150,-3,7,0
1,61,28858276,101,-44,4145,-4,6,1
1,62,28866271,97,-30,4143,0,2,0
1,63,28873718,97,-30,4143,-1,4,0
1,64,28881164,99,-33,4149,-2,4,1
1,65,28888610,103,-53,4150,-3,5,1
1,66,28896057,103,-55,4155,-3,6,1
1,67,28903564,103,-55,4155,-2,7,0
1,68,28911224,104,-38,4144,-1,3,1
1,69,28918670,102,-27,4149,-1,2,-1
1,70,28926116,106,-41,4146,-2,4,0
1,71,28933563,106,-41,4146,-2,5,1
1,72,28941009,96,-53,4150,-2,3,0
1,73,28948455,95,-45,4149,-2,5,2
1,74,28956268,95,-39,4152,-3,6,-1
1,75,28963714,95,-39,4152,-3,5,0
1,76,28971160,100,-46,4153,-3,6,2
1,77,28978607,101,-43,4154,-4,5,0
1,78,28986236,95,-36,4149,-3,7,-1
1,79,28993682,95,-36,4149,-2,4,1
1,80,29001129,89,-34,4153,-4,4,1
1,81,29008575,97,-41,4149,-3,6,-2
1,82,29016174,97,-41,4147,-1,4,2
1,83,29023620,97,-41,4147,-2,3,2
1,84,29031066,95,-36,4152,-3,5,1
1,85,29038513,105,-41,4151,-2,7,0
1,86,29046142,101,-39,4147,-2,4,1
1,87,29053588,101,-39,4147,0,5,0
1,88,29061035,94,-43,4147,-1,3,0
1,89,29068542,91,-40,4154,-2,5,-2
1,90,29076141,91,-39,4153,-3,3,0
1,91,29083587,91,-39,4153,-2,6,0
1,92,29091033,97,-45,4147,-2,3,0
1,93,29098480,99,-46,4149,-2,4,1
1,94,29106201,100,-44,4151,-1,6,2
1,95,29113647,100,-44,4151,-2,4,0
1,96,29121093,98,-37,4150,-1,3,0
1,97,29128540,99,-34,4145,-1,5,2
1,98,29136169,103,-44,4145,-3,6,0
1,99,29143615,103,-44,4145,0,3,3
1,100,29151062,102,-48,4149,-2,4,0
1,101,29158508,98,-38,4153,-3,5,1
1,102,29165954,95,-24,4144,-2,3,0
1,103,29173431,95,-24,4144,-2,4,0
1,104,29180877,98,-40,4148,-2,4,1
1,105,29188323,99,-54,4151,-3,6,1
1,106,29195831,98,-44,4143,-2,5,-2
1,107,29203277,98,-44,4143,-1,5,-1
1,108,29210876,96,-36,4147,-3,3,1
1,109,29218322,95,-38,4156,-3,4,0
1,110,29225830,105,-46,4150,-1,5,1
1,111,29233276,105,-46,4150,-1,5,2
1,112,29240814,102,-41,4152,-2,5,2
1,113,29248260,101,-43,4147,-3,1,1
1,114,29256072,95,-37,4153,-1,4,-3
1,115,29263519,95,-37,4153,-2,4,0
1,116,29270965,94,-39,4153,-2,4,1
1,117,29278411,98,-38,4152,1,3,4
1,118,29286102,100,-48,4150,-2,5,0
1,119,29293548,103,-42,4149,-3,7,2
1,120,29300994,103,-42,4149,-3,4,1
1,121,29308441,103,-40,4145,0,3,1
1,122,29316070,97,-42,4150,-3,5,1
1,123,29323516,99,-44,4157,-3,2,2
1,124,29331054,99,-44,4157,-2,5,2
1,125,29338500,101,-42,4150,0,2,-1
1,126,29346130,96,-39,4144,-2,6,2
1,127,29353576,99,-37,4147,-2,4,-2
1,128,29361053,99,-37,4147,-3,2,0
1,129,29368499,96,-40,4151,-1,7,3
1,130,29375946,87,-43,4150,-1,4,2
1,131,29383392,93,-40,4146,-1,6,2
1,132,29390869,93,-40,4146,-1,5,-1
1,133,29398315,103,-44,4155,0,6,2
1,134,29405761,101,-38,4154,0,5,3
1,135,29413208,103,-40,4150,-2,1,2
1,136,29420745,103,-40,4150,-3,3,2
1,137,29428192,97,-41,4150,-2,4,-1
1,138,29435729,105,-42,4149,-4,5,-2
1,139,29443176,95,-38,4143,-3,3,1
1,140,29450714,95,-38,4143,-4,3,1
1,141,29458160,93,-36,4154,-1,4,0
1,142,29465698,99,-44,4151,-2,4,2
1,143,29473205,102,-44,4147,-3,2,0
1,144,29480743,102,-44,4147,-1,5,0
1,145,29488189,103,-37,4151,-2,4,0
1,146,29495727,99,-38,4151,0,2,2
1,147,29503173,95,-39,4156,1,4,0
1,148,29510803,95,-39,4156,0,5,-2
1,149,29518249,99,-46,4153,-4,5,2
1,150,29525726,98,-40,4141,-2,3,0
1,151,29533172,96,-40,4147,-2,5,-1
1,152,29540710,96,-40,4147,-2,2,0
1,153,29548156,102,-38,4147,-3,3,0
1,154,29555694,99,-41,4148,0,4,-1
1,155,29563140,101,-46,4146,-4,4,1
1,156,29570678,101,-46,4146,-4,5,1
1,157,29578125,100,-40,4144,-2,3,1
1,158,29585662,98,-43,4151,-3,5,0
1,159,29593109,98,-42,4152,-2,1,0
1,160,29600585,98,-42,4152,-5,3,0
1,161,29608032,96,-41,4150,-1,6,-2
1,162,29615570,99,-41,4151,-2,2,0
1,163,29623016,98,-42,4150,-1,5,0
1,164,29630615,98,-42,4150,-2,4,1
1,165,29638092,101,-49,4150,-2,6,-1
1,166,29645568,101,-49,4146,-1,5,0
1,167,29653015,98,-40,4149,-3,6,0
1,168,29660552,98,-40,4149,-3,7,-1
1,169,29667999,99,-40,4151,-2,3,0
1,170,29675537,99,-40,4151,-2,3,-2
1,171,29682983,96,-41,4148,-3,5,1
1,172,29690521,96,-41,4148,-3,8,2
1,173,29697967,97,-39,4156,0,2,-1
1,174,29705505,98,-38,4156,-2,3,2
1,175,29712951,100,-42,4148,0,3,0
1,176,29720520,100,-42,4148,-4,4,0
1,177,29727966,107,-35,4150,-1,4,-3
1,178,29735504,101,-42,4153,-3,7,1
1,179,29742950,97,-42,4152,0,6,1
1,180,29750488,108,-42,4151,-4,4,2
1,181,29757934,108,-42,4151,-3,4,2
1,182,29765502,97,-42,4150,-2,6,0
1,183,29772949,93,-39,4150,-3,4,1
1,184,29780487,98,-41,4149,-3,3,1
1,185,29787994,98,-41,4149,-4,5,0
1,186,29795501,100,-44,4153,-1,5,0
1,187,29802947,99,-43,4150,-3,4,2
1,188,29810485,108,-36,4145,-3,5,1
1,189,29817932,108,-36,4145,-1,6,-2
1,190,29825469,101,-41,4149,-2,4,0
1,191,29832916,97,-46,4152,-2,3,0
1,192,29840515,101,-45,4149,-2,4,1
1,193,29847961,101,-45,4149,-1,6,0
1,194,29855499,92,-41,4153,-3,4,0
1,195,29862945,95,-38,4153,-5,7,0
1,196,29870483,95,-42,4146,-3,5,-3
1,197,29877929,95,-42,4146,-3,4,1
1,198,29885467,102,-42,4143,-1,4,-1
1,199,29892913,100,-38,4147,-3,3,1
1,200,29900482,96,-44,4148,-4,4,0
1,201,29907928,96,-44,4148,-2,5,1
1,202,29915466,95,-42,4143,-1,5,-1
1,203,29922912,100,-42,4151,-4,5,1
1,204,29930511,96,-42,4152,-1,3,2
1,205,29938049,96,-42,4152,0,4,-1
1,206,29945587,100,-42,4149,-2,4,1
1,207,29953033,100,-43,4145,-1,3,5
1,208,29960571,93,-39,4151,-2,5,-1
1,209,29968017,93,-39,4151,-2,3,2
1,210,29975494,98,-42,4145,-1,6,-2
1,211,29982940,96,-40,4151,-1,1,0
1,212,29990478,91,-38,4147,-3,8,-3
1,213,29997924,91,-38,4147,-3,6,1
1,214,30005462,97,-41,4145,-2,5,0
1,215,30012908,94,-41,4153,-1,7,1
1,216,30020507,94,-44,4151,-2,4,1
1,217,30027954,94,-44,4151,-3,5,-1
1,218,30035491,101,-49,4148,-5,5,-1
1,219,30042938,102,-42,4145,-4,5,-1
1,220,30050476,97,-36,4150,-1,6,2
1,221,30057922,97,-36,4150,-2,6,1
1,222,30065490,103,-42,4149,-2,6,1
1,223,30072937,107,-40,4144,-3,6,3
1,224,30080474,95,-40,4145,-2,4,0
1,225,30087921,95,-40,4145,-3,4,0
1,226,30095489,100,-36,4149,-2,3,-1
1,227,30102935,95,-42,4153,-2,5,1
1,228,30110473,98,-34,4152,-2,4,1
1,229,30117919,105,-41,4153,-2,6,2
1,230,30125457,105,-41,4153,-3,5,1
1,231,30132904,105,-43,4148,-3,4,1
1,232,30140350,105,-37,4144,-3,5,2
1,233,30147796,102,-36,4154,-1,3,0
1,234,30155334,102,-36,4154,-3,3,2
1,235,30162780,102,-42,4155,-3,5,-1
1,236,30170257,102,-42,4149,-3,3,0
1,237,30177703,95,-40,4144,-3,3,2
1,238,30185241,95,-40,4144,-4,5,3
1,239,30192687,91,-37,4146,-2,5,-1
1,240,30200225,100,-38,4160,-1,4,0
1,241,30207672,102,-45,4153,-3,3,2
1,242,30215118,102,-45,4153,-2,4,1
1,243,30222564,94,-47,4150,0,3,1
1,244,30230041,99,-39,4150,-2,8,0
1,245,30237487,99,-40,4155,-4,5,-2
1,246,30245025,99,-40,4155,-3,7,-1
1,247,30252471,105,-40,4154,-3,3,2
1,248,30260009,100,-42,4147,-1,6,2
1,249,30267456,93,-43,4149,-2,3,0
1,250,30274932,93,-43,4149,0,6,0
1,251,30282379,97,-38,4154,-3,4,-1
1,252,30289916,101,-39,4152,-3,5,0
1,253,30297363,101,-42,4148,-2,4,0
1,254,30304901,101,-42,4148,-2,4,2
1,255,30312377,93,-42,4143,-2,4,1
1,256,30319915,94,-34,4150,-3,4,-1
1,257,30327362,96,-41,4151,-3,4,2
1,258,30334899,96,-41,4151,-4,3,0
1,259,30342346,99,-44,4150,-1,4,0
1,260,30349884,103,-40,4148,-2,5,0
1,261,30357330,98,-38,4150,-2,4,0
1,262,30364898,98,-38,4150,-2,5,-1
1,263,30372344,99,-44,4145,-2,3,0
1,264,30379882,98,-39,4149,-3,4,-1
1,265,30387329,100,-45,4151,-3,5,1
1,266,30394775,100,-45,4151,0,3,3
1,267,30402221,101,-42,4146,-3,4,2
1,268,30409667,93,-38,4142,-4,3,-1
1,269,30417114,97,-44,4153,-1,4,0
1,270,30424560,97,-44,4153,-4,3,-1
1,271,30432006,101,-41,4149,-3,5,0
1,272,30439483,99,-43,4153,-3,6,0
1,273,30446929,99,-44,4145,0,5,3
1,274,30454376,99,-44,4145,-2,2,0
1,275,30461822,100,-42,4153,-3,5,0
1,276,30469268,95,-43,4154,-3,6,0
1,277,30476715,98,-42,4152,-1,7,1
1,278,30484191,98,-42,4152,-5,3,0
1,279,30491638,97,-46,4149,-1,3,1
1,280,30499114,101,-48,4146,0,5,1
1,281,30506561,93,-39,4149,-1,3,2
1,282,30514038,93,-39,4149,-1,2,0
1,283,30521484,97,-42,4143,-2,4,1
1,284,30528961,98,-47,4146,-2,6,2
1,285,30536407,102,-39,4150,-2,3,-1
1,286,30543884,102,-39,4150,-3,3,0
1,287,30551330,99,-39,4147,-2,3,2
1,288,30558807,101,-45,4153,-4,1,2
1,289,30566253,99,-44,4153,-5,6,2
1,290,30573760,99,-44,4153,-4,5,0
1,291,30581207,95,-46,4150,-1,2,1
1,292,30588775,93,-46,4150,-1,4,1
1,293,30596221,99,-44,4146,-3,5,2
1,294,30603759,99,-44,4146,-3,5,0
1,295,30611206,99,-42,4150,-1,5,0
1,296,30618835,101,-32,4148,-2,4,-1
1,297,30626281,103,-37,4149,-3,6,1
1,298,30633758,103,-37,4149,-3,3,0
1,299,30641204,102,-40,4149,-3,2,3
1,300,30648773,105,-47,4144,-2,5,1
1,301,30656219,96,-45,4148,-3,4,2
1,302,30663757,96,-45,4148,-3,3,1
1,303,30671203,93,-33,4150,-3,4,0
1,304,30678771,98,-42,4148,-3,3,-1
1,305,30686218,96,-42,4151,-2,3,0
1,306,30693756,96,-42,4151,-1,4,0
1,307,30701202,94,-46,4140,-2,3,-1
1,308,30708892,95,-40,4149,-2,3,-1
1,309,30716339,102,-31,4146,-2,4,-1
1,310,30723785,102,-31,4146,-3,4,0
1,311,30731231,98,-39,4150,-1,5,1
1,312,30738677,105,-48,4150,0,5,1
1,313,30746124,99,-50,4145,-4,3,-1
1,314,30753601,99,-50,4145,-1,3,0
1,315,30761047,94,-39,4156,0,5,1
1,316,30768493,97,-27,4150,-2,6,0
1,317,30775939,96,-42,4149,-2,3,0
1,318,30783386,96,-42,4149,-3,4,2
1,319,30790832,104,-49,4149,-4,6,0
1,320,30798309,97,-38,4148,-2,7,0
1,321,30805755,97,-37,4148,-3,3,-1
1,322,30813201,97,-37,4148,-3,6,-1
1,323,30820648,104,-42,4153,-3,6,-1
1,324,30828094,100,-48,4154,-1,7,-1
1,325,30835540,97,-46,4141,-3,6,-1
1,326,30843017,97,-46,4141,-3,6,1
1,327,30850555,103,-39,4144,-1,4,2
1,328,30858001,96,-43,4151,1,5,1
1,329,30865447,98,-39,4148,-1,1,1
1,330,30872894,98,-39,4148,-1,4,1
1,331,30880340,92,-43,4150,-2,6,-2
1,332,30887847,98,-38,4142,-2,5,-1
1,333,30895385,94,-34,4158,-4,3,1
1,334,30902832,97,-41,4145,0,4,1
1,335,30910278,97,-41,4145,-4,5,0
1,336,30917724,98,-41,4149,-4,6,-1
1,337,30925170,106,-42,4149,-1,6,-1
1,338,30932617,100,-39,4149,-3,4,1
1,339,30940093,100,-39,4149,0,3,1
1,340,30947540,95,-44,4145,-2,5,0
1,341,30954986,103,-40,4147,0,3,0
1,342,30962432,104,-40,4151,-3,7,1
1,343,30969879,104,-40,4151,-3,3,-1
1,344,30977325,101,-34,4146,-2,3,2
1,345,30984771,96,-38,4145,0,4,2
1,346,30992248,92,-44,4150,-3,5,0
1,347,30999694,92,-44,4150,-4,3,0
1,348,31007141,93,-37,4151,-1,5,0
1,349,31014587,96,-42,4146,-2,4,-1
1,350,31022033,96,-40,4150,-1,5,2
1,351,31029479,96,-40,4150,-2,4,-2
1,352,31036926,96,-43,4147,-3,5,0
1,353,31044372,104,-47,4152,-3,4,1
1,354,31051818,99,-37,4147,-1,5,0
1,355,31059265,99,-37,4147,-2,5,0
1,356,31066711,99,-43,4150,-1,6,0
1,357,31074157,108,-41,4147,-2,5,-1
1,358,31081604,98,-41,4150,-1,3,2
1,359,31089050,98,-41,4150,-2,3,2
1,360,31096496,93,-38,4148,-2,3,-1
1,361,31103942,96,-39,4153,-3,5,0
1,362,31111389,100,-42,4149,-1,6,-2
1,363,31118835,100,-42,4149,-2,5,-1
1,364,31126281,95,-38,4152,-2,1,0
1,365,31133728,103,-39,4146,-4,7,-1
1,366,31141174,105,-39,4147,-3,5,0
1,367,31148620,105,-39,4147,-3,5,-1
1,368,31156066,105,-40,4153,-1,6,-1
1,369,31163543,96,-39,4151,0,2,1
1,370,31170989,101,-40,4145,-4,4,1
1,371,31178436,101,-40,4145,-2,4,1
1,372,31185882,98,-43,4151,0,4,1
1,373,31193328,99,-44,4151,-3,3,2
1,374,31200836,96,-43,4146,-2,5,-1
1,375,31208282,96,-43,4146,-1,2,0
1,376,31215728,102,-38,4151,-2,5,-1
1,377,31223175,100,-41,4152,-4,5,-1
1,378,31230621,94,-42,4145,-3,6,1
1,379,31238067,94,-42,4145,-3,4,0
1,380,31245513,100,-42,4149,-2,3,-1
1,381,31252990,102,-43,4144,-2,4,0
1,382,31260437,104,-38,4151,-2,5,0
1,383,31267883,104,-38,4151,-3,5,-1
1,384,31275329,98,-44,4146,-2,4,0
1,385,31282775,95,-48,4146,-1,8,0
1,386,31290222,97,-40,4149,-3,2,1
1,387,31297668,97,-40,4149,-3,5,0
1,388,31305114,97,-40,4151,-2,4,2
1,389,31312622,100,-44,4149,-1,4,1
1,390,31320068,98,-42,4151,-2,4,0
1,391,31327514,98,-42,4151,-2,3,0
1,392,31334960,96,-45,4151,-5,3,2
1,393,31342437,99,-43,4141,-1,2,2
1,394,31349945,35,-56,4153,-3,3,-3
1,395,31357391,35,-56,4153,-3,2,-29
1,396,31364837,-51,-43,4160,-4,-2,-46
1,397,31372283,116,-11,4145,-1,0,-37
1,398,31379730,194,-49,4141,1,4,-29
1,399,31387176,194,-49,4141,-1,5,-22
1,400,31394622,173,-34,4148,-3,6,-3
1,401,31402069,133,-36,4142,-1,3,4
1,402,31409515,87,-46,4156,-3,5,-2
1,403,31416961,87,-46,4156,-1,4,1
1,404,31424407,97,-48,4151,-1,5,1
1,405,31431854,109,-41,4147,0,7,2
1,406,31439300,96,-41,4147,-4,4,1
1,407,31446746,96,-41,4147,-3,3,0
1,408,31454193,104,-39,4148,-2,4,1
1,409,31461761,99,-45,4148,-2,5,1
1,410,31469207,100,-40,4151,-2,4,0
1,411,31476654,100,-40,4151,-2,4,0
1,412,31484100,102,-38,4142,-3,4,-1
1,413,31491546,99,-43,4150,-1,4,-1
1,414,31498992,-600,-113,4162,-4,12,-92
1,415,31506439,-600,-113,4162,-6,13,-200
1,416,31513885,102,120,4159,-4,9,-64
1,417,31521331,755,-106,4136,-5,12,-50
1,418,31528778,197,-42,4149,-2,4,-7
1,419,31536224,197,-42,4149,-2,4,-25
1,420,31543670,106,365,4143,-3,6,-5
1,421,31551116,66,306,4147,-2,-12,108
1,422,31558563,-10,12,4149,4,-6,-57
1,423,31566070,-10,12,4149,0,4,-41
1,424,31573547,-51,-233,4151,-2,13,104
1,425,31580993,326,-695,4147,7,11,27
1,426,31588439,129,5,4153,2,7,-12
1,427,31595886,129,5,4153,4,8,-6
1,428,31603332,82,1,4146,4,8,0
1,429,31610778,78,-75,4149,4,10,-1
1,430,31618225,-281,-72,4159,10,11,-60
1,431,31625671,-281,-72,4159,8,0,-108
1,432,31633117,-332,0,4162,3,50,-175
1,433,31640563,-253,10,4141,-7,88,-204
1,434,31648010,68,34,4266,-39,363,-223
1,435,31655456,68,34,4266,-13,791,-256
1,436,31662902,176,127,4760,-18,3310,-183
1,437,31670349,-145,-15,4390,-31,3515,-196
1,438,31677795,-154,31,4519,-261,2411,-163
1,439,31685241,-154,31,4519,-442,2504,-122
1,440,31692687,-293,-4,5071,-782,3176,-32
1,441,31700225,-562,-290,5163,-729,2784,-84
1,442,31707672,-480,-198,5691,-812,1996,-169
1,443,31715118,-480,-198,5691,-1002,1732,-158
1,444,31722564,-233,-143,6071,-1395,762,-120
1,445,31730010,-280,-334,5882,-1588,367,-134
1,446,31737457,-621,-358,5258,-1762,19,-159
1,447,31744995,-621,-358,5258,-1823,-3,-185
1,448,31752441,-908,-170,4944,-2034,88,-232
1,449,31759887,-1010,-44,4723,-2132,164,-249
1,450,31767333,-1074,-136,4519,-2117,316,-321
1,451,31774841,-1074,-136,4519,-2135,446,-317
1,452,31782287,-1143,-340,4534,-2198,486,-396
1,453,31789764,-1030,-535,4565,-2258,431,-425
1,454,31797210,-857,-580,4403,-2378,198,-499
1,455,31804656,-857,-580,4403,-2424,76,-523
1,456,31812133,-808,-597,4136,-2429,-292,-560
1,457,31819580,-906,-723,3597,-2409,-347,-589
1,458,31827026,-1116,-948,3042,-2301,-120,-648
1,459,31834503,-1116,-948,3042,-2221,163,-715
1,460,31841949,-1472,-1102,2894,-2046,803,-888
1,461,31849395,-1626,-1154,3174,-1950,1039,-957
1,462,31856842,-1626,-1194,3558,-1812,1272,-1135
1,463,31864288,-1626,-1194,3558,-1772,1278,-1226
1,464,31871734,-1432,-1235,3866,-1735,951,-1374
1,465,31879211,-1112,-1267,3802,-1733,791,-1424
1,466,31886657,-827,-1365,3497,-1693,440,-1489
1,467,31894104,-827,-1365,3497,-1656,304,-1502
1,468,31901550,-656,-1434,3119,-1554,175,-1493
1,469,31908996,-476,-1521,2746,-1471,168,-1468
1,470,31916503,-479,-1726,2517,-1271,362,-1399
1,471,31924011,-479,-1726,2517,-1156,510,-1378
1,472,31931457,-650,-1980,2587,-971,754,-1379
1,473,31938903,-706,-2043,2830,-903,833,-1395
1,474,31946350,-677,-2022,3093,-810,898,-1397
1,475,31953796,-677,-2022,3093,-784,910,-1407
1,476,31961242,-764,-1969,3348,-764,921,-1417
1,477,31968719,-698,-1922,3554,-745,868,-1396
1,478,31976165,-691,-2044,3566,-664,738,-1348
1,479,31983612,-691,-2044,3566,-611,736,-1324
1,480,31991058,-660,-2232,3528,-550,642,-1295
1,481,31998504,-570,-2373,3493,-552,617,-1291
1,482,32005950,-448,-2384,3461,-593,550,-1273
1,483,32013549,-448,-2384,3461,-642,483,-1246
1,484,32020996,-483,-2324,3480,-784,395,-1222
1,485,32028442,-590,-2381,3443,-830,342,-1222
1,486,32035888,-871,-2461,3444,-779,236,-1308
1,487,32043334,-871,-2461,3444,-718,-63,-1394
1,488,32050781,-1214,-2326,3231,-744,472,-1381
1,489,32058288,-565,-2283,3010,-672,634,-1312
1,490,32065734,-177,-2381,3211,-562,506,-1219
1,491,32073181,-177,-2381,3211,-515,328,-1269
1,492,32080627,-196,-2178,3137,-515,169,-1306
1,493,32088073,-197,-2005,2984,-539,135,-1232
1,494,32095520,-361,-2125,2828,-569,204,-1163
1,495,32102996,-361,-2125,2828,-521,314,-1158
1,496,32110443,34,-2114,2597,-300,588,-990
1,497,32117889,330,-2136,2598,-166,711,-895
1,498,32125366,106,-2063,2846,100,765,-848
1,499,32132812,106,-2063,2846,177,854,-764
1,500,32140258,-113,-2042,3083,255,782,-607
1,501,32147735,-670,-2321,3286,235,750,-621
1,502,32155181,-895,-2603,3295,165,739,-675
1,503,32162780,-895,-2603,3295,148,729,-723
1,504,32170227,-614,-2584,3313,130,672,-758
1,505,32177673,-331,-2557,3333,124,607,-738
1,506,32185119,-217,-2562,3346,127,658,-697
1,507,32192596,-217,-2562,3346,130,556,-687
1,508,32200134,-168,-2490,3375,82,593,-610
1,509,32207580,120,-2406,3282,66,653,-539
1,510,32215026,288,-2318,3317,62,518,-421
1,511,32222473,288,-2318,3317,38,535,-351
1,512,32229919,327,-2147,3412,-46,321,-215
1,513,32237365,480,-1931,3409,-95,187,-107
1,514,32244842,554,-2013,3135,-159,-66,99
1,515,32252288,554,-2013,3135,-147,-131,231
1,516,32259735,-81,-2770,2730,-77,370,312
1,517,32267181,-654,-3276,2912,1,616,254
1,518,32274658,-568,-2954,3556,91,686,250
1,519,32282104,-568,-2954,3556,67,665,267
1,520,32289550,-688,-2885,3987,-30,443,245
1,521,32296997,-537,-2905,4083,-108,314,233
1,522,32304443,-268,-2802,3988,-286,40,239
1,523,32311889,-268,-2802,3988,-378,-85,261
1,524,32319335,-76,-2616,3773,-530,-247,337
1,525,32326782,71,-2445,3482,-577,-283,402
1,526,32334228,10,-2457,3214,-589,-279,559
1,527,32341674,10,-2457,3214,-571,-256,613
1,528,32349121,-311,-2579,3106,-543,-213,672
1,529,32356567,-434,-2640,3062,-537,-185,694
1,530,32364013,-407,-2643,3049,-539,-104,730
1,531,32371459,-407,-2643,3049,-535,-90,760
1,532,32378906,-452,-2701,3110,-535,-14,795
1,533,32386352,-429,-2711,3185,-536,41,821
1,534,32393798,-680,-2737,3552,-535,22,895
1,535,32401245,-680,-2737,3552,-531,-547,768
1,536,32408691,-576,-2533,3382,-710,-204,991
1,537,32416137,372,-2757,2840,-657,-298,1089
1,538,32423583,85,-2847,2947,-565,-249,1106
1,539,32431030,85,-2847,2947,-600,-283,1131
1,540,32438476,-342,-2387,3415,-797,-663,1167
1,541,32445922,-896,-2341,3533,-889,-867,1155
1,542,32453369,-1147,-2628,3239,-1023,-1075,1120
1,543,32460815,-1147,-2628,3239,-1034,-1086,1109
1,544,32468261,-1191,-2973,2939,-969,-948,1075
1,545,32475708,-1069,-3200,2729,-902,-817,1067
1,546,32483154,-896,-3171,2697,-760,-609,1039
1,547,32490600,-896,-3171,2697,-702,-507,1058
1,548,32498046,-460,-2896,2653,-613,-371,1156
1,549,32505493,-146,-2692,2654,-583,-352,1219
1,550,32512939,-134,-2672,2733,-554,-417,1343
1,551,32520385,-134,-2672,2733,-558,-508,1392
1,552,32527832,-320,-2627,2811,-623,-719,1438
1,553,32535278,-522,-2329,2834,-676,-838,1452
1,554,32542724,-510,-2122,2662,-747,-1012,1589
1,555,32550170,-510,-2122,2662,-740,-1078,1655
1,556,32557617,-670,-2249,2451,-650,-1128,1709
1,557,32565063,-859,-2340,2332,-579,-1148,1726
1,558,32572509,-1143,-2406,2367,-458,-1217,1732
1,559,32579956,-1143,-2406,2367,-416,-1317,1706
1,560,32587402,-1647,-2631,2335,-103,-1385,1653
1,561,32594848,-2006,-2527,1922,117,-1032,1582
1,562,32602294,-1698,-2273,2211,371,-697,1430
1,563,32609741,-1698,-2273,2211,410,-601,1471
1,564,32617187,-1132,-2116,2446,296,-511,1622
1,565,32624633,-972,-2314,2473,287,-474,1635
1,566,32632080,-966,-2415,2556,370,-568,1611
1,567,32639526,-966,-2415,2556,442,-603,1567
1,568,32646972,-1218,-2303,2759,585,-681,1543
1,569,32654418,-1681,-2423,3334,465,-858,1533
1,570,32661865,-1890,-2624,3183,330,-1086,1393
1,571,32669311,-1890,-2624,3183,443,-1017,1319
1,572,32676757,-1646,-2673,2667,750,-733,1258
1,573,32684204,-1378,-2486,2474,907,-620,1253
1,574,32691650,-933,-2309,2450,1178,-382,1330
1,575,32699096,-933,-2309,2450,1106,-344,1398
1,576,32706542,-1069,-2469,2660,1169,-537,1278
1,577,32713989,-1999,-2633,2957,1215,-657,1092
1,578,32721435,-1862,-2415,3014,1206,-350,1057
1,579,32728881,-1862,-2415,3014,1128,-142,1074
1,580,32736328,-1899,-2345,3589,984,-134,983
1,581,32743774,-2440,-2308,4264,919,-270,844
1,582,32751220,-2319,-2055,4215,780,-449,653
1,583,32758666,-2319,-2055,4215,741,-431,612
1,584,32766113,-2066,-2035,3922,704,-280,530
1,585,32773559,-1799,-2125,3796,683,-183,501
1,586,32781005,-1500,-2106,3827,666,-273,452
1,587,32788452,-1500,-2106,3827,625,-439,434
1,588,32795898,-1263,-1987,3564,551,-693,440
1,589,32803344,-1433,-1999,3127,562,-804,412
1,590,32810791,-1701,-1968,2653,620,-485,349
1,591,32818237,-1701,-1968,2653,675,-161,320
1,592,32825683,-1942,-2066,2875,841,434,232
1,593,32833129,-2092,-2129,3692,872,605,166
1,594,32840576,-1826,-1971,4259,854,596,40
1,595,32848022,-1826,-1971,4259,740,604,11
1,596,32855468,-2007,-1970,4576,759,229,-102
1,597,32862915,-1734,-1953,4124,828,212,-102
1,598,32870452,-1725,-2246,3979,540,-64,-36
1,599,32877899,-1725,-2246,3979,346,125,-169
1,600,32885345,-1520,-2334,3593,144,528,-344
1,601,32893096,-1135,-1724,4106,141,346,-320
1,602,32900543,-1000,-1467,4176,2,-144,-230
1,603,32907989,-1000,-1467,4176,-55,-299,-170
1,604,32915435,-1459,-1623,3648,-85,-289,-216
1,605,32922882,-716,-1159,3781,30,-427,-100
1,606,32930328,-1423,-1445,4218,-12,-1907,178
1,607,32937774,-1423,-1445,4218,-243,-950,86
1,608,32945220,-2128,-2521,2904,-31,-82,-29
1,609,32952667,-1658,-2348,4603,-84,-269,-58
1,610,32960266,-1495,-2223,4922,-434,-804,-206
1,611,32967712,-1495,-2223,4922,-627,-732,-278
1,612,32975219,-1573,-1887,4193,-767,-707,-273
1,613,32982666,-1712,-1804,3999,-817,-636,-316
1,614,32990112,-1708,-1603,3877,-896,-501,-450
1,615,32997558,-1708,-1603,3877,-872,-425,-472
1,616,33005126,-1838,-1666,3623,-831,-120,-549
1,617,33012573,-1961,-1816,3332,-833,57,-636
1,618,33020019,-1910,-1789,3653,-882,439,-733
1,619,33027465,-1910,-1789,3653,-864,598,-802
1,620,33034912,-2093,-2258,3710,-907,891,-985
1,621,33042358,-2101,-2342,4022,-1044,1234,-1149
1,622,33049896,-1983,-2176,4120,-1167,1413,-1321
1,623,33057342,-1983,-2176,4120,-1219,1576,-1359
1,624,33064788,-1524,-1960,4588,-1488,1149,-1351
1,625,33072235,-1510,-2163,4664,-1602,859,-1435
1,626,33079681,-1369,-2141,4447,-1796,289,-1548
1,627,33087127,-1369,-2141,4447,-1822,-191,-1614
1,628,33094665,-1367,-2145,3706,-1934,-597,-1665
1,629,33102172,-1193,-2000,3069,-2035,-552,-1689
1,630,33109619,-1087,-1880,2791,-2041,-652,-1691
1,631,33117065,-1087,-1880,2791,-1932,-599,-1721
1,632,33124511,-1156,-2188,2275,-1589,-194,-1732
1,633,33131958,-1215,-3012,1626,-1437,182,-1684
1,634,33139495,-1136,-3282,1924,-1446,955,-1701
1,635,33146942,-1136,-3282,1924,-1456,1095,-1771
1,636,33154388,-920,-3253,2341,-1187,1079,-1828
1,637,33161834,-474,-2875,2670,-1078,956,-1798
1,638,33169281,-292,-2229,3270,-1010,231,-1821
1,639,33176727,-292,-2229,3270,-1088,-247,-1819
1,640,33184173,249,-2043,2462,-1004,-283,-1457
1,641,33191619,10,-2743,1438,-930,-144,-1397
1,642,33199066,-100,-3057,1562,-772,296,-1388
1,643,33206542,-100,-3057,1562,-690,371,-1360
1,644,33213989,109,-3044,2022,-574,419,-1245
1,645,33221435,197,-2924,2491,-529,303,-1198
1,646,33228912,73,-2844,2529,-508,53,-1094
1,647,33236358,73,-2844,2529,-462,61,-998
1,648,33243804,179,-2993,1879,-283,289,-833
1,649,33251251,253,-3218,1458,-198,636,-777
1,650,33258697,118,-3209,1693,51,811,-706
1,651,33266143,118,-3209,1693,113,1023,-660
1,652,33273620,-3,-3052,2269,180,1017,-555
1,653,33281066,-251,-3086,3023,153,902,-512
1,654,33288513,-323,-3263,3060,-2,554,-469
1,655,33295959,-323,-3263,3060,-17,355,-460
1,656,33303466,-339,-3354,2560,-18,359,-436
1,657,33310913,-319,-3402,2304,1,426,-404
1,658,33318389,-254,-3475,2370,48,551,-352
1,659,33325836,-254,-3475,2370,52,583,-322
1,660,33333282,589,-2830,2319,100,-30,-222
1,661,33340789,852,-2361,1581,75,280,-7
1,662,33348236,-603,-4104,2828,299,585,61
1,663,33355682,-603,-4104,2828,301,384,-6
1,664,33363159,495,-3338,3087,172,-58,164
1,665,33370605,598,-2805,1902,168,-19,262
1,666,33378051,410,-2967,1495,298,312,436
1,667,33385498,410,-2967,1495,374,524,545
1,668,33392944,683,-3020,1993,500,518,753
1,669,33400390,688,-3053,2274,501,591,855
1,670,33407867,612,-3003,2494,511,399,1017
1,671,33415313,612,-3003,2494,497,181,1069
1,672,33422760,648,-2803,2290,428,47,1074
1,673,33430206,831,-2613,1486,570,31,1296
1,674,33437652,541,-2896,1546,784,687,1775
1,675,33445159,541,-2896,1546,941,669,1801
1,676,33452789,341,-3168,2562,977,507,1947
1,677,33460235,219,-2894,2864,920,391,2026
1,678,33467681,162,-2657,3014,781,39,2306
1,679,33475128,162,-2657,3014,746,-236,2387
1,680,33482574,-225,-2744,3022,726,-689,2445
1,681,33490020,-747,-2668,2956,703,-895,2460
1,682,33497528,-1493,-2632,2713,663,-1343,2475
1,683,33504974,-1493,-2632,2713,622,-1257,2439
1,684,33512420,-2191,-2609,2337,630,-841,2278
1,685,33519866,-2589,-2544,2573,660,-704,2159
1,686,33527313,-2567,-2306,2931,705,-314,1914
1,687,33534759,-2567,-2306,2931,746,-150,1851
1,688,33542205,-2465,-2185,3282,845,-78,1733
1,689,33549652,-2383,-2207,3388,885,-37,1669
1,690,33557098,-2253,-2149,3387,930,-25,1490
1,691,33564544,-2253,-2149,3387,918,-42,1409
1,692,33571990,-1958,-2085,3376,855,-116,1322
1,693,33579437,-1739,-2141,3304,795,-146,1312
1,694,33586883,-1710,-2286,3323,676,-162,1233
1,695,33594390,-1710,-2286,3323,348,-218,1127
1,696,33601837,-1644,-2384,3714,-20,-618,947
1,697,33609283,-1502,-1971,3419,69,-770,907
1,698,33616729,-1698,-1773,3323,206,-855,939
1,699,33624176,-1698,-1773,3323,174,-843,1012
1,700,33631622,-1971,-1633,2728,958,-452,913
1,701,33639068,-1942,-1560,2601,1178,-9,1062
1,702,33646514,-2368,-2054,3035,1114,190,1106
1,703,33653961,-2368,-2054,3035,1042,551,940
1,704,33661407,-2457,-2400,3369,975,676,642
1,705,33668853,-2199,-2140,4050,877,616,564
1,706,33676300,-2119,-1930,4255,831,413,436
1,707,33683746,-2119,-1930,4255,810,309,386
1,708,33691192,-2161,-1890,4387,556,67,314
1,709,33698638,-2261,-1955,4339,437,-35,259
1,710,33706085,-2273,-1990,4135,225,-128,195
1,711,33713531,-2273,-1990,4135,139,-134,158
1,712,33720977,-2232,-2022,3842,80,-99,54
1,713,33728424,-2051,-2007,3563,76,-61,21
1,714,33735870,-1900,-2039,3470,61,-12,-42
1,715,33743316,-1900,-2039,3470,30,-8,-58
1,716,33750762,-1818,-2111,3426,13,-50,-188
1,717,33758209,-1638,-2088,3397,-21,-86,-109
1,718,33765655,-1719,-2208,3227,-25,-36,-164
1,719,33773132,-1719,-2208,3227,-20,12,-209
1,720,33780578,-1669,-2065,3282,-19,-19,-229
1,721,33788024,-1591,-1849,3289,-12,-49,-212
1,722,33795471,-1615,-1884,3191,-40,-16,-183
1,723,33802917,-1615,-1884,3191,-52,21,-184
1,724,33810363,-1609,-1992,3162,-20,112,-191
1,725,33817810,-1563,-1889,3236,-1,126,-188
1,726,33825256,-1507,-1830,3272,27,103,-145
1,727,33832702,-1507,-1830,3272,42,87,-133
1,728,33840148,-1482,-2041,3217,70,77,-127
1,729,33847595,-1540,-2240,3235,62,103,-117
1,730,33855041,-1706,-2157,3401,61,161,-197
1,731,33862487,-1706,-2157,3401,46,153,-206
1,732,33869934,-1651,-1883,3572,-4,73,-140
1,733,33877380,-1548,-1927,3499,-18,13,-132
1,734,33884826,-1480,-2054,3286,-29,-78,-124
1,735,33892272,-1480,-2054,3286,-37,-79,-121
1,736,33899719,-1550,-2070,3172,-38,-7,-135
1,737,33907165,-1626,-1991,3231,-36,41,-135
1,738,33914611,-1637,-1903,3350,-46,23,-128
1,739,33922058,-1637,-1903,3350,-49,-9,-127
1,740,33929504,-1573,-1857,3291,-40,-41,-107
1,741,33936950,-1560,-1951,3137,-33,-17,-102
1,742,33944396,-1563,-2024,3114,-16,70,-101
1,743,33951843,-1563,-2024,3114,-6,101,-102
1,744,33959289,-1571,-2036,3236,10,117,-101
1,745,33966735,-1584,-2109,3345,18,109,-99
1,746,33974182,-1666,-2195,3447,5,107,-126
1,747,33981628,-1666,-2195,3447,-11,109,-141
1,748,33989074,-1718,-2101,3537,-41,79,-160
1,749,33996520,-1608,-1985,3534,-55,37,-149
1,750,34003967,-1519,-2053,3387,-97,-35,-118
1,751,34011413,-1519,-2053,3387,-110,-52,-123
1,752,34018859,-1509,-2142,3231,-118,-33,-132
1,753,34026306,-1499,-2069,3191,-122,-14,-132
1,754,34033752,-1559,-1974,3214,-116,-16,-124
1,755,34041198,-1559,-1974,3214,-109,0,-116
1,756,34048645,-1549,-1979,3181,-85,46,-100
1,757,34056091,-1536,-2021,3191,-71,65,-100
1,758,34063537,-1538,-2074,3286,-73,87,-92
1,759,34070983,-1538,-2074,3286,-80,72,-90
1,760,34078430,-1545,-2123,3352,-104,28,-95
1,761,34085876,-1564,-2116,3366,-121,1,-101
1,762,34093322,-1476,-2128,3272,-133,-16,-85
1,763,34100769,-1476,-2128,3272,-121,1,-62
1,764,34108215,-1457,-2308,3266,-120,46,-65
1,765,34115661,-1602,-2396,3477,-147,60,-82
1,766,34123107,-1657,-2262,3673,-237,23,-123
1,767,34130554,-1657,-2262,3673,-276,-50,-127
1,768,34138000,-1513,-2056,3647,-348,-237,-105
1,769,34145446,-1281,-1923,3348,-360,-308,-79
1,770,34152893,-1155,-1881,3020,-327,-386,-23
1,771,34160339,-1155,-1881,3020,-309,-369,15
1,772,34167785,-1215,-1940,2902,-288,-322,55
1,773,34175231,-1426,-2063,2993,-281,-272,60
1,774,34182678,-1520,-2050,3183,-271,-146,48
1,775,34190124,-1520,-2050,3183,-266,-148,44
1,776,34197570,-1657,-1995,3503,-318,-150,19
1,777,34205017,-1822,-1954,3800,-365,-252,1
1,778,34212463,-1816,-1849,3705,-422,-444,-41
1,779,34220031,-1816,-1849,3705,-439,-537,-66
1,780,34227478,-1693,-1699,3324,-452,-604,-82
1,781,34234924,-1454,-1674,2835,-427,-595,-78
1,782,34242370,-1356,-1822,2550,-337,-500,-71
1,783,34249908,-1356,-1822,2550,-280,-410,-57
1,784,34257354,-1398,-2054,2544,-116,-251,27
1,785,34264892,-1529,-2225,2507,101,-75,51
1,786,34272338,-1759,-2656,2945,296,237,77
1,787,34279785,-1759,-2656,2945,207,311,32
1,788,34287231,-2008,-3177,3582,33,280,-258
1,789,34294677,-1874,-2862,4151,-58,114,-345
1,790,34302124,-1680,-2229,4263,-292,-471,-364
1,791,34309661,-1680,-2229,4263,-372,-790,-398
1,792,34317108,-1528,-1927,3447,-360,-1072,-432
1,793,34324554,-1195,-1879,2424,-272,-1078,-373
1,794,34332000,-1237,-1993,1811,-72,-623,-354
1,795,34339508,-1237,-1993,1811,55,-321,-376
1,796,34346954,-1333,-1927,1927,309,182,-341
1,797,34354461,-1316,-1854,2374,417,383,-346
1,798,34361907,-1396,-2041,2997,526,568,-297
1,799,34369354,-1396,-2041,2997,579,622,-324
1,800,34376861,-1534,-2550,3601,549,506,-391
1,801,34384307,-1652,-2768,4133,450,315,-461
1,802,34391754,-1650,-2645,4218,162,-118,-553
1,803,34399200,-1650,-2645,4218,38,-274,-569
1,804,34406646,-1616,-2451,3761,-44,-378,-644
1,805,34414093,-1420,-2138,3316,-46,-373,-670
1,806,34421539,-1070,-1892,3033,1,-231,-649
1,807,34428985,-1070,-1892,3033,53,-155,-611
1,808,34436431,-822,-2065,2886,141,32,-540
1,809,34443878,-639,-2263,2886,194,118,-526
1,810,34451324,-735,-2408,3224,235,270,-452
1,811,34458770,-735,-2408,3224,233,285,-419
1,812,34466217,-853,-2588,3771,95,138,-309
1,813,34473663,-1089,-2827,4417,-37,-162,-329
1,814,34481201,-1255,-2761,3900,-206,-492,-387
1,815,34488708,-1255,-2761,3900,-180,-522,-398
1,816,34496154,-1295,-2687,3306,-276,-336,-359
1,817,34503601,-1257,-2650,3299,-325,-279,-383
1,818,34511047,-944,-2419,3320,-336,-337,-396
1,819,34518493,-944,-2419,3320,-321,-369,-372
1,820,34525939,-711,-2177,3166,-317,-429,-300
1,821,34533416,-724,-2014,2958,-309,-441,-270
1,822,34540863,-683,-1827,2658,-222,-309,-216
1,823,34548309,-683,-1827,2658,-122,-202,-173
1,824,34555755,-574,-1691,2638,5,-24,-30
1,825,34563232,-674,-1901,2877,44,35,-13
1,826,34570678,-812,-2129,3133,137,88,28
1,827,34578308,-812,-2129,3133,129,78,57
1,828,34585754,-1183,-2426,3398,106,17,-13
1,829,34593200,-1530,-2577,3506,100,-18,-52
1,830,34600646,-1557,-2574,3496,96,-52,-155
1,831,34608093,-1557,-2574,3496,64,-64,-157
1,832,34615600,-1388,-2588,3501,13,-145,-250
1,833,34623077,-1164,-2464,3412,5,-192,-259
1,834,34630523,-955,-2336,3214,-28,-203,-249
1,835,34637969,-955,-2336,3214,-17,-181,-247
1,836,34645416,-808,-2151,3052,47,-90,-192
1,837,34652862,-649,-2237,3010,71,-16,-140
1,838,34660308,-741,-2481,3195,100,62,-120
1,839,34667785,-741,-2481,3195,108,64,-138
1,840,34675231,-810,-2494,3378,79,38,-107
1,841,34682678,-781,-2495,3456,49,14,-91
1,842,34690124,-814,-2472,3432,11,-47,-91
1,843,34697570,-814,-2472,3432,2,-68,-84
1,844,34705017,-827,-2366,3341,3,-71,-53
1,845,34712463,-901,-2355,3275,4,-52,-45
1,846,34719970,-936,-2366,3299,1,-32,-42
1,847,34727447,-936,-2366,3299,2,-31,-36
1,848,34734893,-960,-2384,3324,2,-30,-37
1,849,34742340,-974,-2363,3334,-1,-35,-37
1,850,34749786,-947,-2334,3335,-8,-37,-35
1,851,34757232,-947,-2334,3335,-12,-41,-38
1,852,34764678,-1044,-2321,3379,-24,-55,-60
1,853,34772125,-1123,-2308,3384,-28,-59,-64
1,854,34779571,-1103,-2329,3366,-36,-33,-102
1,855,34787017,-1103,-2329,3366,-43,-51,-111
1,856,34794464,-1163,-2405,3479,-80,-99,-158
1,857,34801910,-1327,-2541,3415,-83,-87,-197
1,858,34809356,-1128,-2496,3401,-79,-59,-290
1,859,34816802,-1128,-2496,3401,-93,-128,-317
1,860,34824249,-1002,-2342,3564,-132,-269,-325
1,861,34831726,-947,-2378,3271,-110,-270,-320
1,862,34839172,-782,-2600,3010,-122,-149,-284
1,863,34846618,-782,-2600,3010,-138,-47,-324
1,864,34854064,-706,-2526,2659,48,343,-293
1,865,34861511,-684,-2331,2550,129,568,-248
1,866,34868957,-687,-2339,3055,182,781,-193
1,867,34876403,-687,-2339,3055,190,760,-163
1,868,34883850,-710,-2393,3485,143,575,-112
1,869,34891296,-622,-2459,3618,114,428,-111
1,870,34898742,-598,-2395,3458,68,253,-91
1,871,34906188,-598,-2395,3458,49,182,-68
1,872,34913635,-646,-2274,3331,54,115,-18
1,873,25965759,95,-35,4148,-2,3,1
1,874,25973266,95,-35,4148,-3,3,2
1,875,25980712,97,-34,4149,-3,5,-3
1,876,25988159,95,-42,4149,-2,4,-2
1,877,25995605,96,-39,4149,0,4,0
1,878,26003051,96,-39,4149,-1,4,0
1,879,26010498,98,-40,4153,-3,5,3
1,880,26017944,103,-45,4149,-2,4,0
1,881,26025390,103,-45,4149,-3,3,1
1,882,26032836,103,-45,4149,-4,3,2
1,883,26040283,98,-44,4150,-1,4,-1
1,884,26047729,106,-38,4154,-1,4,1
1,885,26055175,101,-43,4149,-3,5,1
1,886,26062622,101,-43,4149,-2,4,0
1,887,26070068,97,-43,4150,-2,4,1
1,888,26077514,97,-44,4156,-2,4,1
1,889,26084960,92,-40,4152,-3,4,1
1,890,26092407,92,-40,4152,-2,3,1
1,891,26099853,99,-39,4148,-1,5,-2
1,892,26107299,94,-40,4155,-3,3,-1
1,893,26114746,98,-36,4150,-4,6,-2
1,894,26122192,98,-36,4150,1,4,0
1,895,26129699,101,-37,4149,-3,6,2
1,896,26137145,95,-44,4150,-3,4,0
1,897,26144592,97,-45,4147,-3,4,-2
1,898,26152038,97,-45,4147,-1,2,1
1,899,26159484,96,-43,4156,-2,4,-2
1,900,26166931,102,-47,4153,-3,4,0
1,901,26174377,103,-41,4148,-4,5,0
1,902,26181823,103,-41,4148,-2,2,0
1,903,26189270,97,-43,4145,-4,5,0
1,904,26196807,99,-39,4153,-3,5,2
1,905,26204254,99,-37,4149,-2,5,-1
1,906,26211700,99,-37,4149,-2,4,-1
1,907,26219146,102,-36,4150,-3,2,1
1,908,26226593,95,-36,4151,-1,4,2
1,909,26234100,97,-39,4152,-1,5,0
1,910,26241546,97,-39,4152,-2,5,0
1,911,26248992,98,-42,4151,-3,2,3
1,912,26256439,91,-46,4152,-2,7,1
1,913,26263885,98,-42,4152,-1,4,0
1,914,26271331,98,-42,4152,-1,4,1
1,915,26278778,103,-39,4149,-2,4,-2
1,916,26286224,93,-38,4144,-2,3,-1
1,917,26293670,103,-47,4153,-2,4,-1
1,918,26301116,103,-47,4153,-4,2,3
1,919,26308563,102,-45,4154,1,4,0
1,920,26316009,99,-40,4144,-4,4,-1
1,921,26323455,98,-39,4151,-2,6,0
1,922,26330902,98,-39,4151,-2,6,-2
1,923,26338439,94,-43,4149,0,5,1
1,924,26345916,98,-44,4152,-2,5,1
1,925,26353363,95,-45,4152,-2,5,0
1,926,26360809,95,-45,4152,-3,5,1
1,927,26368255,95,-40,4151,-3,6,2
1,928,26375701,103,-39,4151,-1,3,1
1,929,26383148,104,-40,4144,-4,6,0
1,930,26390594,104,-40,4144,-2,5,1
1,931,26398040,107,-39,4149,-2,5,-1
1,932,26405487,102,-41,4149,-4,3,1
1,933,26412933,106,-44,4139,-3,6,0
1,934,26420379,106,-44,4139,-3,5,-1
1,935,26427825,94,-42,4145,-1,5,0
1,936,26435272,98,-38,4151,-2,3,1
1,937,26442718,94,-40,4160,-2,5,-3
1,938,26450164,94,-40,4160,-2,2,1
1,939,26457611,99,-44,4154,-4,5,0
1,940,26465057,98,-42,4148,-2,4,0
1,941,26472503,102,-40,4148,-1,2,2
1,942,26479949,102,-40,4148,-1,5,1
1,943,26487396,98,-41,4151,0,4,0
1,944,26494842,96,-47,4155,-3,6,1
1,945,26502288,97,-46,4146,-4,4,0
1,946,26509735,97,-46,4146,-4,7,-2
1,947,26517181,103,-44,4146,1,4,1
1,948,26524627,103,-47,4145,-1,5,-1
1,949,26532073,96,-47,4148,0,2,4
1,950,26539611,96,-47,4148,-3,5,2
1,951,26547119,94,-43,4150,-1,3,0
1,952,26554565,100,-41,4160,-3,3,0
1,953,26562011,102,-37,4147,-4,7,-2
1,954,26569458,102,-37,4147,-1,5,-2
1,955,26576904,103,-39,4152,1,4,-1
1,956,26584442,95,-41,4151,-3,5,-2
1,957,26591888,94,-43,4151,-3,4,0
1,958,26599334,94,-43,4151,-4,4,-1
1,959,26606781,97,-47,4152,-2,4,0
1,960,26614227,99,-43,4153,1,4,4
1,961,26621673,93,-45,4150,-3,7,-2
1,962,26629119,93,-45,4150,-4,5,-1
1,963,26636566,98,-48,4151,-3,5,-1
1,964,26644042,103,-43,4150,-4,7,-1
1,965,26651489,98,-43,4150,-2,5,2
1,966,26658935,98,-43,4150,-3,4,0
1,967,26666381,100,-41,4146,-1,3,1
1,968,26673828,102,-41,4148,-3,6,-1
1,969,26681274,98,-40,4151,1,4,0
1,970,26688812,98,-40,4151,-2,3,-1
1,971,26696289,96,-41,4147,-1,4,1
1,972,26703735,87,-37,4151,-2,2,-1
1,973,26711181,89,-41,4149,-1,4,1
1,974,26718627,89,-41,4149,-2,3,0
1,975,26726074,95,-44,4149,-4,3,-1
1,976,26733520,96,-41,4148,-3,5,0
1,977,26740966,106,-40,4148,-1,2,1
1,978,26748443,106,-40,4148,-1,4,0
1,979,26755889,105,-35,4154,-2,4,0
1,980,26763336,101,-38,4154,-3,4,1
1,981,26770782,107,-41,4146,0,5,2
1,982,26778228,107,-41,4146,1,6,-1
1,983,26785675,103,-49,4148,-2,5,2
1,984,26793121,98,-42,4146,0,4,0
1,985,26800567,97,-39,4143,0,8,1
1,986,26808013,97,-39,4143,1,4,2
1,987,26815460,101,-38,4150,-2,5,1
1,988,26822906,99,-40,4143,-3,5,1
1,989,26830352,97,-39,4144,-4,4,-2
1,990,26837799,97,-39,4144,-1,7,-1
1,991,26845245,95,-34,4150,-4,2,1
1,992,26852722,95,-42,4157,-1,5,1
1,993,26860168,100,-45,4147,-3,6,1
1,994,26867614,100,-45,4147,-2,3,0
1,995,26875061,98,-42,4146,-2,6,-1
1,996,26882507,98,-39,4148,-2,8,-1
1,997,26889953,95,-40,4153,-1,2,3
1,998,26897460,95,-40,4153,0,2,0
1,999,26904907,98,-40,4153,-2,3,0
