event_id,seq,ts_us,ax,ay,az,gx,gy,gz
2,0,55267425,-49,-1729,-523,-468,641,100
2,1,55274871,-49,-1729,-523,-145,1111,240
2,2,55282318,-189,-1526,-499,382,1688,391
2,3,55289764,-680,-1460,-786,675,2078,332
2,4,55297241,-1148,-1264,-961,1336,3312,370
2,5,55304687,-1148,-1264,-961,1619,3793,515
2,6,55312133,-2137,-244,2433,2035,-7096,1022
2,7,55319580,-1584,-2823,3713,1954,-6763,411
2,8,55327026,3,-3944,1808,834,-4807,-274
2,9,55334472,3,-3944,1808,591,-3953,-383
2,10,55341918,-896,-2090,6975,-197,-5022,-181
2,11,55349365,-149,-2645,5360,-184,-3978,-94
2,12,55356811,-1313,-2217,3515,463,-723,88
2,13,55364257,-1313,-2217,3515,489,414,197
2,14,55371704,-1477,-1690,4551,-69,1955,234
2,15,55379150,-1114,-2119,4176,-448,2349,218
2,16,55386596,-1506,-2140,2154,-385,4323,75
2,17,55394042,-1506,-2140,2154,-234,5200,19
2,18,55401489,-1465,-2482,2343,-110,5929,-290
2,19,55408935,-1951,-2625,4045,-129,5272,-403
2,20,55416381,-1644,-1220,6358,-508,2655,-94
2,21,55423828,-1644,-1220,6358,-805,690,-173
2,22,55431304,-1118,-991,8602,-1224,-3043,-607
2,23,55438751,-1137,-2075,6088,-1322,-3639,-664
2,24,55446197,-878,-2434,3432,-1396,-3100,-448
2,25,55453643,-878,-2434,3432,-1395,-2559,-367
2,26,55461090,-669,-2251,2652,-1326,-1540,-277
2,27,55468536,-688,-1941,1605,-1261,-1046,-211
2,28,55475982,-519,-1761,449,-1008,89,-92
2,29,55483428,-519,-1761,449,-798,526,-42
2,30,55490875,-424,-1616,-11,-224,1468,41
2,31,55498321,-766,-1283,-912,88,2237,95
2,32,55505767,-1165,-938,1077,674,3304,328
2,33,55513214,-1165,-938,1077,968,636,478
2,34,55520660,-1207,-664,3888,1254,-2484,242
2,35,55528106,-56,-2784,183,1286,-1661,-3
2,36,55535552,-151,-2033,1310,1206,-365,375
2,37,55542999,-151,-2033,1310,1431,1,555
2,38,55550445,-1109,-1849,2986,1822,479,643
2,39,55557891,-699,-2659,7691,1055,-1812,472
2,40,55565338,-1026,-2891,4068,847,-945,363
2,41,55572784,-1026,-2891,4068,712,-574,0
2,42,55580230,-2361,-1773,4925,-25,2,295
2,43,55587677,-790,-2019,5485,197,246,507
2,44,55595123,-1106,-2834,5299,7,103,120
2,45,55602569,-1106,-2834,5299,-160,-397,35
2,46,55610015,-1725,-1975,4229,-402,-247,-80
2,47,55617462,-1144,-1804,3248,-511,-139,53
2,48,55624908,-1080,-2018,2779,-567,484,96
2,49,55632354,-1080,-2018,2779,-455,1077,-92
2,50,55639801,-737,-2900,2433,-388,1902,-526
2,51,55647247,-440,-2129,4300,-502,1786,-441
2,52,55654693,-899,-1193,6676,-678,-646,-190
2,53,55662139,-899,-1193,6676,-730,-1618,-97
2,54,55669586,-1201,-1813,4807,-862,-1955,-200
2,55,55677032,-1097,-2249,2946,-919,-1573,-235
2,56,55684478,-939,-2070,2678,-866,-468,-196
2,57,55691925,-939,-2070,2678,-770,-28,-146
2,58,55699371,-852,-2005,3190,-682,170,-49
2,59,55706817,-726,-2122,3665,-710,-17,-40
2,60,55714263,-645,-2235,3484,-810,-382,-78
2,61,55721710,-645,-2235,3484,-802,-517,-79
2,62,55729156,-634,-2185,3157,-788,-429,-38
2,63,55736602,-777,-2146,2845,-724,-300,-35
2,64,55744049,-854,-2038,2796,-562,63,3
2,65,55751495,-854,-2038,2796,-479,80,41
2,66,55758941,-827,-1999,3045,-432,-40,62
2,67,55766387,-796,-2079,3092,-415,-145,38
2,68,55773834,-746,-2155,2949,-348,-171,32
2,69,55781280,-746,-2155,2949,-309,-90,40
2,70,55788726,-798,-2247,3042,-249,68,40
2,71,55796173,-879,-2292,3239,-234,128,34
2,72,55803619,-845,-2335,3350,-203,122,27
2,73,55811065,-845,-2335,3350,-195,86,18
2,74,55818511,-783,-2431,3468,-248,-150,-13
2,75,55825958,-718,-2435,3447,-292,-263,-20
2,76,55833404,-691,-2394,3221,-296,-288,-26
2,77,55840850,-691,-2394,3221,-258,-251,-16
2,78,55848297,-744,-2303,3169,-192,-175,9
2,79,55855743,-740,-2264,3167,-173,-157,13
2,80,55863189,-720,-2219,3131,-129,-176,36
2,81,55870635,-720,-2219,3131,-106,-188,54
2,82,55878112,-691,-2227,3033,-61,-142,97
2,83,55885559,-656,-2286,3017,-44,-105,116
2,84,55893005,-627,-2308,3132,-19,-81,150
2,85,55900512,-627,-2308,3132,2,-77,170
2,86,55907958,-700,-2358,3259,37,-36,187
2,87,55915405,-796,-2450,3518,25,-39,172
2,88,55922882,-852,-2463,3637,-15,-124,119
2,89,55930328,-852,-2463,3637,-21,-157,108
2,90,55937835,-840,-2428,3494,-21,-157,97
2,91,55945281,-816,-2423,3369,-24,-135,86
2,92,55952728,-791,-2408,3309,-29,-100,69
2,93,55960174,-791,-2408,3309,-16,-78,62
2,94,55967651,-817,-2374,3246,3,-73,48
2,95,55975097,-764,-2354,3221,14,-86,48
2,96,55982543,-749,-2389,3221,25,-22,42
2,97,55989990,-749,-2389,3221,26,21,36
2,98,55997436,-728,-2374,3316,40,10,44
2,99,56004913,-709,-2390,3347,44,4,45
2,100,56012390,-737,-2378,3332,46,-8,42
2,101,56019866,-737,-2378,3332,48,-11,41
2,102,56027313,-733,-2361,3339,41,-9,42
2,103,56034790,-801,-2352,3373,35,-6,36
2,104,56042236,-852,-2330,3356,31,22,28
2,105,56049682,-852,-2330,3356,30,33,23
2,106,56057128,-852,-2331,3393,22,35,16
2,107,56064575,-818,-2347,3410,20,42,13
2,108,56072021,-730,-2380,3437,13,25,12
2,109,56079467,-730,-2380,3437,4,3,10
2,110,56086914,-706,-2394,3391,9,6,10
2,111,56094360,-754,-2361,3383,8,1,12
2,112,56101837,-801,-2349,3360,-2,12,8
2,113,56109283,-801,-2349,3360,-3,36,6
2,114,56116729,-783,-2326,3372,-1,19,15
2,115,56124176,-758,-2326,3344,1,12,16
2,116,56131622,-800,-2325,3339,-15,35,15
2,117,56139129,-800,-2325,3339,-22,27,15
2,118,56146606,-835,-2307,3353,-16,6,15
2,119,56154052,-798,-2319,3295,-10,-2,18
2,120,56161499,-835,-2394,3324,-18,37,-3
2,121,56168945,-835,-2394,3324,-34,70,-24
2,122,56176452,-841,-2356,3419,-41,89,-36
2,123,56183898,-811,-2341,3436,-32,74,-38
2,124,56191436,-777,-2362,3374,-19,47,-33
2,125,56198883,-777,-2362,3374,-9,36,-31
2,126,56206329,-708,-2439,3339,-5,48,-31
2,127,56213775,-689,-2491,3440,-15,52,-39
2,128,56221221,-702,-2440,3528,-41,31,-44
2,129,56228668,-702,-2440,3528,-43,-6,-39
2,130,56236175,-712,-2394,3472,-36,-67,-34
2,131,56243621,-715,-2349,3333,-29,-85,-27
2,132,56251068,-693,-2334,3270,-22,-95,-9
2,133,56258514,-693,-2334,3270,-21,-109,0
2,134,56265960,-691,-2331,3298,-16,-151,20
2,135,56273406,-822,-2336,3311,-28,-137,15
2,136,56280914,-841,-2315,3253,-51,-41,2
2,137,56288360,-841,-2315,3253,-27,-7,14
2,138,56295806,-747,-2315,3243,8,21,26
2,139,56303253,-692,-2390,3304,7,28,29
2,140,56310699,-685,-2431,3418,-14,8,20
2,141,56318145,-685,-2431,3418,-22,-16,15
2,142,56325653,-744,-2412,3454,-25,-51,10
2,143,56333129,-777,-2400,3408,-21,-49,6
2,144,56340576,-753,-2438,3408,-29,-34,7
2,145,56348022,-753,-2438,3408,-52,-41,16
2,146,56355468,-698,-2463,3461,-66,-86,6
2,147,56362915,-667,-2434,3442,-70,-117,14
2,148,56370361,-620,-2442,3374,-108,-170,56
2,149,56377868,-620,-2442,3374,-130,-177,78
2,150,56385314,-590,-2436,3282,-121,-194,98
2,151,56392761,-590,-2404,3240,-113,-201,115
2,152,56400207,-761,-2386,3137,-96,-92,108
2,153,56407653,-761,-2386,3137,-83,19,96
2,154,56415100,-944,-2291,3171,-68,155,58
2,155,56422546,-951,-2226,3347,-61,130,46
2,156,56429992,-854,-2247,3394,-21,65,37
2,157,56437438,-854,-2247,3394,-5,54,31
2,158,56444885,-835,-2321,3396,-25,52,13
2,159,56452331,-826,-2369,3384,-32,21,6
2,160,56459777,-839,-2370,3274,-30,75,-14
2,161,56467224,-839,-2370,3274,-26,90,-15
2,162,56474670,-760,-2410,3293,-12,115,-19
2,163,56482116,-693,-2483,3337,2,112,-24
2,164,56489562,-657,-2515,3422,-2,44,-40
2,165,56497009,-657,-2515,3422,-8,22,-50
2,166,56504455,-676,-2504,3471,-28,-19,-21
2,167,56511901,-683,-2478,3484,-61,-52,7
2,168,56519348,-689,-2437,3391,-120,-118,3
2,169,56526794,-689,-2437,3391,-105,-98,17
2,170,56534240,-750,-2373,3280,-115,-115,14
2,171,56541687,-813,-2357,3180,-104,-86,-3
2,172,56549133,-777,-2303,3121,-52,-2,0
2,173,56556579,-777,-2303,3121,-33,23,-2
2,174,56564025,-729,-2323,3191,-7,38,6
2,175,56571472,-737,-2361,3229,4,37,6
2,176,56578918,-741,-2365,3249,10,36,-1
2,177,56586364,-741,-2365,3249,20,19,4
2,178,56593811,-704,-2388,3260,50,1,13
2,179,56601318,-695,-2427,3276,58,-1,17
2,180,56608764,-713,-2496,3410,42,32,7
2,181,56616210,-713,-2496,3410,6,81,-4
2,182,56623657,-747,-2517,3528,-48,126,-11
2,183,56631103,-726,-2464,3473,-59,99,-13
2,184,56638549,-721,-2412,3375,-55,11,-4
2,185,56645996,-721,-2412,3375,-52,-10,-1
2,186,56653442,-762,-2376,3273,-52,-27,3
2,187,56660888,-796,-2367,3261,-50,-28,4
2,188,56668334,-774,-2368,3305,-56,-16,7
2,189,56675781,-774,-2368,3305,-50,-14,10
2,190,56683227,-758,-2387,3312,-40,-1,17
2,191,56690673,-742,-2401,3325,-31,2,23
2,192,56698120,-719,-2421,3313,-20,-23,27
2,193,56705566,-719,-2421,3313,-17,-30,28
2,194,56713012,-728,-2451,3283,-23,-28,33
2,195,56720458,-724,-2478,3307,-29,-30,36
2,196,56727905,-718,-2471,3387,-45,-58,40
2,197,56735351,-718,-2471,3387,-57,-99,42
2,198,56742797,-763,-2442,3382,-45,-116,21
2,199,56750244,-833,-2401,3295,-41,-64,19
2,200,56757690,-809,-2369,3318,-54,-31,4
2,201,56765136,-809,-2369,3318,-41,-33,-3
2,202,56772583,-784,-2348,3253,-22,-5,-3
2,203,56780029,-771,-2349,3243,-19,-11,-3
2,204,56787475,-745,-2387,3208,-11,-22,-1
2,205,56794921,-745,-2387,3208,-2,-6,0
2,206,56802368,-762,-2422,3223,1,37,-5
2,207,56809814,-742,-2447,3341,2,33,-9
2,208,56817260,-758,-2490,3440,-7,15,-21
2,209,56824707,-758,-2490,3440,-19,9,-30
2,210,56832153,-757,-2458,3465,-24,-18,-32
2,211,56839599,-726,-2451,3380,-16,-23,-28
2,212,56847045,-695,-2467,3336,-18,-31,-12
2,213,56854492,-695,-2467,3336,-38,-33,-3
2,214,56861938,-699,-2490,3352,-77,-48,3
2,215,56869384,-711,-2452,3302,-68,-54,-5
2,216,56876831,-703,-2416,3224,-37,-73,3
2,217,56884277,-703,-2416,3224,-24,-62,8
2,218,56891723,-709,-2414,3190,-9,-46,9
2,219,56899169,-754,-2427,3245,-18,-30,10
2,220,56906616,-818,-2453,3369,-69,56,-15
2,221,56914123,-818,-2453,3369,-77,68,-23
2,222,56921569,-764,-2442,3398,-54,52,-18
2,223,56929016,-758,-2434,3354,-46,33,-21
2,224,56936462,-740,-2455,3262,-30,8,-21
2,225,56943908,-740,-2455,3262,-26,25,-17
2,226,56951354,-700,-2497,3286,-40,32,-15
2,227,56958801,-702,-2481,3400,-55,4,-11
2,228,56966247,-736,-2460,3379,-71,-67,-11
2,229,56973693,-736,-2460,3379,-74,-77,-11
2,230,56981140,-734,-2432,3275,-64,-58,-8
2,231,56988586,-724,-2418,3229,-53,-42,2
2,232,56996032,-734,-2413,3287,-44,-15,15
2,233,57003479,-734,-2413,3287,-57,-57,0
2,234,57010925,-755,-2422,3333,-54,-77,-10
2,235,57018371,-764,-2398,3279,-48,-82,-12
2,236,57025817,-760,-2420,3218,-26,-14,-9
2,237,57033264,-760,-2420,3218,-17,18,-7
2,238,57040710,-724,-2432,3274,-12,12,-8
2,239,57048309,-689,-2466,3294,-8,-3,-8
2,240,57055755,-702,-2470,3296,-26,-22,-15
2,241,57063201,-702,-2470,3296,-31,-30,-17
2,242,57070648,-717,-2426,3272,-19,-36,-9
2,243,57078094,-710,-2432,3228,-11,-40,-6
2,244,57085601,-678,-2471,3228,-8,-17,0
2,245,57093078,-678,-2471,3228,-14,-8,-1
2,246,57100524,-647,-2494,3318,-33,-22,-4
2,247,57107971,-665,-2481,3341,-30,-42,0
2,248,57115417,-715,-2475,3275,-17,-55,4
2,249,57122863,-715,-2475,3275,-12,-38,4
2,250,57130310,-738,-2472,3244,1,6,1
2,251,57137817,-718,-2470,3293,6,7,3
2,252,57145263,-699,-2473,3292,13,0,5
2,253,57152709,-699,-2473,3292,14,-2,3
2,254,57160156,-689,-2480,3296,3,14,-1
2,255,57167602,-705,-2476,3346,-5,16,0
2,256,57175048,-734,-2464,3371,-19,9,-2
2,257,57182586,-734,-2464,3371,-28,0,-3
2,258,57190032,-744,-2454,3336,-32,-17,1
2,259,57197479,-713,-2453,3295,-30,-28,0
2,260,57204925,-685,-2451,3254,-24,-33,6
2,261,57212371,-685,-2451,3254,-22,-27,4
2,262,57219818,-718,-2469,3261,-29,13,4
2,263,57227264,-695,-2457,3264,-24,17,5
2,264,57234710,-690,-2472,3255,-12,21,11
2,265,57242156,-690,-2472,3255,-12,27,11
2,266,57249603,-670,-2487,3278,-8,10,10
2,267,57257049,-654,-2499,3301,-9,-4,11
2,268,57264495,-723,-2466,3272,-9,-31,6
2,269,57271942,-723,-2466,3272,-10,-24,4
2,270,57279388,-792,-2446,3288,-18,2,0
2,271,57286834,-809,-2433,3339,-21,10,-5
2,272,57294281,-772,-2447,3368,-21,4,-7
2,273,57301757,-772,-2447,3368,-28,-5,-9
2,274,57309204,-701,-2475,3344,-36,2,-4
2,275,57316680,-657,-2494,3275,-36,-1,-3
2,276,57324127,-637,-2499,3229,-26,-3,-3
2,277,57331573,-637,-2499,3229,-21,-12,-1
2,278,57339019,-664,-2478,3208,-13,-7,2
2,279,57346466,-697,-2465,3191,-7,-1,1
2,280,57353912,-724,-2478,3180,8,26,-2
2,281,57361389,-724,-2478,3180,19,40,-2
2,282,57368835,-709,-2500,3236,23,87,-11
2,283,57376281,-728,-2493,3376,16,88,-13
2,284,57383728,-708,-2490,3404,12,51,-7
2,285,57391174,-708,-2490,3404,6,32,0
2,286,57398681,-683,-2506,3380,-27,-3,5
2,287,57406158,-693,-2508,3365,-44,-26,3
2,288,57413604,-716,-2472,3301,-51,-48,-3
2,289,57421051,-716,-2472,3301,-43,-47,-3
2,290,57428497,-737,-2451,3257,-38,-11,-7
2,291,57436004,-774,-2451,3276,-46,16,-13
2,292,57443450,-752,-2426,3310,-41,-4,-11
2,293,57450927,-752,-2426,3310,-32,-12,-8
2,294,57458374,-722,-2440,3256,-18,-10,-4
2,295,57465820,-685,-2474,3212,-13,-11,-2
2,296,57473266,-701,-2481,3225,-12,-8,-4
2,297,57480712,-701,-2481,3225,-15,4,-6
2,298,57488159,-719,-2470,3238,4,5,-4
2,299,57495758,-695,-2487,3234,12,7,-3
2,300,57503234,-683,-2546,3271,15,19,-9
2,301,57510681,-683,-2546,3271,-5,59,-23
2,302,57518127,-715,-2537,3403,-19,43,-26
2,303,57525573,-735,-2498,3407,-18,27,-20
2,304,57533020,-734,-2501,3312,-40,-10,-10
2,305,57540496,-734,-2501,3312,-50,-17,-13
2,306,57547973,-697,-2523,3250,-46,-25,-12
2,307,57555419,-693,-2537,3240,-49,1,-18
2,308,57562866,-728,-2516,3332,-68,39,-19
2,309,57570312,-728,-2516,3332,-75,22,-13
2,310,57577758,-746,-2495,3336,-63,-5,-28
2,311,57585205,-730,-2478,3269,-55,-10,-27
2,312,57592651,-687,-2459,3227,-44,1,-26
2,313,57600097,-687,-2459,3227,-40,-3,-18
2,314,57607543,-676,-2457,3256,-59,-8,-13
2,315,57614990,-687,-2422,3277,-60,-7,-16
2,316,57622436,-669,-2401,3218,-31,-25,-7
2,317,57629882,-669,-2401,3218,-19,-15,0
2,318,57637329,-640,-2449,3187,-25,4,12
2,319,57644775,-652,-2501,3287,-40,-2,13
2,320,57652221,-704,-2479,3314,-68,-38,9
2,321,57659667,-704,-2479,3314,-68,-51,12
2,322,57667114,-724,-2467,3232,-64,-31,19
2,323,57674560,-725,-2477,3188,-61,-16,22
2,324,57682006,-699,-2517,3210,-52,5,22
2,325,57689453,-699,-2517,3210,-45,3,20
2,326,57696899,-682,-2531,3232,-28,8,24
2,327,57704345,-673,-2545,3248,-19,10,23
2,328,57711791,-678,-2568,3238,-1,28,17
2,329,57719238,-678,-2568,3238,6,36,14
2,330,57726684,-647,-2579,3283,10,30,4
2,331,57734130,-664,-2558,3332,4,21,-3
2,332,57741577,-698,-2507,3277,9,-2,-1
2,333,57749023,-698,-2507,3277,14,-7,0
2,334,57756469,-712,-2485,3204,22,-6,6
2,335,57763916,-731,-2473,3207,21,0,6
2,336,57771362,-748,-2484,3255,6,33,1
2,337,57778808,-748,-2484,3255,-2,47,0
2,338,57786254,-710,-2485,3302,1,39,8
2,339,57793701,-694,-2508,3303,-1,26,11
2,340,57801147,-703,-2524,3268,0,9,7
2,341,57808593,-703,-2524,3268,-5,7,4
2,342,57816040,-715,-2524,3306,-23,4,-2
2,343,57823486,-727,-2499,3334,-26,-5,-2
2,344,57830932,-755,-2486,3267,-15,-32,2
2,345,57838378,-755,-2486,3267,-5,-32,1
2,346,57845825,-729,-2503,3181,10,-2,1
2,347,57853271,-685,-2556,3259,11,14,-3
2,348,57860809,-763,-2527,3367,-16,50,-19
2,349,57868255,-763,-2527,3367,-18,46,-18
2,350,57875701,-752,-2480,3326,-6,36,-10
2,351,57883148,-701,-2499,3264,-9,31,-11
2,352,57890594,-679,-2511,3215,-16,16,-12
2,353,57898040,-679,-2511,3215,-23,20,-16
2,354,57905487,-659,-2516,3251,-39,16,-10
2,355,57912933,-652,-2474,3285,-44,-3,0
2,356,57920379,-680,-2463,3231,-47,-41,13
2,357,57927825,-680,-2463,3231,-50,-53,20
2,358,57935272,-694,-2471,3154,-57,-39,25
2,359,57942718,-691,-2494,3171,-63,-16,27
2,360,57950164,-672,-2512,3176,-52,3,34
2,361,57957611,-672,-2512,3176,-45,9,34
2,362,57965057,-678,-2531,3199,-25,4,36
2,363,57972503,-727,-2561,3195,-13,16,30
2,364,57979949,-781,-2565,3207,10,70,14
2,365,57987396,-781,-2565,3207,24,87,5
2,366,57994842,-759,-2569,3269,59,98,-2
2,367,58002288,-731,-2584,3327,57,94,-13
2,368,58009735,-752,-2535,3319,50,92,-28
2,369,58017181,-752,-2535,3319,50,85,-26
2,370,58024627,-713,-2495,3278,55,61,-21
2,371,58032073,-678,-2469,3240,49,46,-18
2,372,58039520,-657,-2476,3221,38,-3,-3
2,373,58046966,-657,-2476,3221,28,-18,0
2,374,58054412,-694,-2484,3181,2,19,-1
2,375,58061859,-745,-2422,3162,-2,35,5
2,376,58069305,-724,-2428,3206,7,10,26
2,377,58076751,-724,-2428,3206,6,0,29
2,378,58084197,-705,-2494,3208,-4,-9,31
2,379,58091644,-700,-2535,3230,0,-10,26
2,380,58099090,-692,-2545,3251,17,-4,25
2,381,58106536,-692,-2545,3251,21,5,29
2,382,58113983,-695,-2556,3292,26,19,19
2,383,58121429,-687,-2572,3321,31,13,19
2,384,58128875,-704,-2572,3298,35,19,10
2,385,58136322,-704,-2572,3298,37,31,3
2,386,58143768,-752,-2531,3276,45,39,-5
2,387,58151214,-788,-2487,3271,38,38,-10
2,388,58158660,-781,-2461,3270,34,48,-14
2,389,58166107,-781,-2461,3270,34,46,-8
2,390,58173553,-776,-2455,3351,19,11,-4
2,391,58180999,-787,-2448,3334,14,-2,0
2,392,58188446,-735,-2485,3299,9,-8,9
2,393,58195892,-735,-2485,3299,5,-8,9
2,394,58203338,-703,-2533,3310,-10,1,2
2,395,58210784,-717,-2534,3337,-15,-7,0
2,396,58218322,-756,-2516,3289,-17,-19,-11
2,397,58225769,-756,-2516,3289,-14,-5,-13
2,398,58233215,-737,-2506,3232,-10,29,-16
2,399,58240661,-744,-2510,3300,-11,32,-19
2,400,58248107,-740,-2496,3325,-10,8,-16
2,401,58255554,-740,-2496,3325,-8,-3,-15
2,402,58263061,-730,-2499,3243,-7,18,-15
2,403,58270507,-711,-2486,3215,-13,43,-14
2,404,58277954,-673,-2487,3237,-11,34,-3
2,405,58285400,-673,-2487,3237,-7,17,0
2,406,58292846,-666,-2494,3193,-4,-6,1
2,407,58300292,-667,-2485,3122,3,-5,10
2,408,58307830,-694,-2491,3095,22,19,14
2,409,58315277,-694,-2491,3095,34,43,14
2,410,58322723,-752,-2491,3115,38,116,11
2,411,58330169,-764,-2494,3233,41,130,9
2,412,58337615,-764,-2500,3338,44,132,6
2,413,58345062,-764,-2500,3338,38,125,4
2,414,58352600,-800,-2505,3438,22,74,-3
2,415,58360046,-769,-2504,3421,18,54,-6
2,416,58367492,-758,-2507,3362,8,42,-7
2,417,58374938,-758,-2507,3362,3,39,-10
2,418,58382385,-766,-2479,3290,4,23,-4
2,419,58389831,-737,-2481,3211,11,19,-6
2,420,58397277,-727,-2488,3176,11,25,-6
2,421,58404724,-727,-2488,3176,10,33,-6
2,422,58412170,-728,-2473,3221,3,33,-1
2,423,58419647,-743,-2464,3253,3,29,1
2,424,58427093,-731,-2500,3296,5,15,3
2,425,58434539,-731,-2500,3296,-2,19,2
2,426,58441986,-753,-2505,3304,-3,13,2
2,427,58449432,-747,-2494,3307,4,-4,7
2,428,58456970,-756,-2500,3248,10,-32,-2
2,429,58464416,-756,-2500,3248,14,-25,-3
2,430,58471862,-779,-2491,3198,8,40,-3
2,431,58479309,-786,-2471,3261,6,57,-5
2,432,58486785,-760,-2460,3310,9,27,3
2,433,58494232,-760,-2460,3310,4,8,5
2,434,58501678,-740,-2483,3303,2,-29,4
2,435,58509124,-715,-2495,3204,5,-32,3
2,436,58516571,-671,-2510,3216,15,-24,8
2,437,58524017,-671,-2510,3216,14,-30,14
2,438,58531494,-701,-2510,3325,-4,-55,13
2,439,58538940,-849,-2465,3337,-28,-31,3
2,440,58546386,-850,-2420,3262,-51,25,-1
2,441,58553833,-850,-2420,3262,-42,35,8
2,442,58561279,-757,-2451,3240,-36,37,14
2,443,58568817,-706,-2502,3249,-40,28,14
2,444,58576385,-686,-2519,3215,-31,18,13
2,445,58583831,-686,-2519,3215,-18,20,18
2,446,58591278,-680,-2536,3187,7,42,21
2,447,58598724,-669,-2568,3232,14,49,20
2,448,58606170,-706,-2555,3264,15,58,7
2,449,58613616,-706,-2555,3264,13,62,5
2,450,58621154,-735,-2504,3269,22,50,5
2,451,58628601,-816,-2449,3302,26,39,7
2,452,58636047,-855,-2430,3349,-6,23,3
2,453,58643493,-855,-2430,3349,-12,17,6
2,454,58650939,-840,-2441,3391,-19,-28,11
2,455,58658477,-812,-2480,3358,-21,-45,10
2,456,58665954,-780,-2512,3254,-26,-37,3
2,457,58673400,-782,-2508,3214,-31,29,-11
2,458,58680847,-782,-2508,3214,-19,30,-8
2,459,58688293,-754,-2502,3226,-4,26,-11
2,460,58695831,-747,-2515,3203,-5,38,-19
2,461,58703277,-746,-2509,3248,-9,45,-22
2,462,58710845,-746,-2509,3248,-2,37,-25
2,463,58718292,-758,-2495,3271,10,23,-21
2,464,58725738,-754,-2493,3245,11,23,-19
2,465,58733215,-731,-2493,3276,5,20,-19
2,466,58740661,-731,-2493,3276,0,16,-18
2,467,58748107,-732,-2488,3279,-1,-12,-9
2,468,58755584,-725,-2482,3218,4,-12,-6
2,469,58763061,-729,-2481,3176,11,-9,-2
2,470,58770507,-729,-2481,3176,13,-9,0
2,471,58777954,-735,-2471,3190,11,2,7
2,472,58785400,-752,-2465,3212,5,12,7
2,473,58792846,-752,-2464,3219,14,7,16
2,474,58800384,-752,-2464,3219,26,7,19
2,475,58807830,-765,-2514,3233,27,31,6
2,476,58815277,-797,-2541,3318,19,55,-5
2,477,58822723,-793,-2516,3421,7,51,-17
2,478,58830169,-793,-2516,3421,11,23,-16
2,479,58837615,-776,-2503,3372,12,3,-16
2,480,58845062,-753,-2490,3275,8,-3,-17
2,481,58852508,-760,-2497,3210,8,2,-20
2,482,58859954,-760,-2497,3210,13,12,-23
2,483,58867401,-760,-2474,3194,27,17,-13
2,484,58874847,-759,-2461,3228,30,20,-12
2,485,58882293,-740,-2465,3258,30,12,-5
2,486,58889739,-740,-2465,3258,25,-1,-1
2,487,58897186,-729,-2483,3275,18,-35,7
2,488,58904632,-731,-2503,3257,17,-41,6
2,489,58912078,-742,-2514,3243,3,-36,10
2,490,58919525,-742,-2514,3243,-12,-25,10
2,491,58926971,-756,-2496,3269,-18,-23,3
2,492,58934417,-781,-2461,3280,-3,-22,-1
2,493,58941864,-791,-2453,3244,10,9,-1
2,494,58949310,-791,-2453,3244,12,33,0
2,495,58956756,-797,-2466,3292,-3,36,-3
2,496,58964202,-783,-2474,3346,-4,8,-4
2,497,58971649,-805,-2473,3259,-3,4,-10
2,498,58979095,-805,-2473,3259,-2,26,-9
2,499,58986541,-755,-2483,3231,11,47,-9
2,500,58993988,-746,-2490,3259,10,40,-8
2,501,59001434,-723,-2498,3260,13,11,-9
2,502,59008880,-723,-2498,3260,18,0,-8
2,503,59016326,-730,-2504,3224,20,12,-11
2,504,59023773,-749,-2495,3250,19,19,-11
2,505,59031219,-751,-2488,3296,16,8,-5
2,506,59038665,-751,-2488,3296,10,1,-6
2,507,59046112,-766,-2497,3305,-14,10,-9
2,508,59053558,-777,-2474,3340,-26,17,-12
2,509,59061004,-763,-2461,3364,-31,-5,-4
2,510,59075897,-766,-2463,3312,-33,-18,-3
2,511,59083343,-775,-2472,3244,-29,-14,-2
2,512,59090789,-769,-2491,3219,-14,-7,-2
2,513,59098236,-769,-2491,3219,-8,0,-1
2,514,59105682,-763,-2506,3254,-7,4,-13
2,515,59113128,-766,-2514,3289,-7,5,-16
2,516,59120574,-763,-2512,3323,-24,7,-19
2,517,59128021,-763,-2512,3323,-32,-2,-18
2,518,59135467,-758,-2480,3315,-42,-29,-14
2,519,59142913,-731,-2471,3260,-40,-32,-11
2,520,59150360,-693,-2445,3189,-29,-35,-3
2,521,59157806,-693,-2445,3189,-20,-26,5
2,522,59165283,-690,-2434,3129,-10,-23,21
2,523,59172729,-660,-2435,3079,-4,-17,35
2,524,59180175,-618,-2436,3007,19,-21,59
2,525,59195068,-616,-2307,2755,129,100,143
2,526,59202514,-612,-2084,2061,230,256,178
2,527,59209960,-743,-1953,1541,564,740,227
2,528,59217407,-743,-1953,1541,716,1013,249
2,529,59224884,-646,-1882,1654,1075,1263,266
2,530,59232391,-487,-1883,1471,1144,1367,396
2,531,59239837,-667,-1901,1190,1211,1858,578
2,532,59247283,-667,-1901,1190,1208,1978,580
2,533,59254730,-964,-1748,1556,1491,2025,511
2,534,59262176,-1345,-1441,1451,1704,2116,510
2,535,59277069,-1503,-1563,1545,2052,2440,507
2,536,59284515,-1619,-1767,2201,2102,2469,501
2,537,59291961,-1535,-2069,3220,2147,2337,457
2,538,59299407,-3103,-743,11052,2236,-10193,584
2,539,59306854,-3103,-743,11052,1429,-14274,-136
2,540,59314300,-2123,-4246,4866,749,-11269,-738
2,541,59321746,-301,-3205,1242,642,-9223,-788
2,542,59329193,1371,-876,6789,-1038,-7242,-235
2,543,59336639,1371,-876,6789,-346,-4816,175
2,544,59344085,-608,-2829,2083,159,-1054,-158
2,545,59351531,-463,-2502,4057,115,-783,-129
2,546,59358978,-180,-1741,4643,33,-621,-5
2,547,59366424,-180,-1741,4643,-74,-441,39
2,548,59373870,-453,-1841,3800,-182,192,-40
2,549,59381317,-233,-1815,4035,-232,371,-56
2,550,59396209,113,-1861,4467,-573,1099,30
2,551,59403656,455,-2069,4204,-738,2029,99
2,552,59411102,503,-2171,3705,-792,2633,145
2,553,59418548,73,-2238,3429,-827,4055,243
2,554,59425994,73,-2238,3429,-888,4911,235
2,555,59433441,-757,-2331,2781,-924,7242,155
2,556,59440887,-1215,-2624,2071,-913,8388,45
2,557,59448333,-1276,-2140,6536,-910,7754,-136
2,558,59455780,-1276,-2140,6536,-1006,5143,-170
2,559,59463226,-809,-1942,9277,-1301,-272,-359
2,560,59470672,-911,-2573,6524,-1568,-2088,-510
2,561,59478210,-1019,-2485,2903,-2139,-3032,-702
2,562,59485656,-1019,-2485,2903,-2253,-2607,-661
2,563,59493103,-936,-2004,1142,-1987,-1330,-550
2,564,59500549,-885,-1262,-875,-1622,-132,-383
2,565,59515441,-502,-1169,-1218,-188,2566,9
2,566,59522949,-258,-1259,23,260,2668,190
2,567,59530395,-271,-1300,346,415,2770,227
2,568,59537841,-296,-1550,598,865,2873,312
2,569,59545288,-296,-1550,598,1079,2868,478
2,570,59552734,-407,-1702,1241,1428,2644,657
2,571,59560180,-592,-1828,1252,1573,2587,733
2,572,59567687,-635,-1989,1077,2033,2699,741
2,573,59575134,-635,-1989,1077,2184,2735,838
2,574,59582580,-1038,-1912,1030,2395,3106,1059
2,575,59590026,-1410,-2154,1369,2644,3091,1085
2,576,59597473,-3806,-911,6280,3316,-5224,1347
2,577,59604919,-3806,-911,6280,2952,-3062,887
2,578,59612457,-1673,-3441,5388,-212,-7854,-718
2,579,59619903,-2557,-2298,5319,-1567,-10670,-1171
2,580,59634887,-1290,-1934,311,620,-1344,-84
2,581,59642333,-2186,-1576,5153,420,345,-5
2,582,59649780,-1728,-2025,6090,401,695,69
2,583,59657318,-1277,-2054,5054,168,1554,169
2,584,59664764,-1277,-2054,5054,52,2046,198
2,585,59672210,-1484,-1855,4172,141,2943,252
2,586,59679656,-1540,-1842,3723,182,3209,291
2,587,59687103,-1609,-1974,3117,150,3678,310
2,588,59694549,-1609,-1974,3117,130,3973,280
2,589,59701995,-1800,-2090,3160,215,3537,19
2,590,59709472,-1998,-1711,5023,197,2696,-36
2,591,59716918,-1622,-1640,6197,-90,209,-108
2,592,59724365,-1622,-1640,6197,-354,-788,-226
2,593,59731811,-1313,-1996,3866,-562,-694,-268
2,594,59739257,-1321,-2027,714,-478,274,-270
2,595,59754455,-1714,-1755,662,20,2071,-336
2,596,59761901,-1550,-1588,1408,419,1999,-351
2,597,59769348,-1185,-1880,1390,573,2017,-313
2,598,59776794,-1435,-2276,929,1064,2411,-406
2,599,59784240,-1435,-2276,929,1168,2710,-417
2,600,59791687,-1426,-1322,2344,1020,2565,-226
2,601,59799133,-1517,-836,2514,1068,2666,-91
2,602,59806579,-4353,-2675,10704,-783,-6751,-1336
2,603,59814025,-4353,-2675,10704,-1442,-8765,-1932
2,604,59821472,-634,-1564,-770,-15,-3317,-221
2,605,59828918,-1216,-1283,1238,-260,-2653,-10
2,606,59836395,-2798,-1913,3768,-5,-1323,209
2,607,59843933,-2798,-1913,3768,85,-910,113
2,608,59851379,-2359,-1938,4600,-12,-276,51
2,609,59858825,-1871,-1686,4517,-50,62,118
2,610,59873718,-1999,-1867,4092,-37,1071,114
2,611,59881256,-1928,-1966,4048,-76,1533,103
2,612,59888702,-1857,-1959,4393,-117,1582,89
2,613,59896148,-2026,-2003,4362,-140,1629,64
2,614,59903594,-2026,-2003,4362,-162,1837,7
2,615,59911041,-2079,-2076,3745,-300,2896,39
2,616,59918487,-2381,-2461,3260,-318,3422,49
2,617,59925994,-2179,-2449,6122,-467,2522,-265
2,618,59933441,-2179,-2449,6122,-801,409,-354
2,619,59940887,-1523,-1087,7940,-1321,-1984,-393
2,620,59948333,-1596,-1700,4745,-1427,-2287,-302
2,621,59955780,-1603,-2207,3173,-1512,-2409,-298
2,622,59963226,-1603,-2207,3173,-1536,-2450,-354
2,623,59970733,-1516,-1925,1251,-1329,688,-145
2,624,59978179,-2564,-549,-6371,-664,8119,591
2,625,59993072,-1217,-1626,5315,-107,918,5
2,626,60000518,-1228,-1327,2087,-18,579,146
2,627,60007965,-611,-1375,-1346,150,1171,221
2,628,60015472,-713,-1133,1399,397,-976,403
2,629,60022949,-713,-1133,1399,679,976,495
2,630,60030395,-871,-1859,-633,963,654,373
2,631,60037841,-1535,-1618,3379,1137,-348,424
2,632,60045379,-2324,-2059,3145,1513,-793,559
2,633,60052825,-2324,-2059,3145,1296,-1081,353
2,634,60060363,-2430,-2011,3257,905,-665,331
2,635,60067810,-2305,-2054,1534,1047,772,395
2,636,60075256,-1084,-2925,5461,970,1524,214
2,637,60082794,-1084,-2925,5461,869,-86,280
2,638,60090240,-4179,-2502,10146,-315,-3530,-588
2,639,60097686,-3800,-1414,5869,-598,-2825,-424
2,640,60112579,-1640,-1973,3223,-376,-36,345
2,641,60120025,-3263,-1628,4066,-483,21,283
2,642,60127471,-2893,-1906,4660,-580,-393,117
2,643,60134918,-2132,-1837,3548,-602,-783,-47
2,644,60142364,-2132,-1837,3548,-600,-693,-39
2,645,60149810,-1772,-1840,2472,-562,-175,53
2,646,60157257,-1985,-1833,2249,-475,58,65
2,647,60164703,-2077,-1747,2484,-331,198,33
2,648,60172149,-2077,-1747,2484,-295,107,7
2,649,60179595,-2016,-1729,2795,-296,-291,-31
2,650,60187133,-2012,-1759,2931,-308,-384,-53
2,651,60194610,-1810,-1881,2965,-338,-844,-100
2,652,60202056,-1810,-1881,2965,-330,-794,-115
2,653,60209503,-1712,-1940,2540,-326,-390,-135
2,654,60216949,-2163,-2260,4036,-311,-587,-180
2,655,60231842,-1684,-2185,3281,-427,-893,-367
2,656,60239288,-1846,-2146,6595,-722,-3971,-549
2,657,60246734,-1973,-2373,3960,-849,-3666,-646
2,658,60254180,-1761,-2033,2167,-961,-2447,-514
2,659,60261627,-1761,-2033,2167,-886,-1954,-433
2,660,60269073,-1723,-1856,2201,-602,-816,-263
2,661,60276519,-1705,-1825,2361,-471,-466,-196
2,662,60283966,-1529,-1941,2800,-361,-221,-147
2,663,60291412,-1529,-1941,2800,-351,-200,-144
2,664,60298858,-1355,-1970,2977,-350,-307,-166
2,665,60306304,-1280,-1969,2940,-337,-386,-166
2,666,60313751,-1209,-2020,2856,-292,-391,-137
2,667,60321197,-1209,-2020,2856,-271,-369,-119
2,668,60328643,-1211,-2118,3099,-273,-386,-100
2,669,60336120,-1275,-2244,3544,-294,-453,-108
2,670,60351013,-1326,-2340,3781,-440,-803,-189
2,671,60358459,-1352,-2389,3723,-619,-1007,-306
2,672,60365905,-1282,-2282,3374,-649,-1024,-331
2,673,60373352,-1135,-2122,2941,-613,-957,-308
2,674,60380798,-1135,-2122,2941,-547,-830,-257
2,675,60388244,-1169,-2074,2719,-427,-601,-179
2,676,60395751,-1176,-2032,2711,-378,-527,-144
2,677,60403198,-1028,-2086,2612,-284,-434,-60
2,678,60410644,-1028,-2086,2612,-244,-358,-45
2,679,60418090,-1000,-2157,2597,-165,-245,-24
2,680,60425537,-982,-2174,2729,-115,-197,-5
2,681,60432983,-919,-2252,2813,4,-59,19
2,682,60440429,-919,-2252,2813,37,54,29
2,683,60447875,-1136,-2315,3105,40,150,0
2,684,60455322,-1340,-2434,3744,-3,82,-33
2,685,60470214,-1150,-2443,3744,-123,-139,-52
2,686,60477661,-1006,-2479,3449,-164,-153,-52
2,687,60485107,-1036,-2459,3400,-196,-169,-45
2,688,60492553,-1038,-2417,3315,-230,-190,-44
2,689,60500000,-1038,-2417,3315,-228,-198,-40
2,690,60507446,-1008,-2365,3197,-202,-214,-25
2,691,60514892,-1012,-2326,3056,-176,-201,-17
2,692,60522338,-1001,-2310,3011,-115,-190,12
2,693,60529785,-1001,-2310,3011,-89,-177,20
2,694,60537231,-983,-2313,3012,-53,-171,34
2,695,60544677,-1003,-2326,3089,-37,-169,38
2,696,60552124,-1049,-2392,3260,-24,-181,48
2,697,60559570,-1049,-2392,3260,-31,-193,40
2,698,60567016,-1118,-2475,3477,-43,-284,3
2,699,60574462,-1098,-2494,3597,-76,-350,-3
2,700,60589355,-1085,-2561,3470,-151,-348,-50
2,701,60596801,-828,-2962,3082,-165,-60,-166
2,702,60604278,-838,-2325,4073,-219,-471,-125
2,703,60611724,-1424,-2110,3224,-266,-681,-109
2,704,60619232,-1424,-2110,3224,-262,-482,-114
2,705,60626678,-1212,-2163,2691,-166,-240,-49
2,706,60634124,-970,-2242,2816,-99,-121,-10
2,707,60641571,-888,-2403,3049,-39,62,14
2,708,60649017,-888,-2403,3049,-45,31,12
2,709,60656463,-826,-2466,3356,-66,-126,8
2,710,60663909,-899,-2489,3280,-64,-150,4
2,711,60671356,-1015,-2464,3277,-75,-105,-11
2,712,60678802,-1015,-2464,3277,-79,-105,-13
2,713,60686248,-1030,-2433,3380,-96,-124,-25
2,714,60693695,-952,-2437,3327,-99,-146,-26
2,715,60708587,-915,-2478,3166,-86,-91,-35
2,716,60716033,-942,-2496,3199,-95,-70,-54
2,717,60723480,-954,-2480,3337,-106,-97,-63
2,718,60730926,-900,-2460,3290,-118,-132,-61
2,719,60738403,-900,-2460,3290,-123,-126,-67
2,720,60745849,-849,-2419,3235,-117,-173,-52
2,721,60753295,-899,-2431,3125,-96,-179,-43
2,722,60760742,-942,-2406,3028,-71,-145,-40
2,723,60768188,-942,-2406,3028,-51,-109,-39
2,724,60775634,-957,-2426,3113,-28,-53,-35
2,725,60783142,-914,-2444,3285,-26,-66,-37
2,726,60790588,-851,-2452,3304,-37,-83,-30
2,727,60798034,-851,-2452,3304,-57,-78,-35
2,728,60805480,-866,-2492,3327,-72,-149,-43
2,729,60812927,-880,-2501,3269,-67,-166,-45
2,730,60827880,-858,-2501,3222,-77,-147,-54
2,731,60835327,-839,-2449,3231,-67,-141,-38
2,732,60842773,-799,-2404,3174,-59,-139,-25
2,733,60850219,-808,-2389,3098,-36,-123,6
2,734,60857666,-808,-2389,3098,-25,-100,18
2,735,60865112,-891,-2459,3133,-44,-47,2
2,736,60872558,-878,-2475,3333,-60,-88,-4
2,737,60880096,-817,-2448,3299,-75,-182,-2
2,738,60887542,-817,-2448,3299,-78,-207,4
2,739,60894989,-805,-2424,3141,-69,-199,17
2,740,60909881,-784,-2493,3108,-18,-130,40
2,741,60917419,-784,-2493,3108,-2,-121,43
2,742,60924865,-802,-2530,3198,16,-69,38
2,743,60932312,-880,-2608,3331,5,-24,20
2,744,60939788,-889,-2596,3483,-28,-40,-18
2,745,60947235,-889,-2596,3483,-28,-64,-30
2,746,60954681,-881,-2562,3441,-47,-59,-46
2,747,60962127,-857,-2505,3383,-43,-71,-46
2,748,60969573,-818,-2488,3243,-34,-83,-35
2,749,60977020,-818,-2488,3243,-28,-45,-33
2,750,60984466,-822,-2501,3181,-23,8,-34
2,751,60991912,-791,-2487,3278,-20,-8,-28
2,752,60999359,-807,-2498,3293,-31,-34,-32
2,753,61006835,-807,-2498,3293,-42,-43,-32
2,754,61014282,-813,-2480,3248,-54,-32,-36
2,755,61029174,-750,-2461,3198,-47,-40,-22
2,756,61036621,-750,-2461,3198,-39,-44,-12
2,757,61044067,-720,-2485,3128,-15,-33,11
2,758,61051544,-748,-2522,3138,-2,-21,16
2,759,61058990,-806,-2546,3259,-6,1,2
2,760,61066436,-806,-2546,3259,-2,-24,1
2,761,61073883,-815,-2528,3267,2,7,-6
2,762,61081420,-835,-2541,3270,-2,20,-15
2,763,61088867,-831,-2539,3345,-20,-6,-28
2,764,61096313,-831,-2539,3345,-25,-24,-34
2,765,61103759,-802,-2552,3300,-44,-47,-39
2,766,61111206,-768,-2525,3266,-51,-66,-36
2,767,61118713,-778,-2505,3229,-52,-65,-32
2,768,61126159,-778,-2505,3229,-54,-63,-32
2,769,61133605,-769,-2483,3204,-40,-63,-19
2,770,61148529,-777,-2493,3144,-17,-29,-15
2,771,61155975,-777,-2493,3144,-7,-32,-9
2,772,61163421,-770,-2495,3185,8,-48,-4
2,773,61170867,-764,-2511,3203,11,-43,-2
2,774,61178314,-764,-2510,3230,6,-46,-5
2,775,61185791,-764,-2510,3230,6,-45,-2
2,776,61193237,-770,-2525,3218,-1,-3,-11
2,777,61200683,-809,-2540,3274,-21,13,-22
2,778,61208129,-724,-2523,3322,-29,-19,-17
2,779,61215576,-724,-2523,3322,-33,-25,-16
2,780,61223083,-725,-2529,3295,-59,-76,-10
2,781,61230712,-755,-2518,3245,-64,-101,-7
2,782,61238159,-806,-2519,3191,-37,-87,-6
2,783,61245605,-806,-2519,3191,-35,-60,-8
2,784,61253051,-869,-2553,3296,-70,-20,-30
2,785,61267944,-792,-2519,3237,-80,-68,-52
2,786,61275451,-792,-2519,3237,-68,-47,-45
2,787,61282928,-755,-2511,3133,-54,-15,-37
2,788,61290374,-709,-2536,3256,-57,-44,-33
2,789,61297821,-637,-2517,3183,-52,-71,-17
2,790,61305267,-637,-2517,3183,-43,-70,-7
2,791,61312713,-677,-2531,3119,-33,-48,6
2,792,61320220,-743,-2573,3181,-43,-35,5
2,793,61327667,-743,-2587,3293,-66,-46,-12
2,794,61335113,-743,-2587,3293,-71,-72,-19
2,795,61342559,-725,-2550,3300,-89,-101,-17
2,796,61350006,-716,-2510,3257,-85,-113,-19
2,797,61357452,-797,-2510,3168,-59,-110,-20
2,798,61364898,-797,-2510,3168,-47,-74,-19
2,799,61372344,-801,-2494,3131,-8,-30,-5
2,800,61387237,-703,-2552,3254,-11,0,3
2,801,61394683,-703,-2552,3254,-40,-6,-4
2,802,61402130,-676,-2543,3319,-56,-68,-3
2,803,61409576,-710,-2529,3111,-29,-63,0
2,804,61417022,-789,-2556,2985,24,27,-3
2,805,61424468,-789,-2556,2985,37,47,-1
2,806,61431915,-759,-2610,3225,-6,7,-6
2,807,61439361,-740,-2630,3372,-40,-27,-7
2,808,61446807,-726,-2582,3344,-76,-65,-8
2,809,61454254,-726,-2582,3344,-67,-75,-10
2,810,61461700,-701,-2539,3274,-35,-47,-8
2,811,61469146,-677,-2535,3246,-24,-21,-14
2,812,61476593,-673,-2519,3323,-65,-1,-21
2,813,61484039,-673,-2519,3323,-70,-37,-15
2,814,61491485,-661,-2475,3211,-76,-56,10
2,815,61506378,-669,-2468,2999,-48,-7,27
2,816,61513824,-669,-2468,2999,-30,-2,49
2,817,61521270,-678,-2511,3162,-46,-57,46
2,818,61528717,-719,-2546,3193,-56,-76,42
2,819,61536163,-728,-2553,3153,-5,-46,58
2,820,61543609,-728,-2553,3153,-17,-27,56
2,821,61551086,-705,-2605,3223,-36,-32,34
2,822,61558532,-682,-2610,3213,-29,-36,33
2,823,61565979,-659,-2600,3173,0,-35,42
2,824,61573425,-659,-2600,3173,11,-34,42
2,825,61580871,-674,-2599,3175,27,-20,39
2,826,61588317,-714,-2581,3204,27,-6,36
2,827,61595764,-721,-2543,3251,25,-15,37
2,828,61603210,-721,-2543,3251,25,-23,38
2,829,61610656,-732,-2534,3246,16,-13,43
2,830,61625549,-710,-2552,3213,1,-15,34
2,831,61632995,-710,-2552,3213,10,-21,38
2,832,61640441,-692,-2574,3179,25,-22,38
2,833,61647888,-698,-2579,3171,35,-10,44
2,834,61655334,-741,-2590,3262,44,-16,31
2,835,61662780,-741,-2590,3262,43,-27,25
2,836,61670227,-762,-2587,3247,50,-17,13
2,837,61677673,-753,-2580,3253,54,-11,12
2,838,61685119,-770,-2571,3310,44,-4,-4
2,839,61692565,-770,-2571,3310,40,-8,-9
2,840,61700012,-752,-2549,3281,40,-7,-8
2,841,61707458,-748,-2547,3235,35,2,-9
2,842,61714904,-737,-2542,3239,28,20,-13
2,843,61722351,-737,-2542,3239,21,21,-14
2,844,61729797,-720,-2535,3250,10,5,-18
2,845,61744689,-751,-2500,3202,4,0,-10
2,846,61752136,-751,-2500,3202,-2,11,-12
2,847,61759582,-760,-2508,3244,-12,12,-11
2,848,61767028,-750,-2504,3266,-8,2,-8
2,849,52830261,504,-2616,3254,999,-1842,317
2,850,52837707,501,-2349,957,1677,-571,353
2,851,52845153,474,-2315,1242,1952,-395,400
2,852,52852600,90,-2254,540,2530,685,332
2,853,52860046,90,-2254,540,2798,1249,350
2,854,52867492,224,-1969,3770,860,7744,495
2,855,52874938,443,-986,11979,-1102,6534,202
2,856,52882385,1230,-1608,4986,-283,4235,1367
2,857,52889831,1230,-1608,4986,644,2646,1448
2,858,52897277,-703,-5234,5328,953,658,862
2,859,52904724,-1359,-4785,6812,386,530,611
2,860,52919616,-1487,-4016,6518,-593,-573,-255
2,861,52927154,-305,-3451,5972,-1130,-1350,-91
2,862,52934600,-258,-3221,3672,-1354,-1376,-112
2,863,52942047,-578,-2315,404,990,4902,493
2,864,52949493,-578,-2315,404,1537,3818,402
2,865,52957000,-492,-2519,4724,1249,780,236
2,866,52964447,308,-2903,4419,652,-1090,248
2,867,52971893,-820,-2747,2726,-1381,-2391,-49
2,868,52979339,-820,-2747,2726,-1686,-2934,-332
2,869,52986785,-704,-2164,-64,-993,-2084,-321
2,870,52994232,-223,-1935,-1199,-437,-1033,-194
2,871,53001678,-216,-2065,-23,628,688,-10
2,872,53009124,-216,-2065,-23,987,1138,103
2,873,53016571,-650,-1871,2259,-789,4740,40
2,874,53024017,1444,-1245,9072,-1914,3918,750
2,875,53038909,-376,-4027,6762,-1005,-708,-220
2,876,53046356,-557,-3456,4806,-1030,-1610,-355
2,877,53053802,-121,-2987,3133,-978,-1236,-334
2,878,53061340,-51,-2969,2452,-783,-65,-279
2,879,53068817,-51,-2969,2452,-749,-31,-264
2,880,53076263,-237,-2859,3237,-763,-53,-313
2,881,53083709,-401,-2597,3058,-774,-166,-330
2,882,53091156,-227,-2700,2619,-838,-241,-344
2,883,53098602,-227,-2700,2619,-848,-190,-346
2,884,53106048,43,-2778,2529,-758,-322,-301
2,885,53113494,162,-2866,2539,-702,-385,-288
2,886,53120941,226,-2960,2151,-635,-259,-287
2,887,53128387,226,-2960,2151,-619,-69,-348
2,888,53135833,247,-2855,1996,-588,131,-399
2,889,53143280,-193,-2612,2278,-540,229,-359
2,890,53158172,-290,-2894,2647,-317,344,-277
2,891,53165618,167,-3232,2772,-267,119,-283
2,892,53173065,563,-3274,2395,-253,41,-271
2,893,53180511,521,-3094,2130,-228,32,-230
2,894,53187957,521,-3094,2130,-204,71,-190
2,895,53195404,314,-2893,2162,-110,181,-103
2,896,53202850,205,-2866,2407,-65,179,-76
2,897,53210296,183,-2935,2527,20,155,-46
2,898,53217742,183,-2935,2527,69,134,-42
2,899,53225189,163,-2914,2528,175,149,-45
2,900,53232635,239,-2869,2457,224,158,-9
2,901,53240081,276,-3043,2440,239,142,63
2,902,53247528,276,-3043,2440,241,199,82
2,903,53254974,189,-3235,2679,239,245,81
2,904,53262420,-96,-3364,3253,205,166,61
2,905,53277313,-335,-3360,3419,70,60,-52
2,906,53284759,-290,-3172,3283,50,-68,-111
2,907,53292205,-118,-2924,3055,26,-213,-125
2,908,53299652,141,-2919,2472,-1,-180,-102
2,909,53307098,141,-2919,2472,27,-62,-73
2,910,53321990,262,-3101,2876,82,-39,-13
2,911,53329437,15,-3037,2942,68,-81,-9
2,912,53336883,15,-3037,2942,88,6,6
2,913,53344329,-14,-3027,2937,74,38,13
2,914,53351776,61,-3073,3043,52,2,4
2,915,53359222,55,-3033,2913,42,-14,0
2,916,53366668,55,-3033,2913,45,-1,11
2,917,53374114,36,-3021,2780,45,68,8
2,918,53381561,22,-3070,2893,35,75,0
2,919,53389007,68,-3133,3008,43,5,-14
2,920,53396453,68,-3133,3008,44,-27,-32
2,921,53403900,17,-3052,2903,49,-25,-36
2,922,53411346,20,-2975,2816,51,1,-32
2,923,53418792,37,-3033,2948,34,-10,-41
2,924,53426239,37,-3033,2948,18,-67,-48
2,925,53441131,36,-3025,2909,-11,-81,-55
2,926,53448577,95,-3002,2913,-45,-129,-50
2,927,53456024,95,-3002,2913,-46,-141,-44
2,928,53463470,99,-2958,2807,-14,-63,-16
2,929,53470916,82,-2961,2753,-3,-11,-1
2,930,53478363,78,-3022,2891,-12,47,12
2,931,53485809,78,-3022,2891,-22,58,9
2,932,53493316,48,-3062,3019,-19,46,6
2,933,53500762,66,-3076,3003,-25,34,0
2,934,53508209,108,-3071,2905,-37,17,-5
2,935,53515655,108,-3071,2905,-36,10,-13
2,936,53523101,86,-3062,2863,-30,17,-17
2,937,53530548,63,-3030,2860,-24,18,-15
2,938,53538055,47,-3023,2874,-29,9,-19
2,939,53545501,47,-3023,2874,-28,-4,-19
2,940,53560394,-16,-3002,2860,-45,-16,-35
2,941,53567840,87,-2996,2778,-32,-36,-26
2,942,53575286,87,-2996,2778,-23,-32,-22
2,943,53582824,160,-3032,2708,3,-37,-11
2,944,53590270,184,-3030,2633,25,-35,-4
2,945,53597717,205,-3019,2596,71,42,22
2,946,53605163,205,-3019,2596,85,68,29
2,947,53612609,94,-3061,2844,87,26,19
2,948,53620056,-12,-3017,2939,85,2,13
2,949,53627502,16,-2969,2782,92,5,12
2,950,53634948,16,-2969,2782,94,14,12
2,951,53642486,62,-2957,2604,153,33,29
2,952,53649932,206,-2839,2210,211,77,58
2,953,53657379,249,-2535,1982,445,175,49
2,954,53664825,249,-2535,1982,623,247,103
2,955,53679748,378,-2663,1807,933,517,272
2,956,53687194,265,-2699,1504,1173,470,276
2,957,53694641,265,-2699,1504,1284,876,265
2,958,53702087,34,-2505,375,1495,1935,424
2,959,53709533,602,-2154,774,1648,2143,587
2,960,53716979,332,-2256,1933,1829,1613,663
2,961,53724426,332,-2256,1933,1828,1437,707
2,962,53731872,-305,-2043,1080,2024,2106,753
2,963,53739318,-401,-1962,950,2255,2506,860
2,964,53746826,-700,-2403,5314,2788,3020,1021
