event_id,seq,ts_ms,ax,ay,az,gx,gy,gz
1,0,436926,715,-1367,3998,76,-309,-44
1,1,436933,715,-1367,3998,95,-259,-17
1,2,436940,639,-1374,3969,88,-155,50
1,3,436948,499,-1531,3860,69,-133,64
1,4,436955,416,-1609,3817,46,-150,46
1,5,436963,416,-1609,3817,38,-155,33
1,6,436970,295,-1628,3817,36,-132,-13
1,7,436978,209,-1574,3877,36,-108,-34
1,8,436985,38,-1507,3998,0,-106,-97
1,9,436993,38,-1507,3998,-26,-133,-145
1,10,437000,47,-1579,3880,-34,-92,-230
1,11,437007,239,-1593,3664,-22,-85,-226
1,12,437015,587,-1383,3729,-9,-111,-197
1,13,437022,587,-1383,3729,0,-145,-189
1,14,437030,737,-1379,3936,1,-209,-165
1,15,437037,819,-1373,3912,12,-198,-117
1,16,437045,816,-1441,3862,33,-144,-28
1,17,437052,816,-1441,3862,27,-93,1
1,18,437060,764,-1514,3823,29,-49,54
1,19,437067,568,-1553,3758,29,-50,51
1,20,437075,389,-1552,3728,37,-92,12
1,21,437082,389,-1552,3728,45,-117,-5
1,22,437089,388,-1497,3788,60,-157,-24
1,23,437097,415,-1490,3800,60,-188,-38
1,24,437104,471,-1494,3841,73,-238,-54
1,25,437112,471,-1494,3841,71,-258,-55
1,26,437119,537,-1486,3909,54,-250,-50
1,27,437127,592,-1459,3926,55,-219,-43
1,28,437134,581,-1455,3980,50,-156,-29
1,29,437142,581,-1455,3980,41,-114,-16
1,30,437149,648,-1477,4043,29,-58,8
1,31,437156,753,-1559,3991,20,-21,18
1,32,437164,616,-1500,3902,5,36,30
1,33,437171,616,-1500,3902,2,49,31
1,34,437179,518,-1488,3825,1,3,19
1,35,437186,506,-1488,3778,2,-28,9
1,36,437194,528,-1482,3798,1,-50,1
1,37,437201,528,-1482,3798,3,-29,-1
1,38,437209,560,-1518,3867,8,-17,-11
1,39,437216,587,-1521,3939,14,-22,-12
1,40,437223,647,-1555,3975,11,-30,3
1,41,437231,647,-1555,3975,9,-11,9
1,42,437238,725,-1542,3995,16,96,35
1,43,437246,689,-1522,3953,13,130,44
1,44,437253,570,-1521,3916,-6,151,40
1,45,437261,570,-1521,3916,-17,145,32
1,46,437268,460,-1514,3901,-38,168,8
1,47,437276,390,-1435,3835,-64,204,-6
1,48,437283,57,-1482,3780,-162,351,-73
1,49,437290,57,-1482,3780,-233,492,-176
1,50,437298,-74,-1290,3829,-256,441,-174
1,51,437305,592,-1360,3851,-261,497,-169
1,52,437313,777,-1541,3918,-297,552,-63
1,53,437320,777,-1541,3918,-378,734,-142
1,54,437328,268,-1463,4054,-509,938,-124
1,55,437335,541,-1408,4150,-554,1049,-108
1,56,437343,667,-1545,4368,-660,1236,-34
1,57,437350,667,-1545,4368,-738,1385,-17
1,58,437358,591,-1241,4791,-976,1545,121
1,59,437365,431,-1182,5939,-1166,1379,145
1,60,437372,509,-1436,6755,-1685,368,167
1,61,437380,509,-1436,6755,-1941,93,168
1,62,437387,377,-1870,5838,-2344,142,145
1,63,437395,224,-2194,5438,-2461,39,144
1,64,437402,264,-2372,5162,-2678,199,53
1,65,437410,264,-2372,5162,-2793,90,4
1,66,437417,298,-2521,5309,-3064,-20,-44
1,67,437425,159,-2484,5750,-3277,-151,-108
1,68,437432,-192,-2411,6205,-3711,-522,-301
1,69,437440,-192,-2411,6205,-3916,-702,-407
1,70,437447,-607,-2464,6225,-4291,-834,-639
1,71,437455,-666,-2772,5919,-4436,-869,-762
1,72,437462,-529,-3327,5268,-4672,-927,-1008
1,73,437470,-529,-3327,5268,-4761,-889,-1162
1,74,437477,-478,-3650,3952,-4845,-727,-1341
1,75,437484,-695,-3208,2391,-4930,-641,-1236
1,76,437492,-628,-2641,1121,-5018,-203,-1085
1,77,437499,-628,-2641,1121,-4941,-41,-1128
1,78,437507,-267,-2035,610,-4652,122,-1000
1,79,437514,-47,-1424,725,-4405,-307,-1018
1,80,437522,291,-1077,250,-3978,-1078,-985
1,81,437529,291,-1077,250,-3785,-1048,-909
1,82,437537,520,-711,-392,-3392,-955,-781
1,83,437544,1103,-711,-113,-3099,-956,-856
1,84,437552,1658,-763,-77,-2274,-1086,-997
1,85,437559,1658,-763,-77,-1788,-802,-893
1,86,437566,1626,-946,-983,-947,215,-374
1,87,437574,1692,-1753,-1060,-636,619,-163
1,88,437581,2012,-2828,-493,-187,765,65
1,89,437589,2012,-2828,-493,-20,758,205
1,90,437596,1967,-3690,-57,145,431,334
1,91,437604,1682,-4384,281,206,376,353
1,92,437611,1216,-4744,758,137,305,432
1,93,437619,1216,-4744,758,121,226,365
1,94,437626,989,-4778,1293,180,83,292
1,95,437633,964,-4411,1295,259,82,266
1,96,437641,958,-3982,1274,438,205,246
1,97,437648,958,-3982,1274,497,272,265
1,98,437656,860,-3668,1347,532,202,278
1,99,437663,678,-3488,1514,521,137,280
1,100,437671,550,-3407,1692,496,-72,293
1,101,437678,550,-3407,1692,482,-103,303
1,102,437686,571,-3417,1452,509,134,369
1,103,437693,667,-3532,1661,537,126,392
1,104,437701,672,-3710,1860,561,91,351
1,105,437708,672,-3710,1860,581,80,311
1,106,437716,499,-3831,2094,591,39,250
1,107,437723,339,-3889,2237,561,19,219
1,108,437731,302,-3888,2330,492,-2,119
1,109,437738,302,-3888,2330,468,-33,72
1,110,437746,333,-3815,2384,441,-43,0
1,111,437753,414,-3704,2225,432,0,-16
1,112,437760,485,-3599,2213,389,53,-38
1,113,437768,520,-3562,2273,301,-33,-56
1,114,437775,520,-3562,2273,252,-41,-67
1,115,437783,476,-3573,2302,173,-36,-78
1,116,437790,496,-3551,2254,147,-24,-72
1,117,437798,648,-3611,2114,110,20,-69
1,118,437805,648,-3611,2114,94,26,-66
1,119,437813,770,-3698,2067,83,0,-78
1,120,437820,774,-3872,2223,78,-8,-99
1,121,437828,543,-3983,2346,41,12,-84
1,122,437835,543,-3983,2346,-46,16,-76
1,123,437842,483,-3874,2313,-167,-123,-159
1,124,437850,674,-3655,2086,-174,-170,-162
1,125,437858,783,-3517,1764,-154,-78,-121
1,126,437865,783,-3517,1764,-144,-38,-98
1,127,437873,833,-3399,1741,-101,-44,-91
1,128,437880,830,-3277,1738,-60,-61,-79
1,129,437887,788,-3309,1741,-9,4,-13
1,130,437895,788,-3309,1741,-1,6,4
1,131,437902,756,-3396,1862,25,12,40
1,132,437910,750,-3468,1883,30,27,71
1,133,437917,735,-3610,2001,-15,-72,73
1,134,437925,735,-3610,2001,-31,-47,68
1,135,437932,676,-3666,2067,-5,0,81
1,136,437940,673,-3687,2043,12,25,78
1,137,437947,763,-3693,1931,23,32,68
1,138,437955,763,-3693,1931,36,-7,63
1,139,437962,845,-3747,1896,69,-39,41
1,140,437970,750,-3815,2029,83,-27,21
1,141,437977,555,-3710,2124,114,21,-5
1,142,437985,555,-3710,2124,122,51,-8
1,143,437992,558,-3582,1987,91,44,37
1,144,438000,626,-3689,1810,-17,-2,98
1,145,438007,846,-3627,2030,-144,-154,20
1,146,438014,846,-3627,2030,-97,-265,4
1,147,438022,743,-3493,1827,47,28,76
1,148,438029,701,-3401,1707,76,117,96
1,149,438037,753,-3371,1835,95,63,101
1,150,438044,753,-3371,1835,105,47,119
1,151,438052,679,-3453,1878,88,1,145
1,152,438059,603,-3621,2059,70,-27,136
1,153,438067,544,-3659,2160,66,-17,119
1,154,438074,544,-3659,2160,69,10,112
1,155,438081,511,-3636,2119,57,51,92
1,156,438089,603,-3616,2064,53,30,86
1,157,438096,664,-3628,2048,36,10,73
1,158,438104,664,-3628,2048,29,-59,64
1,159,438111,662,-3613,1951,45,89,76
1,160,438119,691,-3582,1909,70,147,95
1,161,438126,693,-3565,1970,75,65,88
1,162,438134,693,-3565,1970,75,86,79
1,163,438141,618,-3572,2051,81,17,81
1,164,438149,516,-3568,2119,67,3,75
1,165,438156,464,-3517,2087,33,19,64
1,166,438164,464,-3517,2087,26,24,61
1,167,438171,488,-3502,2048,39,56,62
1,168,438179,612,-3542,1960,55,85,61
1,169,438186,687,-3604,1962,90,94,55
1,170,438193,687,-3604,1962,85,76,59
1,171,438201,647,-3699,1996,44,18,62
1,172,438208,666,-3759,1987,34,-2,55
1,173,438216,671,-3705,1918,74,22,48
1,174,438223,671,-3705,1918,94,50,50
1,175,438231,613,-3620,1927,108,53,43
1,176,438238,566,-3584,2010,103,33,39
1,177,438246,511,-3555,2071,93,-11,32
1,178,438253,511,-3555,2071,89,-15,26
1,179,438261,445,-3540,2115,59,-32,12
1,180,438268,451,-3532,2139,48,-34,7
1,181,438276,527,-3597,2138,30,-19,-8
1,182,438283,527,-3597,2138,24,-25,-25
1,183,438290,545,-3588,2166,41,-1,-53
1,184,438298,560,-3545,2077,63,33,-53
1,185,438305,592,-3592,1997,58,76,-34
1,186,438313,592,-3592,1997,38,37,-42
1,187,438320,676,-3664,2058,27,-49,-52
1,188,438328,665,-3682,2030,28,-32,-47
1,189,438335,641,-3622,2045,44,8,-46
1,190,438343,641,-3622,2045,51,9,-42
1,191,438350,624,-3559,2070,31,-3,-42
1,192,438357,596,-3537,2088,22,-6,-36
1,193,438365,584,-3532,2081,15,3,-25
1,194,438372,584,-3532,2081,10,12,-20
1,195,438380,635,-3543,2034,-1,10,-9
1,196,438387,664,-3620,2119,-8,-8,-13
1,197,438395,574,-3696,2245,-15,-19,-38
1,198,438402,574,-3696,2245,-10,-2,-48
1,199,438410,523,-3652,2220,-7,42,-63
1,200,438417,574,-3591,2122,-13,41,-70
1,201,438424,652,-3574,2039,-23,6,-75
1,202,438432,652,-3574,2039,-26,2,-73
1,203,438439,673,-3586,2029,-28,17,-69
1,204,438447,650,-3590,2069,-27,31,-62
1,205,438454,596,-3541,2082,-36,18,-65
1,206,438462,596,-3541,2082,-47,21,-57
1,207,438469,565,-3466,2045,-72,8,-41
1,208,438477,622,-3487,2007,-79,5,-30
1,209,438484,705,-3562,1963,-78,2,-12
1,210,438491,705,-3562,1963,-70,4,-4
1,211,438499,732,-3621,1970,-54,9,-4
1,212,438506,639,-3641,2045,-47,11,-11
1,213,438514,558,-3655,2114,-29,2,-31
1,214,438521,558,-3655,2114,-21,9,-44
1,215,438529,580,-3638,2055,-10,48,-62
1,216,438536,612,-3585,2002,-4,39,-71
1,217,438544,661,-3551,1961,4,6,-67
1,218,438551,661,-3551,1961,1,17,-60
1,219,438558,631,-3527,1935,-38,18,-12
1,220,438566,648,-3501,1943,-65,0,-3
1,221,438573,711,-3478,1964,-20,-54,-25
1,222,438581,711,-3478,1964,10,0,1
1,223,438588,609,-3497,1925,1,68,16
1,224,438596,618,-3597,2093,-12,16,5
1,225,438603,645,-3673,2097,-7,-35,-9
1,226,438611,645,-3673,2097,3,-8,-18
1,227,438618,605,-3673,2096,13,27,-40
1,228,438626,578,-3594,2087,17,18,-44
1,229,438633,641,-3577,2002,14,35,-49
1,230,438640,641,-3577,2002,9,34,-55
1,231,438648,629,-3590,2047,11,9,-63
1,232,438655,595,-3554,2033,14,9,-62
1,233,438663,632,-3522,1982,10,22,-59
1,234,438670,632,-3522,1982,8,12,-52
1,235,438678,669,-3522,1944,13,21,-40
1,236,438685,697,-3542,1911,24,26,-28
1,237,438693,724,-3641,2000,41,2,-31
1,238,438700,724,-3641,2000,46,-9,-43
1,239,438707,643,-3649,2073,70,29,-53
1,240,438715,596,-3566,2041,79,49,-51
1,241,438722,635,-3533,2006,79,30,-51
1,242,438730,635,-3533,2006,74,13,-49
1,243,438737,693,-3523,1946,70,14,-24
1,244,438745,724,-3487,1880,71,31,-7
1,245,438752,743,-3452,1862,104,30,10
1,246,438760,743,-3452,1862,124,29,29
1,247,438767,777,-3516,1848,143,38,50
1,248,438775,752,-3565,1936,151,35,55
1,249,438782,689,-3525,1954,185,46,75
1,250,438789,689,-3525,1954,203,71,88
1,251,438797,707,-3564,1901,247,45,83
1,252,438805,850,-3869,2085,281,-24,57
1,253,438812,818,-4166,2278,364,-78,-12
1,254,438819,818,-4166,2278,301,-90,59
1,255,438827,418,-4196,2200,-6,-171,42
1,256,438834,606,-3842,2235,-74,-356,-24
1,257,438842,682,-3501,1846,-24,-417,-44
1,258,438849,682,-3501,1846,39,-313,-25
1,259,438857,729,-3303,1709,120,-210,19
1,260,438864,799,-3142,1838,139,-209,33
1,261,438872,786,-2984,1799,179,-126,92
1,262,438879,786,-2984,1799,232,-81,124
1,263,438887,733,-2919,1880,368,-38,172
1,264,438894,699,-3067,2024,427,38,183
1,265,438901,514,-3270,2245,383,1,232
1,266,438909,514,-3270,2245,321,-16,226
1,267,438916,476,-3309,2434,319,-22,172
1,268,438924,430,-3342,2499,360,32,176
1,269,438931,431,-3522,2505,378,103,149
1,270,438939,431,-3522,2505,361,192,119
1,271,438946,443,-3736,2646,220,99,89
1,272,438954,530,-3704,2682,196,64,18
1,273,438961,541,-3586,2463,236,122,-29
1,274,438968,541,-3586,2463,244,213,-18
1,275,438976,543,-3562,2344,152,174,-2
1,276,438983,640,-3624,2440,72,62,-13
1,277,438991,617,-3609,2475,-14,-84,-59
1,278,438998,617,-3609,2475,-20,-61,-57
1,279,439006,504,-3537,2420,-10,49,-56
1,280,439013,557,-3500,2374,-17,56,-65
1,281,439021,666,-3495,2269,-43,18,-78
1,282,439028,666,-3495,2269,-47,15,-75
1,283,439036,718,-3491,2202,-35,42,-65
1,284,439043,700,-3445,2180,-28,54,-51
1,285,439051,706,-3409,2131,-25,37,-28
1,286,439058,706,-3409,2131,-23,22,-20
1,287,439066,744,-3501,2130,3,8,-18
1,288,439073,758,-3600,2224,20,15,-22
1,289,439080,683,-3557,2268,60,50,-30
1,290,439088,683,-3557,2268,71,69,-28
1,291,439095,590,-3426,2243,56,56,-6
1,292,439103,563,-3369,2182,20,32,25
1,293,439110,708,-3398,2139,-64,-9,46
1,294,439118,708,-3398,2139,-44,-52,25
1,295,439125,788,-3374,2153,59,1,56
1,296,439133,612,-3324,2060,65,85,85
1,297,439140,590,-3398,2296,13,22,86
1,298,439148,590,-3398,2296,2,-54,82
1,299,439155,608,-3486,2334,8,-17,88
1,300,439162,590,-3527,2293,15,27,83
1,301,439170,593,-3553,2376,18,-2,60
1,302,439177,593,-3553,2376,14,-20,44
1,303,439185,599,-3550,2318,23,7,30
1,304,439192,594,-3497,2263,25,25,23
1,305,439200,614,-3463,2264,25,23,20
1,306,439207,614,-3463,2264,18,14,19
1,307,439215,597,-3439,2259,6,-5,23
1,308,439222,574,-3388,2232,1,-4,30
1,309,439230,608,-3407,2218,-9,-3,46
1,310,439237,608,-3407,2218,-15,-4,49
1,311,439244,612,-3441,2254,-33,-6,52
1,312,439252,542,-3434,2287,-38,-10,53
1,313,439259,574,-3468,2258,-39,1,57
1,314,439267,574,-3468,2258,-38,5,54
1,315,439274,614,-3511,2254,-34,-9,40
1,316,439282,601,-3516,2251,-28,-9,35
1,317,439289,605,-3537,2257,-11,-6,21
1,318,439297,605,-3537,2257,-7,-2,11
1,319,439304,578,-3530,2293,-1,0,-3
1,320,439312,551,-3463,2244,4,11,-2
1,321,439319,612,-3428,2174,7,21,5
1,322,439326,612,-3428,2174,0,17,5
1,323,439334,610,-3425,2197,-11,2,15
1,324,439341,581,-3411,2204,-11,10,21
1,325,439349,585,-3410,2201,-17,18,36
1,326,439356,585,-3410,2201,-21,13,42
1,327,439364,587,-3452,2188,-18,5,42
1,328,439371,631,-3555,2245,-9,3,36
1,329,439379,561,-3569,2368,1,-3,11
1,330,439386,561,-3569,2368,-3,-7,-3
1,331,439393,428,-3497,2418,-26,-12,-26
1,332,439401,440,-3428,2352,-36,-15,-36
1,333,439408,560,-3422,2243,-53,-4,-36
1,334,439416,560,-3422,2243,-59,-5,-34
1,335,439423,620,-3444,2186,-67,-12,-27
1,336,439431,614,-3456,2198,-66,-13,-24
1,337,439438,602,-3469,2172,-54,6,-17
1,338,439446,602,-3469,2172,-46,14,-12
1,339,439453,636,-3498,2165,-37,14,-14
1,340,439460,633,-3523,2204,-30,9,-21
1,341,439468,587,-3477,2208,-14,39,-19
1,342,439475,587,-3477,2208,-13,42,-16
1,343,439483,556,-3437,2241,-23,10,-19
1,344,439490,612,-3450,2182,-19,5,-15
1,345,439498,662,-3482,2150,-10,23,-7
1,346,439505,662,-3482,2150,-5,16,-4
1,347,439513,643,-3482,2197,0,-4,-1
1,348,439520,619,-3441,2172,4,4,7
1,349,439527,617,-3451,2157,8,29,22
1,350,439535,617,-3451,2157,10,19,23
1,351,439542,635,-3507,2222,15,0,17
1,352,439550,593,-3508,2278,14,6,14
1,353,439557,534,-3455,2266,14,17,15
1,354,439565,534,-3455,2266,14,33,19
1,355,439572,592,-3439,2182,9,25,27
1,356,439580,668,-3477,2176,6,11,27
1,357,439587,629,-3452,2199,11,3,34
1,358,439595,629,-3452,2199,14,16,46
1,359,439602,594,-3419,2181,13,34,61
1,360,439609,589,-3417,2177,7,24,71
1,361,439617,586,-3475,2212,1,16,76
1,362,439624,586,-3475,2212,-8,3,70
1,363,439632,516,-3560,2372,-6,-27,35
1,364,439639,451,-3545,2367,1,-17,27
1,365,439647,542,-3537,2280,10,16,6
1,366,439654,542,-3537,2280,8,15,-5
1,367,439662,617,-3537,2266,3,-8,-21
1,368,439669,603,-3487,2210,13,7,-16
1,369,439677,598,-3432,2182,20,36,-1
1,370,439684,598,-3432,2182,15,28,5
1,371,439691,608,-3406,2175,7,6,22
1,372,439699,609,-3419,2168,2,3,33
1,373,439706,592,-3439,2205,0,-4,43
1,374,439714,592,-3439,2205,3,-2,52
1,375,439721,598,-3436,2175,2,29,68
1,376,439729,563,-3435,2196,-2,27,71
1,377,439736,545,-3495,2272,-10,-13,64
1,378,439744,545,-3495,2272,-6,-21,58
1,379,439751,540,-3548,2310,1,-10,42
1,380,439758,542,-3536,2287,7,0,35
1,381,439766,585,-3518,2227,20,12,26
1,382,439773,585,-3518,2227,20,13,21
1,383,439781,581,-3509,2250,17,3,12
1,384,439788,529,-3452,2254,17,4,16
1,385,439796,521,-3415,2216,15,25,23
1,386,439803,521,-3415,2216,7,-6,27
1,387,439811,563,-3440,2226,-15,-45,20
1,388,439818,560,-3461,2147,-7,20,31
1,389,439825,515,-3474,2294,4,39,37
1,390,439833,515,-3474,2294,-7,31,30
1,391,439840,521,-3492,2325,-16,-23,19
1,392,439848,588,-3508,2243,-9,-28,17
1,393,439855,606,-3510,2208,-4,-7,17
1,394,439863,606,-3510,2208,-4,-11,12
1,395,439870,578,-3522,2252,9,-3,5
1,396,439878,521,-3510,2271,12,17,2
1,397,439885,511,-3471,2269,12,32,-5
1,398,439892,511,-3471,2269,12,23,-3
1,399,439900,570,-3450,2237,-8,12,4
1,400,439907,535,-3431,2253,-23,5,2
1,401,439915,506,-3425,2227,-27,-21,10
1,402,439922,506,-3425,2227,-19,4,19
1,403,439930,608,-3474,2132,-15,31,26
1,404,439937,645,-3500,2187,-15,19,27
1,405,439945,595,-3454,2196,-4,10,42
1,406,439952,595,-3454,2196,0,31,52
1,407,439959,560,-3419,2182,-6,19,63
1,408,439967,538,-3462,2293,-18,-22,59
1,409,439974,460,-3490,2343,-45,-50,43
1,410,439982,460,-3490,2343,-43,-34,40
1,411,439989,467,-3481,2303,-14,18,26
1,412,439997,571,-3428,2270,42,43,-21
1,413,440004,484,-3488,2119,52,71,45
1,414,440012,484,-3488,2119,-4,105,37
1,415,440019,607,-3597,2251,-31,-77,-3
1,416,440027,593,-3604,2231,-7,-55,-1
1,417,440034,529,-3551,2231,25,47,-10
1,418,440042,529,-3551,2231,29,46,-18
1,419,440049,522,-3491,2289,30,-11,-26
1,420,440057,594,-3461,2137,34,14,-18
1,421,440064,611,-3434,2148,41,58,2
1,422,440071,611,-3434,2148,36,35,6
1,423,440079,557,-3431,2209,23,20,13
1,424,440086,508,-3423,2245,16,10,16
1,425,440094,523,-3445,2239,16,6,26
1,426,440101,523,-3445,2239,14,16,28
1,427,440109,555,-3492,2238,10,20,24
1,428,440116,532,-3509,2279,10,9,19
1,429,440124,485,-3485,2291,5,2,11
1,430,440131,485,-3485,2291,7,1,8
1,431,440139,531,-3493,2267,3,2,1
1,432,440146,541,-3475,2265,-4,-1,3
1,433,440153,507,-3439,2257,-13,-4,8
1,434,440161,507,-3439,2257,-17,0,8
1,435,440168,498,-3453,2258,-27,2,7
1,436,440176,518,-3482,2250,-28,0,5
1,437,440183,552,-3503,2236,-22,-3,0
1,438,440191,552,-3503,2236,-18,3,-2
1,439,440198,538,-3503,2236,-16,5,-9
1,440,440206,516,-3498,2245,-10,3,-8
1,441,440213,544,-3503,2253,-2,5,-18
1,442,440221,544,-3503,2253,-1,1,-18
1,443,440228,547,-3486,2250,-2,6,-17
1,444,440235,529,-3438,2220,-6,9,-13
1,445,440243,574,-3464,2209,-4,8,-4
1,446,440250,574,-3464,2209,-7,2,-6
1,447,440258,577,-3542,2258,0,-4,-15
1,448,440265,534,-3514,2253,10,7,-14
1,449,440273,510,-3461,2211,21,38,-13
1,450,440280,510,-3461,2211,11,33,-11
1,451,440288,501,-3488,2229,-51,-28,12
1,452,440295,546,-3534,2256,-78,-50,-2
1,453,440303,560,-3507,2288,-49,-73,-22
1,454,440310,560,-3507,2288,-26,-36,-23
1,455,440318,490,-3422,2246,-22,6,-22
1,456,440325,481,-3371,2268,-34,-13,-19
1,457,440333,538,-3386,2194,-42,-26,-12
1,458,440340,538,-3386,2194,-36,-8,2
1,459,440347,592,-3436,2134,-38,3,16
1,460,440355,620,-3480,2188,-40,-21,18
1,461,440362,616,-3519,2151,-24,-26,26
1,462,440370,616,-3519,2151,-8,-5,25
1,463,440377,604,-3546,2168,17,7,23
1,464,440385,571,-3528,2235,22,6,18
1,465,440392,523,-3495,2280,22,-2,12
1,466,440400,523,-3495,2280,21,-1,9
1,467,440407,488,-3473,2293,9,-7,3
1,468,440415,517,-3471,2276,1,-13,6
1,469,440422,532,-3459,2262,-17,-17,5
1,470,440430,532,-3459,2262,-21,-16,7
1,471,440437,544,-3447,2225,-25,-5,18
1,472,440445,568,-3458,2172,-26,-2,22
1,473,440452,619,-3502,2164,-15,-13,26
1,474,440460,619,-3502,2164,-6,-4,29
1,475,440467,632,-3539,2178,16,12,28
1,476,440475,585,-3534,2213,24,14,31
1,477,440482,537,-3502,2249,32,21,24
1,478,440489,537,-3502,2249,33,25,22
1,479,440497,528,-3469,2246,36,20,27
1,480,440504,556,-3457,2200,32,22,30
1,481,440512,552,-3452,2205,23,0,35
1,482,440519,552,-3452,2205,19,-20,37
1,483,440527,546,-3482,2274,3,-58,40
1,484,440534,540,-3508,2209,-7,-16,59
1,485,440542,602,-3447,2214,-24,-113,48
1,486,440549,602,-3447,2214,5,-81,52
1,487,440556,615,-3395,2037,57,57,101
1,488,440564,621,-3422,2098,57,46,112
1,489,440571,660,-3426,2061,57,10,130
1,490,440579,660,-3426,2061,75,-4,149
1,491,440586,689,-3443,1968,130,41,183
1,492,440594,698,-3461,1963,156,52,197
1,493,440601,657,-3437,1978,200,32,220
1,494,440609,657,-3437,1978,228,22,237
1,495,440616,686,-3439,1977,281,9,268
1,496,440624,728,-3426,1981,306,7,286
1,497,440631,741,-3346,1962,369,33,346
1,498,440638,741,-3346,1962,403,14,369
1,499,440646,749,-3274,2069,474,-36,396
1,500,440653,635,-3312,2228,480,-99,431
1,501,440661,620,-3324,2310,463,-228,470
1,502,440668,620,-3324,2310,462,-270,501
1,503,440676,701,-3342,2089,503,-109,576
1,504,440683,762,-3349,2238,533,-175,619
1,505,440691,823,-3298,2094,584,-171,671
1,506,440698,823,-3298,2094,624,-110,693
1,507,440705,782,-3200,2166,689,-131,776
1,508,440713,688,-3150,2217,683,-158,843
1,509,440720,752,-3148,2286,689,-219,930
1,510,440728,752,-3148,2286,698,-230,944
1,511,440735,753,-3093,2349,868,-102,871
1,512,440743,612,-3203,2646,897,-231,911
1,513,440750,565,-3176,2460,872,-161,993
1,514,440758,565,-3176,2460,884,-163,1058
1,515,440765,446,-3266,2672,793,-254,1129
1,516,440772,392,-3258,2703,757,-260,1156
1,517,440780,351,-3184,2828,814,-291,1050
1,518,440787,351,-3184,2828,837,-300,1040
1,519,440795,213,-3262,2672,800,-194,1283
1,520,440802,245,-3278,2661,783,-179,1283
1,521,440810,420,-3490,2774,756,-228,1247
1,522,440817,420,-3490,2774,723,-261,1279
1,523,440825,313,-3429,2724,642,-354,1350
1,524,440832,155,-3191,2639,646,-317,1370
1,525,440839,80,-3112,2882,665,-218,1380
1,526,440847,80,-3112,2882,629,-564,1387
1,527,440854,10,-3049,2908,555,-482,1425
1,528,440862,-101,-2996,2603,552,-314,1467
1,529,440869,-178,-2823,3039,528,-398,1532
1,530,440877,-178,-2823,3039,496,-431,1560
1,531,440884,-254,-2675,3087,552,-381,1412
1,532,440892,-338,-2724,3184,577,-375,1438
1,533,440899,-430,-2716,3211,522,-479,1531
1,534,440906,-430,-2716,3211,473,-540,1564
1,535,440914,-440,-2769,2816,431,-184,1574
1,536,440921,-418,-2821,3133,415,-291,1568
1,537,440929,-429,-2830,3118,448,-188,1433
1,538,440936,-429,-2830,3118,467,-229,1416
1,539,440944,-531,-2888,3120,487,-283,1392
1,540,440951,-612,-2909,2864,492,-221,1372
1,541,440959,-668,-2923,2886,502,-104,1314
1,542,440966,-668,-2923,2886,492,-104,1279
1,543,440973,-731,-2934,3124,439,-154,1210
1,544,440981,-856,-2918,3258,405,-174,1177
1,545,440988,-921,-2898,3252,347,-177,1138
1,546,440996,-921,-2898,3252,316,-135,1121
1,547,441003,-935,-2936,3263,250,-51,1066
1,548,441011,-874,-2831,3379,241,-32,994
1,549,441018,-951,-2754,3336,209,-102,959
1,550,441026,-951,-2754,3336,203,-119,928
1,551,441033,-971,-2723,3119,179,-88,875
1,552,441041,-1004,-2828,3047,164,-67,848
1,553,441048,-1052,-2787,3173,132,-65,787
1,554,441055,-1052,-2787,3173,113,27,733
1,555,441063,-1137,-2686,3240,76,223,631
1,556,441070,-1232,-2734,3607,45,184,600
1,557,441078,-1275,-2821,3632,-43,87,525
1,558,441085,-1275,-2821,3632,-76,95,459
1,559,441093,-1248,-2844,3519,-122,50,352
1,560,441100,-1233,-2901,3334,-137,51,308
1,561,441108,-1193,-2902,3177,-170,88,226
1,562,441115,-1193,-2902,3177,-200,91,183
1,563,441122,-1155,-2776,3135,-257,32,112
1,564,441130,-1187,-2639,3049,-280,-8,104
1,565,441137,-1213,-2560,2896,-281,56,104
1,566,441145,-1213,-2560,2896,-278,76,68
1,567,441152,-1191,-2596,3004,-281,28,23
1,568,441160,-1230,-2646,3011,-274,27,-1
1,569,441167,-1258,-2640,3098,-266,-6,-65
1,570,441175,-1258,-2640,3098,-275,-1,-104
1,571,441182,-1291,-2627,3247,-314,2,-213
1,572,441190,-1300,-2639,3412,-334,-41,-259
1,573,441197,-1267,-2626,3293,-351,-85,-361
1,574,441205,-1267,-2626,3293,-338,-88,-398
1,575,441212,-1241,-2504,3147,-320,-207,-491
1,576,441220,-1230,-2499,2852,-304,-189,-534
1,577,441227,-1245,-2579,2688,-247,-66,-600
1,578,441235,-1245,-2579,2688,-237,-32,-626
1,579,441242,-1272,-2642,2881,-297,-22,-700
1,580,441249,-1269,-2731,2942,-309,24,-742
1,581,441257,-1255,-2777,2859,-246,154,-814
1,582,441264,-1255,-2777,2859,-187,221,-847
1,583,441272,-1203,-2768,2581,-61,398,-913
1,584,441279,-1066,-2780,2248,2,483,-950
1,585,441287,-952,-2854,2061,145,627,-1024
1,586,441294,-952,-2854,2061,216,702,-1063
1,587,441302,-864,-2876,2068,300,781,-1155
1,588,441309,-836,-2751,2288,354,635,-1163
1,589,441317,-1022,-2634,1840,561,1098,-1157
1,590,441324,-1022,-2634,1840,680,1378,-1158
1,591,441332,-951,-2650,2575,721,994,-1186
1,592,441339,-851,-2947,3045,691,802,-1233
1,593,441347,-882,-3283,3048,610,805,-1281
1,594,441354,-882,-3283,3048,535,787,-1268
1,595,441361,-975,-3336,3526,233,481,-1142
1,596,441369,-1035,-3087,3320,119,377,-1112
1,597,441376,-673,-2731,2875,275,719,-1355
1,598,441384,-673,-2731,2875,437,718,-1396
1,599,441391,-492,-2155,2663,770,737,-1628
1,600,441399,-580,-1715,2138,875,724,-1654
1,601,441406,-475,-1442,1154,1025,913,-1421
1,602,441414,-151,-1325,240,1372,1478,-1155
1,603,441421,-151,-1325,240,1682,1965,-1034
1,604,441429,172,-726,-631,2475,2816,-668
1,605,441436,-104,-308,-316,2767,2950,-451
1,606,441444,693,-2712,4289,2187,3499,136
1,607,441451,693,-2712,4289,-529,6909,318
1,608,441459,-615,-9151,9649,2101,14673,-402
1,609,441466,-4391,1249,7988,5158,-2331,-1443
1,610,441474,-2545,-1475,497,3676,-2239,-1903
1,611,441481,-2545,-1475,497,2551,-2663,-1646
1,612,441488,-2268,-2571,2163,53,-2217,-1711
1,613,441496,-1577,-2144,3482,-401,-1846,-1814
1,614,441503,-911,-2251,3958,248,-1381,-1713
1,615,441511,-911,-2251,3958,578,-1319,-1590
1,616,441518,-522,-2803,4395,917,-1432,-1550
1,617,441526,-501,-2230,4227,965,-1392,-1676
1,618,441533,59,-1809,4286,872,-1788,-1874
1,619,441541,59,-1809,4286,755,-2068,-1839
1,620,441548,333,-1791,4120,555,-2041,-1804
1,621,441556,314,-1742,4144,475,-1795,-1768
1,622,441563,548,-1591,4323,450,-955,-1591
1,623,441571,548,-1591,4323,366,-451,-1447
1,624,441578,833,-1909,4471,133,507,-1331
1,625,441585,501,-2149,4419,55,857,-1345
1,626,441593,774,-2518,4360,-58,1365,-1107
1,627,441600,774,-2518,4360,-57,1468,-1072
1,628,441608,787,-2562,4245,-88,1575,-992
1,629,441615,1029,-2672,4453,-216,1589,-913
1,630,441623,993,-2821,5155,-550,917,-868
1,631,441630,993,-2821,5155,-678,450,-877
1,632,441638,591,-2566,5363,-889,-263,-918
1,633,441645,94,-2289,4703,-970,-207,-875
1,634,441653,-100,-2152,4364,-1130,-221,-783
1,635,441660,-100,-2152,4364,-1181,-152,-741
1,636,441667,-4,-2118,4020,-1209,-166,-682
1,637,441675,24,-2225,3674,-1200,-210,-661
1,638,441682,84,-2222,3188,-1196,-146,-661
1,639,441690,84,-2222,3188,-1176,-69,-654
1,640,441697,183,-2280,2950,-1125,2,-590
1,641,441705,332,-2308,2834,-1127,47,-563
1,642,441712,388,-2405,2994,-1122,15,-572
1,643,441720,388,-2405,2994,-1094,-58,-570
1,644,441727,347,-2375,2961,-1003,-25,-575
1,645,441735,153,-2414,3048,-972,-71,-571
1,646,441742,266,-2354,2924,-950,-84,-492
1,647,441750,266,-2354,2924,-935,-67,-460
1,648,441757,501,-2475,3039,-908,-219,-401
1,649,441765,742,-2611,3009,-886,-193,-338
1,650,441772,847,-2753,3155,-866,-219,-207
1,651,441779,847,-2753,3155,-867,-266,-191
1,652,441787,623,-2807,3213,-887,-283,-167
1,653,441794,290,-2593,3136,-889,-325,-167
1,654,441802,165,-2451,2869,-798,-338,-139
1,655,441809,165,-2451,2869,-734,-246,-98
1,656,441817,223,-2419,2587,-631,-85,-38
1,657,441824,289,-2447,2608,-582,-96,-22
1,658,441832,285,-2488,2547,-486,-118,12
1,659,441839,285,-2488,2547,-446,-73,30
1,660,441847,235,-2594,2581,-390,1,72
1,661,441854,253,-2762,2855,-371,-10,82
1,662,441861,331,-2867,2959,-341,-47,81
1,663,441869,331,-2867,2959,-320,-46,82
1,664,441876,334,-2897,2919,-274,-36,79
1,665,441884,279,-2884,2918,-257,-31,78
1,666,441891,210,-2852,2985,-256,-37,70
1,667,441899,210,-2852,2985,-258,-74,66
1,668,441906,200,-2810,2959,-249,-107,75
1,669,441914,233,-2779,2789,-233,-98,86
1,670,441921,284,-2772,2703,-200,-82,116
1,671,441928,284,-2772,2703,-184,-80,120
1,672,441936,299,-2785,2718,-146,-89,119
1,673,441943,274,-2776,2746,-110,-85,127
1,674,441951,233,-2801,2747,-42,-11,146
1,675,441958,233,-2801,2747,-19,24,153
1,676,441966,264,-2891,2872,0,15,171
1,677,441973,270,-2938,2883,16,23,165
1,678,441981,232,-2975,2951,41,36,159
1,679,441988,232,-2975,2951,43,-8,148
1,680,441996,177,-2992,3034,17,-35,124
1,681,442003,94,-2940,3048,11,-50,114
1,682,442010,78,-2899,2939,28,-12,103
1,683,442018,78,-2899,2939,38,29,103
1,684,442025,164,-2928,2963,38,24,91
1,685,442033,154,-2916,3011,32,11,79
1,686,442040,112,-2906,2966,22,-28,62
1,687,442048,112,-2906,2966,24,26,60
1,688,442055,148,-2916,3010,34,-57,47
1,689,442063,213,-2905,2895,41,-24,44
1,690,442070,232,-2878,2832,62,68,59
1,691,442077,232,-2878,2832,68,75,59
1,692,442085,207,-2905,2987,68,19,51
1,693,442092,163,-2924,3111,62,-4,41
1,694,442100,74,-2901,3148,47,-7,26
1,695,442107,74,-2901,3148,39,-20,13
1,696,442115,38,-2867,3091,24,-16,4
1,697,442122,136,-2870,2987,20,2,2
1,698,442130,196,-2869,3000,9,24,1
1,699,442137,196,-2869,3000,2,8,1
1,700,442145,179,-2837,3007,14,-8,2
1,701,442152,206,-2805,2922,44,11,-12
1,702,442159,144,-2820,2875,110,92,-12
1,703,442167,144,-2820,2875,101,120,3
1,704,442174,124,-2903,2975,42,69,-1
1,705,442182,218,-2934,3084,45,33,-14
1,706,442189,166,-2946,3075,60,72,-15
1,707,442197,166,-2946,3075,47,87,-12
1,708,442204,193,-3026,3227,10,8,-48
1,709,442212,211,-3009,3240,12,-23,-63
1,710,442219,176,-2925,3070,34,52,-67
1,711,442227,176,-2925,3070,32,73,-62
1,712,442234,195,-2981,3060,-79,-38,-12
1,713,442241,282,-2929,3039,-125,-87,-35
1,714,442249,249,-2810,3008,-84,-123,-61
1,715,442256,249,-2810,3008,-44,-56,-51
1,716,442264,89,-2722,2920,-14,28,-24
1,717,442271,146,-2745,2900,-19,21,-23
1,718,442279,275,-2789,2884,-11,6,-14
1,719,442286,275,-2789,2884,-4,21,6
1,720,442294,325,-2822,2899,3,31,40
1,721,442301,317,-2852,2992,-6,7,48
1,722,442309,275,-2932,3053,-8,-22,53
1,723,442316,275,-2932,3053,5,-8,49
1,724,442323,193,-2964,3071,22,34,41
1,725,442331,144,-2929,3123,21,41,32
1,726,442338,146,-2901,3138,7,24,14
1,727,442346,146,-2901,3138,-6,23,8
1,728,442353,120,-2849,3101,-40,12,8
1,729,442361,56,-2828,3053,-55,5,5
1,730,442368,39,-2844,2983,-70,13,-9
1,731,442376,39,-2844,2983,-65,27,-16
1,732,442383,149,-2909,3003,-64,41,-30
1,733,442390,209,-2948,3071,-61,38,-40
1,734,442398,207,-2907,3063,-51,40,-44
1,735,442405,207,-2907,3063,-47,40,-39
1,736,442413,236,-2862,2989,-50,26,-21
1,737,442420,275,-2868,2917,-50,13,-18
1,738,442428,266,-2880,2868,-34,8,-2
1,739,442435,266,-2880,2868,-20,23,4
1,740,442443,215,-2913,2943,-14,42,-4
1,741,442450,122,-2922,3095,-17,35,-13
1,742,442458,83,-2919,3135,-22,35,-27
1,743,442465,83,-2919,3135,-27,38,-32
1,744,442472,121,-2906,3079,-44,44,-48
1,745,442480,121,-2875,3030,-55,46,-53
1,746,442487,136,-2862,3001,-67,38,-53
1,747,442495,136,-2862,3001,-73,33,-52
1,748,442502,170,-2857,2992,-89,9,-47
1,749,442510,207,-2855,2971,-90,-2,-42
1,750,442517,222,-2828,2909,-94,-9,-25
1,751,442525,222,-2828,2909,-81,1,-28
1,752,442532,210,-2710,2872,44,94,-56
1,753,442539,108,-2787,2937,83,129,-38
1,754,442547,144,-2909,2959,14,132,-6
1,755,442554,144,-2909,2959,-27,65,-23
1,756,442562,243,-2941,3049,-30,-17,-35
1,757,442569,199,-2915,2990,-2,20,-46
1,758,442577,162,-2978,3015,41,105,-30
1,759,442584,162,-2978,3015,32,112,-32
1,760,442592,226,-3050,3088,-9,25,-36
1,761,442599,311,-3043,3004,-25,12,-35
1,762,442607,263,-2986,2963,-22,25,-36
1,763,442614,263,-2986,2963,-25,34,-37
1,764,442622,151,-2915,3003,-28,32,-39
1,765,442629,156,-2891,2995,-25,34,-41
1,766,442636,212,-2860,2936,-27,35,-30
1,767,442644,212,-2860,2936,-26,28,-27
1,768,442651,226,-2853,2917,-34,-5,-11
1,769,442659,213,-2836,2907,-32,-12,-5
1,770,442666,207,-2776,2918,-2,7,-13
1,771,442674,207,-2776,2918,44,46,-27
1,772,442681,156,-2784,2940,106,124,9
1,773,442689,159,-2915,2954,82,149,17
1,774,442696,236,-3019,3103,21,43,0
1,775,442704,236,-3019,3103,14,-6,-6
1,776,442711,223,-3019,3103,25,8,2
1,777,442718,220,-3007,3017,23,39,7
1,778,442726,221,-2953,2996,10,25,3
1,779,442733,221,-2953,2996,5,16,-2
1,780,442741,237,-2931,2974,22,41,1
1,781,442748,183,-2939,3030,26,53,-4
1,782,442756,124,-2906,3064,18,30,-13
1,783,442763,124,-2906,3064,7,17,-7
1,784,442771,186,-2945,3001,-47,-25,13
1,785,442778,242,-2901,2942,-56,-34,4
1,786,442786,178,-2853,2970,-15,-48,8
1,787,442793,178,-2853,2970,-7,-21,16
1,788,442800,131,-2827,2939,4,9,9
1,789,442808,145,-2836,2941,10,5,11
1,790,442815,198,-2890,2959,14,21,15
1,791,442823,198,-2890,2959,12,20,16
1,792,442830,220,-2948,3033,12,-3,17
1,793,442838,181,-2958,3048,5,-15,22
1,794,442845,193,-2941,3009,-12,-22,17
1,795,442853,193,-2941,3009,-11,-29,17
1,796,442860,208,-2916,2979,3,-25,17
1,797,442868,190,-2890,2950,7,-21,19
1,798,442875,147,-2879,2987,9,-16,9
1,799,442882,147,-2879,2987,4,-20,8
1,800,442890,119,-2854,3004,11,-1,7
1,801,442897,141,-2856,2991,18,10,9
1,802,442905,146,-2860,3008,15,32,4
1,803,442912,146,-2860,3008,12,25,3
1,804,442920,155,-2869,3021,17,14,5
1,805,442927,183,-2887,2966,17,19,5
1,806,442935,224,-2924,3011,15,30,6
1,807,442942,224,-2924,3011,14,17,4
1,808,442950,172,-2907,3060,17,3,2
1,809,442957,131,-2889,2999,18,16,2
1,810,442964,185,-2916,3016,14,24,-2
1,811,442972,185,-2916,3016,14,6,-10
1,812,442979,171,-2907,3039,11,-7,-10
1,813,442987,142,-2890,2998,9,-5,-7
1,814,442994,176,-2898,2990,-2,-16,-6
1,815,443002,176,-2898,2990,-5,-17,-9
1,816,443009,200,-2911,3014,-4,-8,-15
1,817,443017,161,-2900,3036,-1,1,-16
1,818,443024,141,-2884,3013,-1,8,-14
1,819,443032,141,-2884,3013,0,13,-18
1,820,443039,175,-2902,3005,-12,24,-19
1,821,443047,168,-2941,3075,-21,22,-24
1,822,443054,151,-2921,3083,-32,4,-33
1,823,443062,151,-2921,3083,-30,2,-34
1,824,443069,156,-2882,2996,-24,8,-34
1,825,443077,179,-2860,2953,-20,7,-38
1,826,443084,191,-2853,2977,-19,-2,-32
1,827,443092,191,-2853,2977,-18,-7,-31
1,828,443099,180,-2839,2983,-17,-10,-27
1,829,443106,156,-2823,2964,-16,-6,-21
1,830,443114,178,-2839,2945,-17,5,-6
1,831,443121,178,-2839,2945,-21,6,-2
1,832,443129,264,-2914,2992,-22,-12,1
1,833,443136,264,-2962,3055,-14,-19,-1
1,834,443144,171,-2919,3043,1,-18,-2
1,835,443151,171,-2919,3043,5,-15,-2
1,836,443159,166,-2913,2996,-3,5,-12
1,837,443166,183,-2905,2990,-1,14,-13
1,838,443174,179,-2880,2967,5,26,-8
1,839,443181,179,-2880,2967,3,34,-8
1,840,443188,174,-2873,2962,-6,18,-6
1,841,443196,176,-2883,3008,-8,7,-7
1,842,443203,189,-2886,3004,-5,14,-4
1,843,443211,189,-2886,3004,-4,25,-2
1,844,443218,197,-2899,3026,2,17,-7
1,845,443226,173,-2887,3023,3,13,-8
1,846,443233,195,-2902,2998,-2,24,-5
1,847,443241,195,-2902,2998,-6,30,-9
1,848,443248,205,-2911,3061,-12,5,-4
1,849,443255,208,-2903,3010,-9,0,-1
1,850,443263,204,-2881,2940,-6,10,4
1,851,443270,204,-2881,2940,-6,14,5
1,852,443278,181,-2898,2992,-11,2,-3
1,853,443285,133,-2898,3020,-14,9,-4
1,854,443293,149,-2899,2994,-2,34,-7
1,855,443300,149,-2899,2994,2,40,-10
1,856,443308,200,-2920,2978,3,32,-10
1,857,443315,233,-2954,3011,-2,20,-14
1,858,443322,202,-2922,3016,1,-8,-17
1,859,443330,202,-2922,3016,6,6,-15
1,860,443337,130,-2870,2983,-1,29,-15
1,861,443345,153,-2867,2991,-2,23,-16
1,862,443352,228,-2908,2973,0,9,-13
1,863,443360,228,-2908,2973,-2,6,-11
1,864,443367,211,-2909,3004,-3,2,-14
1,865,443375,175,-2911,3055,-2,-2,-15
1,866,443382,170,-2912,3025,3,7,-18
1,867,443390,170,-2912,3025,5,13,-19
1,868,443397,170,-2900,2975,1,20,-30
1,869,443404,152,-2908,3007,-1,19,-34
1,870,443412,129,-2908,3059,-3,13,-45
1,871,443419,129,-2908,3059,-2,14,-51
1,872,443427,148,-2910,3029,0,31,-53
1,873,434488,758,-1114,3511,-748,286,-33
1,874,434495,906,-1149,3723,-699,427,30
1,875,434503,1095,-1092,3991,-680,335,142
1,876,434510,214,-593,4249,-912,-391,264
1,877,434518,214,-593,4249,-1094,-613,307
1,878,434525,-349,-898,3911,-1092,-87,339
1,879,434533,721,-2030,4627,-1050,-54,197
1,880,434540,1320,-2190,4250,-981,70,-9
1,881,434547,1320,-2190,4250,-1020,353,-55
1,882,434555,907,-2035,4124,-1197,168,18
1,883,434562,622,-1767,3970,-1237,38,23
1,884,434570,479,-1317,3162,-1115,230,41
1,885,434577,479,-1317,3162,-1021,227,43
1,886,434585,130,-1177,3039,-866,136,61
1,887,434592,204,-1181,2979,-782,169,78
1,888,434600,629,-1456,3063,-698,-55,46
1,889,434607,629,-1456,3063,-655,-61,56
1,890,434614,990,-1773,2986,-522,104,121
1,891,434622,1087,-1996,3020,-439,322,149
1,892,434629,613,-2060,3622,-358,552,130
1,893,434637,613,-2060,3622,-356,534,115
1,894,434644,463,-1822,4062,-442,459,98
1,895,434652,179,-1699,4509,-541,405,50
1,896,434659,362,-1705,4929,-748,45,15
1,897,434667,362,-1705,4929,-840,-99,43
1,898,434674,926,-1965,4518,-941,-2,84
1,899,434681,613,-2128,3974,-906,41,56
1,900,434689,515,-1905,3262,-819,163,41
1,901,434696,515,-1905,3262,-794,283,50
1,902,434704,573,-1888,2836,-684,440,62
1,903,434711,709,-2027,2847,-608,538,71
1,904,434719,846,-1952,3092,-476,642,134
1,905,434726,846,-1952,3092,-433,653,180
1,906,434734,825,-1866,3233,-444,845,279
1,907,434741,424,-2080,3589,-496,930,281
1,908,434748,-451,-1970,4416,-699,425,69
1,909,434756,-451,-1970,4416,-794,134,-25
1,910,434763,-512,-1643,4505,-921,119,-45
1,911,434771,19,-1737,4483,-954,90,-51
1,912,434778,451,-2076,4421,-1071,91,-86
1,913,434786,451,-2076,4421,-1127,236,-89
1,914,434793,447,-2298,4232,-1203,356,-72
1,915,434801,492,-2428,4105,-1242,344,-72
1,916,434808,740,-2358,3637,-1282,415,-51
1,917,434816,740,-2358,3637,-1265,552,20
1,918,434823,885,-2320,3098,-1106,546,118
1,919,434830,1086,-2262,2606,-1010,509,207
1,920,434838,353,-2395,2503,-917,522,250
1,921,434845,353,-2395,2503,-936,386,115
1,922,434853,-804,-2382,2959,-982,188,-9
1,923,434860,-202,-2229,3186,-976,139,4
1,924,434868,91,-2454,3473,-1014,100,-34
1,925,434875,91,-2454,3473,-1031,109,-50
1,926,434883,143,-2622,3674,-1064,75,-86
1,927,434890,280,-2737,3630,-1072,110,-101
1,928,434898,433,-2704,3367,-1034,253,-85
1,929,434905,433,-2704,3367,-991,319,-71
1,930,434912,541,-2697,2965,-839,452,-17
1,931,434920,751,-2546,2393,-739,552,50
1,932,434927,929,-2462,2248,-587,574,231
1,933,434935,929,-2462,2248,-535,509,315
1,934,434942,904,-2463,2302,-467,351,485
1,935,434950,745,-2447,2475,-450,286,563
1,936,434957,147,-2527,2822,-465,251,650
1,937,434965,147,-2527,2822,-525,227,590
1,938,434972,-1542,-2859,3774,-777,-100,123
1,939,434980,-1887,-2939,4378,-850,-293,-88
1,940,434987,-127,-3013,3848,-782,-178,-168
1,941,434995,-127,-3013,3848,-746,51,-197
1,942,435002,173,-3301,3428,-759,266,-289
1,943,435009,19,-3020,3079,-761,378,-315
1,944,435017,-29,-2647,3133,-799,458,-321
1,945,435024,-29,-2647,3133,-841,339,-319
1,946,435032,-4,-2673,3139,-879,97,-320
1,947,435039,289,-2873,2605,-853,125,-301
1,948,435047,555,-3434,1810,-575,465,-290
1,949,435054,555,-3434,1810,-555,649,-261
1,950,435062,1330,-2954,2636,-497,128,34
1,951,435069,1384,-2433,2235,-444,101,201
1,952,435077,427,-2646,2203,-369,17,420
1,953,435084,427,-2646,2203,-376,-15,391
1,954,435092,-980,-2980,2987,-508,-170,150
1,955,435099,-1134,-3090,3673,-566,-227,31
1,956,435106,-1088,-3466,3815,-673,-206,-253
1,957,435114,-1088,-3466,3815,-707,-153,-388
1,958,435121,-370,-3525,3335,-700,208,-439
1,959,435129,98,-3310,2827,-702,314,-443
1,960,435136,157,-3098,2738,-714,309,-484
1,961,435144,157,-3098,2738,-734,234,-451
1,962,435151,135,-2984,2671,-721,73,-516
1,963,435159,287,-2759,2446,-684,12,-454
1,964,435166,236,-2685,2167,-596,198,-335
1,965,435174,236,-2685,2167,-535,195,-284
1,966,435181,496,-2732,2317,-443,161,-135
1,967,435188,584,-2976,2462,-430,114,-65
1,968,435196,366,-3176,2529,-445,-55,-10
1,969,435203,366,-3176,2529,-445,-95,-2
1,970,435211,138,-3375,2558,-412,-151,-62
1,971,435218,-180,-3498,2618,-377,-173,-132
1,972,435226,-336,-3340,2569,-351,-93,-249
1,973,435233,-336,-3340,2569,-351,-60,-301
1,974,435241,-62,-3273,2622,-384,-136,-330
1,975,435248,176,-3425,2658,-400,-173,-359
1,976,435256,257,-3403,2532,-408,-139,-370
1,977,435263,257,-3403,2532,-389,-76,-371
1,978,435271,356,-3179,2381,-329,50,-289
1,979,435278,420,-3013,2257,-286,111,-255
1,980,435285,490,-3032,2254,-208,128,-160
1,981,435293,490,-3032,2254,-193,125,-125
1,982,435300,461,-3119,2249,-148,99,-58
1,983,435308,436,-3219,2324,-126,85,-31
1,984,435315,273,-3379,2491,-124,-54,-32
1,985,435323,273,-3379,2491,-120,-66,-57
1,986,435330,118,-3444,2531,-90,-92,-97
1,987,435338,174,-3393,2589,-87,-162,-109
1,988,435345,366,-3449,2526,-126,-81,-107
1,989,435353,366,-3449,2526,-138,-105,-103
1,990,435360,436,-3522,2631,-161,-143,-95
1,991,435367,335,-3540,2507,-172,-147,-77
1,992,435375,250,-3392,2419,-216,-140,-53
1,993,435382,250,-3392,2419,-226,-157,-69
1,994,435390,303,-3146,2411,-135,-37,-93
1,995,435397,282,-3025,2493,-88,-76,-64
1,996,435405,334,-3118,2220,-54,-40,-2
1,997,435412,334,-3118,2220,-33,98,33
1,998,435420,455,-3323,2294,26,19,42
1,999,435427,397,-3496,2446,21,-30,48
