event_id,seq,ts_us,ax,ay,az,gx,gy,gz
1,0,65333831,-278,-981,1153,-1307,-2393,172
1,1,65341278,-978,-1315,44,-646,-1759,112
1,2,65348724,-978,-1315,44,-412,-1461,-27
1,3,65356170,-1347,-1427,-722,66,-756,-233
1,4,65363616,-795,-1054,-1915,461,-169,-278
1,5,65371063,-612,-876,-1619,1019,1026,-382
1,6,65378570,-612,-876,-1619,1132,1500,-445
1,7,65386016,-885,-894,-718,1143,2309,-610
1,8,65393463,-857,-523,-417,1196,2840,-657
1,9,65400909,-939,474,204,1988,4774,-613
1,10,65408355,-939,474,204,2388,5547,-669
1,11,65415802,-2010,739,1968,3088,6524,-741
1,12,65423309,-1578,-58,10142,3825,2191,-1220
1,13,65430755,802,1570,8954,2579,-5889,-459
1,14,65438201,802,1570,8954,2066,-3903,-838
1,15,65445648,-1498,-424,5235,1116,-2753,-1021
1,16,65453094,148,419,7007,559,-1148,-682
1,17,65460540,1568,-139,6921,-325,1669,-356
1,18,65468078,1568,-139,6921,-947,2197,-258
1,19,65475524,1383,-861,6700,-1994,3058,159
1,20,65482971,-407,-502,7540,-2339,3327,195
1,21,65490417,-2733,-847,8888,-2976,2490,-92
1,22,65497863,-2733,-847,8888,-3250,1876,-38
1,23,65505310,-4019,-673,8788,-3424,70,-218
1,24,65512756,-931,-1195,8294,-3374,-1167,-336
1,25,65520202,986,-1465,6701,-3311,-3150,-621
1,26,65527648,986,-1465,6701,-3319,-3764,-772
1,27,65535125,820,-1369,4992,-3384,-4102,-876
1,28,65542572,173,-646,3419,-3389,-3995,-780
1,29,65550018,-205,190,1955,-3335,-3404,-453
1,30,65557495,-205,190,1955,-3194,-2745,-248
1,31,65564941,-393,691,836,-2818,-1126,203
1,32,65572540,-294,499,-99,-2550,-361,379
1,33,65579986,-67,144,-540,-1982,545,557
1,34,65587432,-67,144,-540,-1724,941,498
1,35,65594879,-2581,-1230,-1317,-1224,2155,-706
1,36,65602355,-1675,544,-2220,-864,2526,-767
1,37,65609802,1547,1426,-1207,-268,2496,-148
1,38,65617248,1547,1426,-1207,-2,2232,14
1,39,65624694,1405,-74,-860,495,1926,148
1,40,65632141,106,-1567,-1420,715,1979,208
1,41,65639587,-941,-2291,-1524,1932,2973,227
1,42,65647064,-941,-2291,-1524,2497,3805,182
1,43,65654510,-742,-1660,1349,3062,3833,131
1,44,65661956,-987,-2431,4308,3121,3267,74
1,45,65669403,-1273,-2904,5403,2853,2345,-138
1,46,65676910,-1273,-2904,5403,2787,2229,-222
1,47,65684387,-605,-2305,7049,2682,1882,-314
1,48,65691864,-9,-1283,8403,2537,2129,-151
1,49,65699310,-215,-1500,10000,1551,508,208
1,50,65706756,-215,-1500,10000,1197,60,349
1,51,65714202,-412,-1239,9310,675,-429,608
1,52,65721649,-804,-1095,9052,302,-998,652
1,53,65729095,-1193,-676,8129,-433,-2422,753
1,54,65736602,-1193,-676,8129,-645,-2641,729
1,55,65744049,-1169,-907,6379,-905,-3010,621
1,56,65751495,-932,-1083,4666,-934,-3073,583
1,57,65758941,-883,-1047,3565,-777,-2942,541
1,58,65766387,-883,-1047,3565,-741,-2961,514
1,59,65773925,-1048,-847,3296,-665,-2897,462
1,60,65781402,-951,-693,2834,-578,-2750,454
1,61,65788848,-739,-645,2571,-335,-2200,509
1,62,65796295,-739,-645,2571,-235,-1958,544
1,63,65803741,-550,-712,2645,-98,-1550,550
1,64,65811279,-355,-1007,3091,-71,-1494,498
1,65,65818725,-567,-1616,3662,-212,-1265,225
1,66,65826293,-567,-1616,3662,-311,-1007,97
1,67,65833740,61,-1608,4099,-428,-543,-38
1,68,65841186,1065,-1646,4362,-433,-362,-11
1,69,65848632,1217,-1817,4625,-598,-255,107
1,70,65856079,1217,-1817,4625,-772,-342,149
1,71,65863525,275,-2078,4532,-1068,-111,78
1,72,65871032,-388,-1699,3921,-1130,171,47
1,73,65878509,-1059,-1566,3688,-1278,931,-90
1,74,65885955,-1059,-1566,3688,-1361,1315,-212
1,75,65893402,-1093,-1134,3744,-1384,1630,-261
1,76,65900848,-551,-937,3498,-1371,1601,-251
1,77,65908294,-223,-773,3190,-1196,1315,-168
1,78,65915832,-223,-773,3190,-1042,1075,-102
1,79,65923278,-221,-868,2949,-672,597,-3
1,80,65930725,-246,-725,2661,-466,362,47
1,81,65938171,-158,-867,2964,-156,-39,231
1,82,65945617,-158,-867,2964,-161,-254,342
1,83,65953063,105,-1178,3625,-213,-344,477
1,84,65960510,365,-1271,4308,-264,-277,600
1,85,65967956,471,-1451,5092,-511,-216,846
1,86,65975402,471,-1451,5092,-618,-209,956
1,87,65982849,303,-1634,5022,-721,-50,1037
1,88,65990295,-437,-1824,4608,-713,31,1009
1,89,65997741,-1576,-1787,4227,-694,82,678
1,90,66005187,-1576,-1787,4227,-722,74,481
1,91,66012634,-1732,-1321,4024,-696,-37,219
1,92,66020080,-1031,-1423,3613,-646,-92,128
1,93,66027526,-407,-1848,3309,-511,19,-4
1,94,66034973,-407,-1848,3309,-453,46,-40
1,95,66042419,-58,-2147,3279,-410,67,-17
1,96,66049865,104,-2356,3201,-389,71,-11
1,97,66057312,253,-2201,3238,-341,-41,-3
1,98,66064758,253,-2201,3238,-331,-132,40
1,99,66072204,372,-1947,3511,-392,-330,173
1,100,66079650,153,-1900,3632,-404,-368,211
1,101,66087097,-196,-1853,3523,-303,-244,221
1,102,66094543,-196,-1853,3523,-240,-257,243
1,103,66101989,-353,-1825,3748,-190,-434,216
1,104,66109436,-776,-1895,3785,-204,-459,157
1,105,66116882,-869,-1754,3813,-312,-331,63
1,106,66124328,-869,-1754,3813,-359,-240,55
1,107,66131774,-473,-1671,3678,-308,-7,-29
1,108,66139221,-303,-1707,3476,-235,99,-46
1,109,66146667,-210,-1774,3454,-112,147,-50
1,110,66154113,-210,-1774,3454,-73,78,-54
1,111,66161560,-7,-1899,3628,-115,-145,-19
1,112,66169006,154,-2115,3698,-159,-218,4
1,113,66176452,169,-2146,3448,-172,-161,40
1,114,66183898,169,-2146,3448,-124,-122,60
1,115,66191345,178,-2072,3333,0,-146,124
1,116,66198791,116,-2014,3377,51,-227,141
1,117,66206237,-204,-1998,3394,113,-427,153
1,118,66213684,-204,-1998,3394,115,-480,92
1,119,66221130,-802,-1931,3453,29,-399,-61
1,120,66228576,-646,-1793,3659,2,-273,-78
1,121,66236022,-218,-1922,3762,24,67,-74
1,122,66243469,-218,-1922,3762,33,179,-69
1,123,66250915,-30,-2044,4005,-11,91,-62
1,124,66258361,-94,-2041,4144,-35,-34,-70
1,125,66265808,-107,-1992,4164,-49,-285,-81
1,126,66273254,-107,-1992,4164,-64,-374,-77
1,127,66280792,-46,-1924,4243,-108,-492,-54
1,128,66288238,-80,-1866,4222,-126,-547,-49
1,129,66295684,-100,-1591,3397,-108,-446,-49
1,130,66303131,-100,-1591,3397,-215,315,39
1,131,66310577,-353,-1334,2044,-127,853,54
1,132,66318023,-222,-1944,3294,41,426,13
1,133,66325469,332,-2222,3519,167,-125,49
1,134,66332916,332,-2222,3519,119,-288,72
1,135,66340362,413,-2396,3316,52,-86,75
1,136,66347869,290,-2099,3533,86,16,69
1,137,66355316,91,-1756,4039,146,205,197
1,138,66362762,91,-1756,4039,106,37,229
1,139,66370208,-145,-1962,4468,-36,-268,179
1,140,66377655,-154,-2051,4049,-70,-208,170
1,141,66385101,-188,-1958,3774,-47,-90,173
1,142,66392547,-188,-1958,3774,-25,-66,169
1,143,66399993,-301,-1859,3577,-34,-96,156
1,144,66407440,-328,-1847,3366,-29,-94,152
1,145,66414886,-626,-2037,3482,-19,-8,45
1,146,66422332,-626,-2037,3482,-40,5,-29
1,147,66429779,-736,-1888,4053,-98,-75,-83
1,148,66437225,-547,-1675,4502,-186,-52,-60
1,149,66444671,-363,-1759,4183,-247,-133,-70
1,150,66452117,-363,-1759,4183,-102,-81,-92
1,151,66459564,-59,-1848,3118,14,339,-157
1,152,66467010,-107,-1917,3284,-38,376,-185
1,153,66474456,-110,-1894,3750,-119,85,-162
1,154,66481903,-110,-1894,3750,-114,-46,-152
1,155,66489349,-80,-1934,3728,-91,15,-144
1,156,66496795,-65,-2016,3745,-86,110,-141
1,157,66504241,13,-2056,3961,-110,141,-120
1,158,66511688,13,-2056,3961,-145,74,-106
1,159,66519134,146,-2076,4025,-214,0,-54
1,160,66526580,203,-2154,3923,-240,-11,-27
1,161,66534027,112,-2071,3689,-246,58,-10
1,162,66541473,112,-2071,3689,-234,97,3
1,163,66548919,-46,-2013,3606,-231,44,22
1,164,66556365,-113,-2015,3556,-238,19,29
1,165,66563812,-135,-1987,3510,-238,-32,22
1,166,66571258,-135,-1987,3510,-230,-20,21
1,167,66578704,-165,-1989,3476,-192,59,24
1,168,66586151,-222,-1966,3475,-167,94,10
1,169,66593597,-225,-1949,3399,-98,116,-4
1,170,66601043,-225,-1949,3399,-68,126,1
1,171,66608489,-194,-1935,3334,-45,127,-18
1,172,66615936,-57,-1927,3254,-1,99,-4
1,173,66623382,21,-1839,3027,131,165,50
1,174,66630828,21,-1839,3027,146,219,56
1,175,66638488,-13,-1990,3338,125,188,117
1,176,66645935,27,-2147,3662,120,141,130
1,177,66653381,25,-2114,3690,156,38,123
1,178,66660827,25,-2114,3690,158,76,121
1,179,66668273,-174,-2053,3758,91,164,111
1,180,66675720,-398,-2100,4093,38,172,90
1,181,66683258,-481,-2160,4303,-43,89,45
1,182,66690704,-481,-2160,4303,-67,39,16
1,183,66698150,-464,-2172,4203,-134,43,-40
1,184,66705596,-396,-2137,4025,-166,57,-62
1,185,66713043,-306,-2028,3896,-224,62,-97
1,186,66720550,-306,-2028,3896,-251,43,-104
1,187,66727996,-260,-2024,3823,-284,2,-118
1,188,66735443,-190,-2027,3625,-274,10,-115
1,189,66742889,-167,-2037,3493,-268,65,-101
1,190,66750335,-167,-2037,3493,-267,63,-99
1,191,66757781,-98,-2043,3447,-233,47,-79
1,192,66765228,-112,-2058,3416,-227,54,-72
1,193,66772705,-182,-2111,3497,-219,53,-77
1,194,66780151,-182,-2111,3497,-215,70,-85
1,195,66787597,-276,-2154,3636,-216,97,-125
1,196,66795043,-352,-2178,3771,-216,99,-153
1,197,66802490,-329,-2196,3798,-224,78,-186
1,198,66809936,-329,-2196,3798,-246,37,-163
1,199,66817413,-205,-2267,3727,-294,-35,-162
1,200,66824920,-46,-2130,3563,-290,-44,-178
1,201,66832366,-30,-2046,3402,-271,21,-135
1,202,66839813,-30,-2046,3402,-276,86,-118
1,203,66847259,-168,-2028,3513,-281,109,-123
1,204,66854705,-251,-2135,3641,-271,118,-124
1,205,66862182,-252,-2195,3762,-277,0,-131
1,206,66869628,-252,-2195,3762,-294,-65,-137
1,207,66877075,-162,-2183,3604,-288,-58,-128
1,208,66884521,-75,-2128,3361,-269,-51,-123
1,209,66891967,4,-2116,3121,-194,21,-91
1,210,66899414,4,-2116,3121,-180,65,-73
1,211,66906890,5,-2276,3205,-175,82,-57
1,212,66914337,28,-2435,3393,-163,64,-39
1,213,66921875,47,-2388,3461,-147,-33,-15
1,214,66929321,47,-2388,3461,-151,-53,-6
1,215,66936767,-38,-2250,3386,-126,-61,-8
1,216,66944213,-154,-2076,3374,-114,-52,4
1,217,66951843,-244,-1960,3427,-95,-11,25
1,218,66959320,-244,-1960,3427,-65,4,25
1,219,66966766,-259,-1912,3409,-3,46,49
1,220,66974212,-264,-2047,3437,-13,50,65
1,221,66981658,-195,-2050,3389,23,35,31
1,222,66989105,-195,-2050,3389,63,45,34
1,223,66996582,-189,-2032,3263,117,97,45
1,224,67004028,-175,-2019,3210,151,114,36
1,225,67011474,-170,-2067,3178,225,160,50
1,226,67018920,-170,-2067,3178,233,181,76
1,227,67026367,-165,-2227,3325,243,167,86
1,228,67033813,-25,-2287,3457,253,155,79
1,229,67041290,-11,-2275,3557,293,163,41
1,230,67048797,-11,-2275,3557,277,158,69
1,231,67056243,-176,-2298,3738,202,112,98
1,232,67063690,-274,-2138,3773,207,77,75
1,233,67071136,-356,-2022,3669,220,-4,64
1,234,67078582,-356,-2022,3669,226,26,38
1,235,67086212,-409,-2024,3571,215,98,19
1,236,67093658,-403,-2116,3614,216,112,5
1,237,67101104,-357,-2204,3648,203,138,16
1,238,67108551,-357,-2204,3648,185,131,-10
1,239,67115997,-347,-2291,3763,148,94,-72
1,240,67123443,-254,-2403,3744,144,89,-81
1,241,67130950,-120,-2388,3632,130,67,-49
1,242,67138427,-120,-2388,3632,113,42,-70
1,243,67145874,-120,-2293,3556,61,36,-74
1,244,67153320,-200,-2244,3577,51,65,-62
1,245,67160766,-258,-2163,3714,42,-1,-83
1,246,67168212,-258,-2163,3714,58,30,-81
1,247,67175659,-332,-2124,3652,51,101,-101
1,248,67183105,-380,-2126,3806,22,70,-114
1,249,67190551,-327,-2145,3798,-9,17,-143
1,250,67198089,-327,-2145,3798,-15,-6,-144
1,251,67205535,-239,-2211,3640,-18,14,-119
1,252,67212982,-149,-2194,3426,-14,45,-113
1,253,67220428,-162,-2144,3409,-6,45,-124
1,254,67227966,-162,-2144,3409,-2,16,-120
1,255,67235412,-130,-2191,3464,-10,27,-100
1,256,67242858,-118,-2250,3586,-27,67,-86
1,257,67250305,-169,-2202,3788,-34,86,-96
1,258,67257751,-169,-2202,3788,-33,38,-103
1,259,67265197,-250,-2134,3853,-74,-61,-99
1,260,67272644,-311,-2073,3734,-93,-61,-108
1,261,67280090,-281,-2135,3742,-138,-42,-83
1,262,67287536,-281,-2135,3742,-148,-31,-81
1,263,67294982,-214,-2154,3728,-142,-18,-96
1,264,67302520,-162,-2139,3599,-124,-21,-100
1,265,67309997,-134,-2106,3404,-98,-67,-91
1,266,67317443,-134,-2106,3404,-85,-85,-78
1,267,67324890,-94,-2057,3196,-40,-78,-44
1,268,67332336,-42,-2035,3041,-8,-37,-25
1,269,67339782,-69,-2053,3198,36,99,-16
1,270,67347229,-69,-2053,3198,51,137,-18
1,271,67354675,-123,-2147,3571,48,118,7
1,272,67362121,-209,-2168,3863,30,82,4
1,273,67369567,-315,-2170,3978,-7,26,-26
1,274,67377014,-315,-2170,3978,-32,2,-32
1,275,67384460,-390,-2165,3976,-81,-17,-54
1,276,67391906,-360,-2165,3877,-96,-13,-66
1,277,67399353,-277,-2213,3808,-152,-28,-63
1,278,67406799,-277,-2213,3808,-165,-51,-63
1,279,67414245,-202,-2180,3649,-175,-63,-75
1,280,67421691,-195,-2131,3456,-167,-58,-79
1,281,67429138,-170,-2106,3320,-131,-43,-74
1,282,67436584,-170,-2106,3320,-108,-31,-67
1,283,67444030,-67,-2101,3262,-74,17,-57
1,284,67451507,-99,-2166,3339,-71,37,-53
1,285,67458953,-195,-2129,3451,-57,47,-60
1,286,67466400,-195,-2129,3451,-30,43,-66
1,287,67473846,-230,-2097,3501,-13,59,-61
1,288,67481292,-244,-2168,3643,-31,67,-56
1,289,67488739,-262,-2215,3790,-75,56,-69
1,290,67496185,-262,-2215,3790,-83,42,-78
1,291,67503631,-268,-2216,3803,-94,15,-87
1,292,67511138,-267,-2174,3716,-103,6,-93
1,293,67518585,-212,-2191,3597,-120,-16,-89
1,294,67526031,-212,-2191,3597,-122,-18,-86
1,295,67533477,-121,-2228,3466,-120,-6,-69
1,296,67540924,-62,-2219,3389,-110,-10,-69
1,297,67548370,-65,-2155,3271,-58,-20,-68
1,298,67555816,-65,-2155,3271,-39,-3,-60
1,299,67563262,-135,-2128,3256,-26,48,-43
1,300,67570709,-171,-2148,3409,-24,67,-36
1,301,67578155,-144,-2154,3590,-3,77,-28
1,302,67585601,-144,-2154,3590,-1,61,-25
1,303,67593048,-160,-2199,3682,-8,7,-29
1,304,67600494,-206,-2167,3622,-18,-2,-29
1,305,67607940,-208,-2185,3583,-34,24,-21
1,306,67615386,-208,-2185,3583,-43,30,-21
1,307,67622833,-168,-2254,3663,-59,10,-33
1,308,67630279,-167,-2258,3681,-65,2,-36
1,309,67637725,-189,-2210,3590,-65,-8,-32
1,310,67645172,-189,-2210,3590,-67,-21,-28
1,311,67652618,-183,-2174,3463,-70,-15,-20
1,312,67660064,-148,-2193,3409,-69,-10,-16
1,313,67667510,-148,-2214,3406,-48,21,-9
1,314,67674957,-148,-2214,3406,-35,30,-3
1,315,67682403,-146,-2207,3425,-25,30,4
1,316,67689849,-119,-2226,3464,-24,26,6
1,317,67697296,-94,-2252,3515,-14,35,10
1,318,67704742,-94,-2252,3515,-12,46,11
1,319,67712188,-154,-2251,3595,-27,38,10
1,320,67719635,-238,-2234,3681,-38,21,7
1,321,67727081,-262,-2228,3676,-56,-4,-4
1,322,67734527,-262,-2228,3676,-66,-7,-8
1,323,67741973,-261,-2230,3623,-81,-12,-22
1,324,67749420,-204,-2253,3555,-81,-14,-26
1,325,67756866,-142,-2261,3490,-76,-7,-32
1,326,67764312,-142,-2261,3490,-69,-7,-32
1,327,67771759,-135,-2220,3378,-37,0,-19
1,328,67779205,-197,-2173,3317,-42,28,-10
1,329,67786651,-188,-2234,3459,-58,39,-10
1,330,67794097,-188,-2234,3459,-42,35,-6
1,331,67801544,-144,-2287,3565,-24,41,-17
1,332,67808990,-175,-2269,3605,-32,31,-20
1,333,67816436,-219,-2245,3617,-54,12,-24
1,334,67823883,-219,-2245,3617,-64,5,-30
1,335,67831329,-220,-2252,3602,-67,7,-34
1,336,67838775,-175,-2263,3576,-68,1,-32
1,337,67846221,-104,-2309,3562,-86,-11,-40
1,338,67853668,-104,-2309,3562,-87,-14,-45
1,339,67861145,-101,-2369,3535,-105,-33,-2
1,340,67868591,-128,-2343,3471,-119,-56,5
1,341,67876037,-145,-2190,3337,-81,-72,-33
1,342,67883483,-145,-2190,3337,-59,-63,-21
1,343,67890930,-224,-2168,3275,-49,12,-16
1,344,67898406,-242,-2172,3384,-43,43,-20
1,345,67905853,-231,-2205,3519,-23,53,-21
1,346,67913299,-231,-2205,3519,-18,43,-17
1,347,67920745,-197,-2248,3561,-23,4,-18
1,348,67928192,-148,-2267,3476,-14,-12,-19
1,349,67935638,-128,-2287,3388,3,22,-19
1,350,67943176,-128,-2287,3388,-7,53,-20
1,351,67950622,-155,-2319,3533,-28,52,-20
1,352,67958068,-187,-2299,3673,-28,27,-25
1,353,67965515,-249,-2257,3627,-33,-8,-30
1,354,67972961,-249,-2257,3627,-41,-25,-33
1,355,67980407,-208,-2257,3507,-43,-37,-32
1,356,67987945,-110,-2301,3380,-37,-19,-35
1,357,67995452,-122,-2287,3355,-16,27,-37
1,358,68002899,-122,-2287,3355,-3,35,-34
1,359,68010375,-174,-2249,3375,13,33,-29
1,360,68017852,-173,-2238,3371,17,33,-22
1,361,68025329,-129,-2260,3449,17,49,-13
1,362,68032806,-129,-2260,3449,17,41,-7
1,363,68040252,-83,-2300,3541,23,29,-3
1,364,68047698,-132,-2298,3565,20,26,-2
1,365,68055145,-203,-2268,3556,7,20,-1
1,366,68062591,-203,-2268,3556,0,13,0
1,367,68070037,-218,-2283,3570,-27,23,-11
1,368,68077514,-217,-2309,3640,-35,24,-19
1,369,68084960,-220,-2292,3649,-39,8,-32
1,370,68092407,-220,-2292,3649,-34,-4,-36
1,371,68099853,-221,-2265,3533,-52,-8,-40
1,372,68107299,-183,-2279,3442,-60,-7,-43
1,373,68114746,-121,-2295,3407,-39,0,-43
1,374,68122222,-121,-2295,3407,-24,14,-38
1,375,68129669,-95,-2284,3377,-15,34,-18
1,376,68137115,-116,-2280,3370,-14,34,-8
1,377,68144561,-127,-2292,3423,-6,23,-11
1,378,68152008,-127,-2292,3423,2,23,-7
1,379,68159454,-129,-2302,3477,2,23,-3
1,380,68166931,-164,-2306,3529,-1,19,-4
1,381,68174377,-168,-2273,3510,1,-8,-1
1,382,68181823,-168,-2273,3510,4,-13,4
1,383,68189270,-157,-2258,3465,-1,-5,5
1,384,68196807,-172,-2262,3487,-5,4,5
1,385,68204254,-167,-2266,3519,2,-1,6
1,386,68211730,-167,-2266,3519,12,-10,12
1,387,68219177,-125,-2266,3449,31,-29,18
1,388,68226623,-111,-2253,3312,41,-27,23
1,389,68234161,-113,-2245,3245,58,10,36
1,390,68241607,-113,-2245,3245,62,35,46
1,391,68249053,-88,-2297,3373,85,51,40
1,392,68256530,-133,-2301,3509,100,40,42
1,393,68263977,-216,-2234,3524,107,27,49
1,394,68271423,-216,-2234,3524,90,21,52
1,395,68278869,-238,-2237,3584,47,17,43
1,396,68286315,-230,-2285,3702,39,12,40
1,397,68293762,-262,-2309,3775,13,9,19
1,398,68301239,-262,-2309,3775,4,-5,9
1,399,68308685,-306,-2283,3744,-31,-32,-14
1,400,68316131,-291,-2270,3657,-49,-34,-22
1,401,68323577,-215,-2286,3569,-61,-24,-36
1,402,68331024,-215,-2286,3569,-59,-18,-41
1,403,68338531,-158,-2281,3454,-45,-19,-44
1,404,68346160,-143,-2245,3333,-37,-1,-30
1,405,68353637,-131,-2244,3308,-30,15,-26
1,406,68361083,-101,-2270,3385,-9,39,-16
1,407,68368530,-101,-2270,3385,1,45,-10
1,408,68375976,-114,-2285,3464,17,34,-10
1,409,68383422,-155,-2282,3513,11,28,-10
1,410,68390930,-188,-2272,3552,4,16,-13
1,411,68398376,-188,-2272,3552,1,19,-13
1,412,68405822,-207,-2274,3566,-9,18,-11
1,413,68413269,-190,-2284,3587,-14,11,-15
1,414,68420715,-186,-2288,3545,-19,3,-21
1,415,68428161,-186,-2288,3545,-23,7,-23
1,416,68435668,-189,-2280,3517,-36,13,-15
1,417,68443115,-151,-2295,3529,-44,8,-12
1,418,68450561,-105,-2296,3481,-35,-13,-9
1,419,68458007,-105,-2296,3481,-27,-18,-6
1,420,68465454,-110,-2284,3415,-33,-9,4
1,421,68472900,-125,-2280,3435,-40,-4,5
1,422,68480346,-165,-2289,3518,-35,3,4
1,423,68487823,-165,-2289,3518,-37,1,7
1,424,68495269,-202,-2278,3559,-32,-20,4
1,425,68502716,-194,-2282,3537,-37,-31,6
1,426,68510162,-167,-2279,3508,-51,-30,3
1,427,68517608,-167,-2279,3508,-49,-23,4
1,428,68525054,-191,-2239,3464,-34,-5,-3
1,429,68532501,-251,-2200,3446,-31,4,-4
1,430,68539947,-236,-2266,3462,-35,7,-3
1,431,68547393,-236,-2266,3462,-35,9,-9
1,432,68554840,-124,-2335,3485,-24,24,-18
1,433,68562286,-111,-2358,3536,-21,30,-28
1,434,68569732,-167,-2394,3540,-32,7,1
1,435,68577178,-167,-2394,3540,-52,-14,2
1,436,68584625,-135,-2370,3477,-56,-43,-10
1,437,68592071,-109,-2349,3418,-47,-35,-9
1,438,68599517,-110,-2337,3445,-53,-16,4
1,439,68606964,-110,-2337,3445,-57,-10,1
1,440,68614410,-119,-2329,3506,-58,-38,0
1,441,68621856,-155,-2258,3488,-54,-52,-2
1,442,68629302,-211,-2191,3410,-39,-37,0
1,443,68636749,-211,-2191,3410,-30,-29,8
1,444,68644195,-220,-2165,3385,-22,4,5
1,445,68651641,-210,-2179,3433,-12,13,-4
1,446,68659240,-202,-2256,3471,9,26,2
1,447,68666687,-202,-2256,3471,7,26,4
1,448,68674133,-149,-2318,3511,4,-1,-2
1,449,68681579,-94,-2314,3433,17,-6,0
1,450,68689025,-158,-2275,3375,19,16,7
1,451,68696533,-158,-2275,3375,19,16,12
1,452,68703979,-161,-2277,3401,30,19,17
1,453,68711425,-131,-2305,3443,36,20,19
1,454,68718872,-135,-2314,3495,36,28,16
1,455,68726318,-135,-2314,3495,33,29,13
1,456,68733764,-171,-2312,3582,14,21,5
1,457,68741210,-214,-2296,3626,10,13,2
1,458,68748657,-232,-2281,3595,-6,-8,1
1,459,68756103,-232,-2281,3595,-15,-19,-2
1,460,68763549,-202,-2293,3515,-18,-22,-4
1,461,68770996,-119,-2317,3429,-15,-11,-8
1,462,68778442,-94,-2318,3402,1,6,-8
1,463,68785888,-94,-2318,3402,12,13,-7
1,464,68793334,-134,-2289,3367,37,14,0
1,465,68800872,-149,-2271,3329,42,16,7
1,466,68808349,-138,-2274,3384,28,25,23
1,467,68815795,-138,-2274,3384,31,28,16
1,468,68823242,-146,-2267,3470,65,29,22
1,469,68830688,-185,-2281,3515,63,29,26
1,470,68838134,-198,-2300,3605,25,25,14
1,471,68845581,-198,-2300,3605,13,15,9
1,472,68853027,-202,-2300,3663,16,-3,9
1,473,68860473,-185,-2298,3589,18,-16,8
1,474,68867919,-152,-2286,3434,20,-41,1
1,475,68875366,-152,-2286,3434,16,-34,0
1,476,68882812,-166,-2261,3343,4,42,2
1,477,68890258,-204,-2270,3494,2,57,3
1,478,68897705,-216,-2289,3660,0,32,0
1,479,68905151,-216,-2289,3660,-5,-1,-2
1,480,68912597,-198,-2290,3597,-7,-44,-7
1,481,68920043,-157,-2281,3414,-6,-36,-12
1,482,68927490,-104,-2287,3335,4,12,-5
1,483,68934936,-104,-2287,3335,11,34,-2
1,484,68942382,-69,-2294,3415,23,37,5
1,485,68949829,-105,-2280,3491,29,26,9
1,486,68957275,-159,-2271,3531,18,6,26
1,487,68964721,-159,-2271,3531,1,0,33
1,488,68972167,-178,-2251,3564,-5,-19,32
1,489,68979614,-199,-2245,3549,-5,-16,41
1,490,68987060,-177,-2265,3537,-18,-23,41
1,491,68994506,-177,-2265,3537,-16,-31,37
1,492,69001953,-162,-2250,3458,0,11,23
1,493,69009399,-232,-2273,3505,-4,39,17
1,494,69016845,-209,-2374,3687,-44,32,19
1,495,69024291,-209,-2374,3687,-68,12,7
1,496,69031738,-191,-2393,3812,-118,3,-26
1,497,69039184,-294,-2324,3939,-147,-2,-36
1,498,69046630,-379,-2344,4104,-238,-21,-62
1,499,69054077,-379,-2344,4104,-315,-37,-84
1,500,69061523,-402,-2495,4350,-492,-158,-119
1,501,69068969,-325,-2557,4486,-578,-214,-136
1,502,69076416,-217,-2671,4593,-768,-297,-181
1,503,69083862,-217,-2671,4593,-880,-356,-202
1,504,69091308,-147,-2813,4669,-1110,-451,-241
1,505,69098754,-67,-2737,4228,-1172,-420,-275
1,506,69106201,-229,-2612,3864,-1281,-378,-296
1,507,69113647,-229,-2612,3864,-1369,-316,-330
1,508,69121093,-575,-2250,3581,-1384,-271,-440
1,509,69128540,-630,-1972,3089,-1320,-271,-467
1,510,69135986,-262,-1853,2260,-1065,-98,-402
1,511,69143432,-262,-1853,2260,-921,-1,-350
1,512,69150878,223,-1811,1575,-601,96,-246
1,513,69158477,805,-1526,934,-399,104,-172
1,514,69165924,1340,-707,251,196,44,92
1,515,69173370,1340,-707,251,482,160,270
1,516,69180816,801,-840,77,1096,458,411
1,517,69188262,-324,-2101,715,1363,526,392
1,518,69195739,-306,-2455,1897,1626,512,412
1,519,69203216,-306,-2455,1897,1603,475,468
1,520,69210662,-5,-2718,3250,1398,416,419
1,521,69218109,-342,-3581,4951,1239,344,291
1,522,69225555,-733,-4063,6363,772,-104,94
1,523,69233001,-733,-4063,6363,451,-125,70
1,524,69240447,-1133,-4001,6780,-159,-25,-183
1,525,69247985,-1401,-3554,6877,-355,21,-457
1,526,69255432,-1537,-3048,6522,-638,132,-830
1,527,69262908,-1537,-3048,6522,-858,132,-939
1,528,69270355,-1433,-3363,6113,-1608,-116,-1036
1,529,69277801,-852,-3207,5100,-1845,-203,-1165
1,530,69285247,-38,-2460,4016,-2022,-244,-1278
1,531,69292724,-38,-2460,4016,-2057,-134,-1206
1,532,69300170,523,-1410,3299,-2045,39,-1005
1,533,69307617,764,-659,2899,-1998,97,-906
1,534,69315063,923,-939,2053,-1749,122,-523
1,535,69322509,923,-939,2053,-1516,331,-419
1,536,69329956,863,-1531,695,-755,674,-342
1,537,69337432,1267,-1557,-391,-331,766,-198
1,538,69344879,1509,-1457,-1071,412,933,153
1,539,69352325,1509,-1457,-1071,783,811,294
1,540,69359832,1193,-1945,-877,1313,475,379
1,541,69367279,420,-2066,87,1514,258,268
1,542,69374725,492,-825,1370,1779,-186,374
1,543,69382202,492,-825,1370,2061,-341,422
1,544,69389648,118,-1786,1755,2565,-75,511
1,545,69397155,8,-2721,2244,2731,125,524
1,546,69404602,475,-3278,2842,2895,635,655
1,547,69412048,475,-3278,2842,2735,834,1078
1,548,69419494,256,-3858,4742,2269,-126,853
1,549,69426971,-75,-4009,6493,1896,-950,507
1,550,69434417,-8,-3632,5761,1208,-1102,321
1,551,69441864,-8,-3632,5761,954,-988,357
1,552,69449310,-307,-3061,6186,479,-994,364
1,553,69456756,-487,-2915,5954,372,-604,285
1,554,69464202,-509,-2791,5741,168,-26,222
1,555,69471740,-509,-2791,5741,-6,166,210
1,556,69479187,-638,-2643,5610,-440,43,237
1,557,69486633,-729,-2066,5471,-653,-441,248
1,558,69494079,-650,-1490,3884,-848,-495,47
1,559,69501556,-650,-1490,3884,-746,-281,33
1,560,69509002,-345,-1208,2989,-614,127,218
1,561,69516510,-566,-2165,2623,-570,312,202
1,562,69523956,-578,-2622,3086,-558,136,-94
1,563,69531402,-578,-2622,3086,-534,-114,-163
1,564,69538940,-251,-2047,3054,-451,-237,-128
1,565,69546386,-236,-2176,2833,-397,-206,-138
1,566,69553833,71,-2358,3094,-367,-6,-172
1,567,69561309,71,-2358,3094,-326,83,-117
1,568,69568786,417,-2202,3120,-96,49,-1
1,569,69576232,192,-1712,2605,-27,199,8
1,570,69583679,-5,-1459,2534,149,314,0
1,571,69591125,-5,-1459,2534,313,359,-52
1,572,69598571,-29,-1922,2397,575,343,66
1,573,69606109,119,-2253,2489,643,287,132
1,574,69613647,399,-2577,2671,685,75,301
1,575,69621093,399,-2577,2671,693,18,471
1,576,69628540,581,-2702,2838,798,-5,410
1,577,69635986,681,-2357,3128,848,-59,438
1,578,69643432,321,-2418,3381,921,67,456
1,579,69650970,321,-2418,3381,870,4,454
1,580,69658447,-92,-2479,4018,707,-187,420
1,581,69665893,-328,-2382,4421,633,-277,382
1,582,69673339,-476,-2174,4414,541,-263,311
1,583,69680786,-476,-2174,4414,496,-165,290
1,584,69688232,-570,-2040,4299,377,26,251
1,585,69695678,-667,-1948,4369,299,43,222
1,586,69703155,-522,-1902,4438,142,15,175
1,587,69710601,-522,-1902,4438,74,-45,177
1,588,69718048,-146,-2171,4573,-107,-208,148
1,589,69725524,-50,-2481,4838,-252,-248,107
1,590,69732971,-252,-2398,5115,-564,-306,4
1,591,69740417,-252,-2398,5115,-672,-323,-33
1,592,69747863,-581,-2159,4951,-829,-239,-108
1,593,69755310,-862,-2072,4612,-911,-177,-157
1,594,69762908,-855,-2083,4392,-1110,-113,-278
1,595,69770355,-855,-2083,4392,-1199,-94,-332
1,596,69777801,-676,-2198,4281,-1355,-71,-462
1,597,69785247,-504,-2410,4136,-1405,-32,-537
1,598,69792694,-387,-2496,3686,-1394,171,-667
1,599,69800140,-387,-2496,3686,-1380,363,-734
1,600,69807586,-232,-2434,3099,-1154,589,-754
1,601,69815368,206,-1804,1860,-895,590,-660
1,602,69822814,490,-1705,948,-584,672,-396
1,603,69830261,490,-1705,948,-415,522,-336
1,604,69837707,924,-1849,459,66,121,-164
1,605,69845153,1552,-837,-233,417,112,19
1,606,69852600,961,-708,157,985,348,469
1,607,69860046,961,-708,157,1193,388,593
1,608,69867492,194,-1550,2174,1296,-278,668
1,609,69874938,960,-1817,6073,1588,-5406,554
1,610,69882476,520,-3215,-2493,-2307,-13282,443
1,611,69889953,520,-3215,-2493,-2038,-4469,-229
1,612,69897399,568,-4323,1735,450,-2592,266
1,613,69904846,1187,-3123,6221,1872,-678,478
1,614,69912292,413,-4038,10901,2141,30,390
1,615,69919738,413,-4038,10901,1455,-2320,20
1,616,69927185,848,-4036,7601,-151,-460,154
1,617,69934631,1303,-4097,5480,-877,-568,372
1,618,69942077,1255,-3831,6164,-2056,-311,514
1,619,69949523,1255,-3831,6164,-2417,-738,452
1,620,69956970,445,-3039,7353,-3093,-1677,55
1,621,69964416,-419,-2694,6289,-3486,-1860,-103
1,622,69971862,-309,-2541,4307,-3571,-1391,-268
1,623,69979309,-309,-2541,4307,-3401,-1255,-226
1,624,69986755,31,-2287,2577,-2791,-436,-179
1,625,69994201,425,-1777,1053,-2322,44,-278
1,626,70001647,946,-1028,-205,-1442,634,-402
1,627,70009094,946,-1028,-205,-993,1130,-358
1,628,70016540,1214,-616,-620,-287,1323,-183
1,629,70023986,1214,-942,433,-65,891,-100
1,630,70031433,1042,-1362,434,90,76,25
1,631,70038879,1042,-1362,434,111,-137,116
1,632,70046325,1018,-1552,256,255,-423,392
1,633,70053771,1202,-1765,675,377,-411,531
1,634,70061218,1201,-2174,1301,682,-102,650
1,635,70068664,1201,-2174,1301,833,87,686
1,636,70076110,994,-2681,2133,1064,411,583
1,637,70083557,744,-3181,3669,1089,325,439
1,638,70091003,221,-4515,11326,1334,-4449,26
1,639,70098449,221,-4515,11326,1411,-3731,-273
1,640,70105895,461,-3898,1741,1077,507,-316
1,641,70113342,640,-3343,2798,883,890,-219
1,642,70120788,574,-3004,3684,281,1745,-74
1,643,70128234,574,-3004,3684,19,1425,-109
1,644,70135681,816,-2749,4193,-401,760,-244
1,645,70143127,320,-2805,3417,-525,946,-316
1,646,70150573,201,-2761,3264,-539,1707,-367
1,647,70158020,201,-2761,3264,-461,1713,-368
1,648,70165466,383,-2867,4314,-335,851,-446
1,649,70172912,303,-2453,2634,-310,492,-502
1,650,70180358,1570,-1359,-2971,289,4019,-81
1,651,70187805,1570,-1359,-2971,349,4217,183
1,652,70195251,1154,-3310,6790,651,388,-339
1,653,70202697,777,-2727,3390,579,978,-339
1,654,70210144,958,-2566,2321,500,273,-314
1,655,70217590,958,-2566,2321,458,350,-224
1,656,70225036,719,-2779,2825,403,-374,-134
1,657,70232482,657,-2613,3261,193,-853,-31
1,658,70239929,1317,-2890,2793,92,-743,-52
1,659,70247375,1317,-2890,2793,196,-471,12
1,660,70254821,997,-2804,2829,351,80,109
1,661,70262268,659,-2722,3151,357,151,111
1,662,70269714,688,-2623,3035,262,258,83
1,663,70277160,688,-2623,3035,242,289,91
1,664,70284606,631,-2509,2855,257,420,125
1,665,70292053,641,-2502,2873,269,454,145
1,666,70299499,669,-2556,2843,290,491,169
1,667,70306945,669,-2556,2843,289,580,173
1,668,70314392,636,-2533,2823,300,656,200
1,669,70321838,604,-2454,3040,318,613,219
1,670,70329284,504,-2459,3461,388,334,263
1,671,70336730,504,-2459,3461,434,29,264
1,672,70344177,424,-2480,3552,504,-155,221
1,673,70351623,325,-2502,3402,497,-127,195
1,674,70359069,222,-2509,3547,418,107,135
1,675,70366516,222,-2509,3547,398,104,136
1,676,70373962,222,-2492,3605,403,124,89
1,677,70381408,285,-2419,3476,414,136,71
1,678,70388854,251,-2395,3405,381,161,45
1,679,70396301,251,-2395,3405,356,196,22
1,680,70403747,282,-2367,3455,339,174,4
1,681,70411193,440,-2495,3438,331,172,23
1,682,70418640,530,-2570,3520,300,142,22
1,683,70426086,530,-2570,3520,282,109,7
1,684,70433532,494,-2644,3667,256,59,-30
1,685,70440979,456,-2603,3593,243,62,-34
1,686,70448425,421,-2537,3490,178,82,-17
1,687,70455871,421,-2537,3490,144,95,-25
1,688,70463562,347,-2519,3511,90,45,-9
1,689,70471008,293,-2418,3389,79,39,-10
1,690,70478454,282,-2352,3297,93,44,-38
1,691,70485900,282,-2352,3297,103,74,-49
1,692,70493347,292,-2306,3253,135,142,-91
1,693,70500793,294,-2324,3318,147,152,-110
1,694,70508270,320,-2380,3284,152,165,-90
1,695,70515716,320,-2380,3284,153,187,-104
1,696,70523162,397,-2477,3374,126,185,-45
1,697,70530609,454,-2593,3451,105,190,-61
1,698,70538055,487,-2607,3575,58,136,-93
1,699,70545501,487,-2607,3575,43,142,-110
1,700,70553039,433,-2493,3512,50,163,-119
1,701,70560485,342,-2370,3452,49,160,-122
1,702,70567993,285,-2366,3478,29,157,-127
1,703,70575469,285,-2366,3478,8,177,-129
1,704,70582916,298,-2344,3500,8,95,-138
1,705,70590362,371,-2305,3374,20,114,-148
1,706,70597900,390,-2316,3302,66,130,-156
1,707,70605346,390,-2316,3302,85,35,-156
1,708,70612792,413,-2413,3357,-37,-406,-155
1,709,70620239,618,-2414,2994,-7,-288,-137
1,710,70627685,636,-2415,3005,120,-127,-79
1,711,70635131,636,-2415,3005,165,85,-71
1,712,70642608,545,-2451,3260,207,88,-67
1,713,70650054,540,-2398,3463,213,15,-66
1,714,70657501,540,-2348,3313,222,-73,-58
1,715,70664978,540,-2348,3313,239,-92,-45
1,716,70672424,546,-2334,3226,263,-63,-29
1,717,70679870,575,-2327,3140,283,-2,-16
1,718,70687347,602,-2311,3222,329,20,12
1,719,70694793,602,-2311,3222,342,-4,24
1,720,70702392,616,-2326,3280,379,-46,33
1,721,70709838,630,-2298,3131,416,-30,50
1,722,70717285,574,-2273,3118,486,2,74
1,723,70724731,574,-2273,3118,515,6,81
1,724,70732208,499,-2250,3199,563,45,85
1,725,70739654,485,-2245,3289,581,61,86
1,726,70747100,405,-2221,3507,569,73,88
1,727,70754547,405,-2221,3507,538,25,100
1,728,70761993,294,-2139,3742,494,-120,86
1,729,70769439,279,-2073,3688,503,-145,77
1,730,70776916,306,-2070,3557,513,-104,81
1,731,70784362,306,-2070,3557,507,-68,79
1,732,70791809,357,-2093,3540,513,-69,77
1,733,70799255,450,-2074,3375,538,-75,86
1,734,70806701,459,-1935,3101,605,-12,116
1,735,70814147,459,-1935,3101,629,81,155
1,736,70821624,420,-1967,3002,740,178,158
1,737,70829071,660,-2093,3208,796,157,151
1,738,70836517,601,-2051,3177,908,310,190
1,739,70843963,601,-2051,3177,948,390,187
1,740,70851409,401,-1984,3472,1005,423,184
1,741,70858856,252,-1846,3636,1033,422,189
1,742,70866333,204,-1762,3553,1090,468,195
1,743,70873779,204,-1762,3553,1127,495,201
1,744,70881225,222,-1707,3531,1164,576,205
1,745,70888671,231,-1759,3763,1144,601,202
1,746,70896118,273,-1860,4005,1058,493,164
1,747,70903625,273,-1860,4005,1027,419,143
1,748,70911071,293,-1809,3933,1005,316,113
1,749,70918518,248,-1719,3754,1008,278,105
1,750,70925964,235,-1658,3509,1055,305,94
1,751,70933410,235,-1658,3509,1099,356,90
1,752,70940856,206,-1628,3380,1213,472,82
1,753,70948303,154,-1562,3419,1270,535,75
1,754,70955749,85,-1470,3685,1321,590,50
1,755,70963195,85,-1470,3685,1334,619,37
1,756,70970642,-11,-1391,3991,1332,468,8
1,757,70978088,17,-1367,4148,1327,372,-6
1,758,70985534,40,-1360,4090,1332,386,-27
1,759,70992980,40,-1360,4090,1275,291,-14
1,760,71000427,70,-1369,4131,1197,423,50
1,761,71007873,110,-1311,4244,1119,471,61
1,762,71015319,29,-1200,4569,989,409,35
1,763,71022766,29,-1200,4569,947,328,2
1,764,71030212,-59,-1106,4633,874,198,-11
1,765,71037658,-57,-1092,4461,838,169,-6
1,766,71045104,15,-1069,4311,772,215,-14
1,767,71052551,15,-1069,4311,732,229,-13
1,768,71059997,31,-1069,4400,607,194,-11
1,769,71067443,-10,-1002,4504,548,139,-29
1,770,71074890,-86,-971,4394,474,-1,-54
1,771,71082336,-86,-971,4394,466,-34,-58
1,772,71089813,-87,-939,4065,507,34,-71
1,773,71097320,-76,-916,3870,528,119,-80
1,774,71104766,-49,-922,3952,558,229,-85
1,775,71112213,-49,-922,3952,569,243,-86
1,776,71119659,10,-934,4015,580,261,-82
1,777,71127166,3,-903,4030,592,264,-86
1,778,71134613,-15,-864,4067,603,269,-82
1,779,71142059,-15,-864,4067,614,257,-78
1,780,71149505,-46,-856,4026,652,266,-77
1,781,71156951,-78,-817,3953,666,311,-84
1,782,71164398,-66,-791,4097,651,350,-90
1,783,71171844,-66,-791,4097,633,364,-77
1,784,71179290,-11,-741,4257,545,327,-47
1,785,71186737,23,-680,4486,485,267,-46
1,786,71194183,-12,-650,4531,400,97,-69
1,787,71201629,-12,-650,4531,389,17,-80
1,788,71209075,-86,-668,4243,403,-21,-89
1,789,71216522,-98,-682,3880,418,44,-83
1,790,71223968,-87,-684,3840,455,137,-90
1,791,71231414,-87,-684,3840,477,168,-99
1,792,71238861,-123,-660,3915,519,183,-112
1,793,71246307,-132,-638,4106,520,133,-118
1,794,71253753,-123,-626,4072,531,66,-100
1,795,71261199,-123,-626,4072,532,102,-89
1,796,71268646,-125,-614,3989,518,165,-87
1,797,71276092,-75,-578,4154,510,182,-97
1,798,71283538,-87,-559,4414,452,115,-86
1,799,71290985,-87,-559,4414,421,50,-78
1,800,71298431,-20,-461,4430,386,-42,-73
1,801,71305877,-24,-501,4183,379,-12,-69
1,802,71313323,-126,-521,4112,379,30,-79
1,803,71320770,-126,-521,4112,390,38,-78
1,804,71328216,-143,-486,4114,396,54,-71
1,805,71335662,-87,-475,4106,393,48,-70
1,806,71343109,-84,-472,4091,380,82,-50
1,807,71350555,-84,-472,4091,374,94,-38
1,808,71358001,-64,-462,4154,358,80,-30
1,809,71365447,-52,-415,4063,353,158,-28
1,810,71372894,-60,-339,4646,326,-13,-15
1,811,71380340,-60,-339,4646,171,76,12
1,812,71387786,-23,-209,5057,76,-271,0
1,813,71395233,-134,-251,4414,105,-215,24
1,814,71402679,-139,-405,4116,116,-48,31
1,815,71410125,-139,-405,4116,91,-7,34
1,816,71417572,-105,-380,4168,75,41,36
1,817,71425018,-100,-368,4151,69,58,38
1,818,71432464,-125,-361,4123,63,104,41
1,819,71439910,-125,-361,4123,64,114,45
1,820,71447357,-129,-354,4170,72,82,47
1,821,71454803,-143,-370,4226,61,58,42
1,822,71462249,-176,-364,4194,33,22,30
1,823,71469696,-176,-364,4194,20,-9,21
1,824,71477203,-177,-374,4191,-6,-43,6
1,825,71484649,-169,-390,4152,-10,-48,-4
1,826,71492095,-157,-340,4093,2,-31,-8
1,827,71499603,-157,-340,4093,14,5,-7
1,828,71507049,-178,-359,4071,61,42,-22
1,829,71514495,-212,-360,4035,87,70,-29
1,830,71521942,-160,-338,4182,75,47,-40
1,831,71529388,-160,-338,4182,68,47,-36
1,832,71536834,-134,-356,4178,51,49,-30
1,833,71544281,-145,-433,4174,52,34,-24
1,834,71551727,-150,-406,4122,44,6,-25
1,835,71559173,-150,-406,4122,44,-1,-39
1,836,71566619,-178,-388,4112,40,-48,-58
1,837,71574066,-175,-404,4066,58,-45,-63
1,838,71581512,-145,-403,4078,92,-91,-75
1,839,71588958,-145,-403,4078,104,-83,-88
1,840,71596405,-110,-333,4077,112,-43,-80
1,841,71603851,-43,-344,4256,99,-57,-73
1,842,71611450,-62,-282,4124,76,-39,-68
1,843,71618896,-62,-282,4124,100,-14,-67
1,844,71626342,-133,-307,4150,89,-38,-61
1,845,71633789,-150,-319,4068,112,-36,-76
1,846,71641235,-161,-384,4140,122,-100,-92
1,847,71648681,-161,-384,4140,129,-145,-111
1,848,71656127,-151,-367,4015,189,-168,-117
1,849,71663574,-67,-297,4111,181,-187,-106
1,850,71671020,-47,-199,4215,151,-206,-74
1,851,71678588,-47,-199,4215,132,-218,-61
1,852,71686035,-69,-135,4216,108,-182,-38
1,853,71693481,-42,-112,4191,105,-178,-22
1,854,71700988,-39,-227,4104,110,-145,-34
1,855,71708435,-39,-227,4104,137,-119,-39
1,856,71715881,-4,-283,4085,154,-145,-23
1,857,71723388,-6,-322,4106,165,-159,-15
1,858,71730834,-12,-307,4055,198,-182,-16
1,859,71738342,-12,-307,4055,219,-199,-19
1,860,71745788,-26,-301,4057,267,-233,-19
1,861,71753234,-57,-310,4080,286,-251,-26
1,862,71760681,12,-231,4162,286,-277,-43
1,863,71768157,12,-231,4162,275,-276,-14
1,864,71775604,220,-178,4229,235,-225,80
1,865,71783050,244,-100,4216,224,-205,112
1,866,71790496,34,-134,4163,204,-195,135
1,867,71797943,34,-134,4163,212,-189,124
1,868,71805389,-44,-164,4114,236,-232,100
1,869,71812866,-42,-198,4044,262,-246,88
1,870,71820312,44,-179,4018,318,-282,82
1,871,71827758,44,-179,4018,351,-298,80
1,872,71835205,33,-168,4035,405,-320,66
1,873,62896118,100,-46,4149,-5,5,-1
1,874,62903656,97,-44,4149,-4,4,1
1,875,62911102,100,-42,4148,-2,5,1
1,876,62918548,100,-37,4146,-1,3,2
1,877,62925994,97,-46,4143,-1,6,0
1,878,62933441,97,-46,4143,-1,6,-1
1,879,62940887,97,-44,4145,-4,3,-1
1,880,62948394,96,-39,4146,-3,3,2
1,881,62955841,102,-41,4145,-3,7,0
1,882,62963287,102,-41,4145,-3,6,0
1,883,62970733,93,-40,4151,-1,4,1
1,884,62978179,91,-50,4154,-4,5,-1
1,885,62985626,93,-47,4155,-4,3,0
1,886,62993164,93,-47,4155,-1,4,1
1,887,63000610,100,-38,4146,-1,3,1
1,888,63008056,106,-41,4144,-1,4,1
1,889,63015502,104,-41,4148,-1,4,-2
1,890,63023010,104,-41,4148,-1,3,3
1,891,63030456,106,-36,4149,-3,5,1
1,892,63037902,108,-41,4146,-3,3,2
1,893,63045349,104,-43,4149,-3,5,0
1,894,63052795,104,-43,4149,-4,2,-1
1,895,63060241,98,-42,4155,-3,3,2
1,896,63067687,94,-44,4154,-2,4,-1
1,897,63075134,101,-42,4148,-2,4,2
1,898,63082611,101,-42,4148,-1,5,-1
1,899,63090057,102,-40,4144,-4,5,0
1,900,63097503,95,-41,4148,-2,4,3
1,901,63104949,95,-42,4150,-3,6,-1
1,902,63112396,95,-42,4150,-4,7,1
1,903,63119842,97,-40,4148,-1,5,0
1,904,63127380,97,-40,4145,-3,5,0
1,905,63134857,91,-41,4146,-2,5,1
1,906,63142303,91,-41,4146,-2,6,1
1,907,63149749,93,-41,4150,-1,2,1
1,908,63157196,101,-39,4147,-2,3,2
1,909,63164642,100,-40,4153,-3,5,1
1,910,63172119,100,-40,4153,-3,4,1
1,911,63179565,100,-37,4146,-3,7,2
1,912,63187011,99,-40,4151,-4,4,1
1,913,63194458,95,-43,4152,0,4,0
1,914,63201904,95,-43,4152,-4,6,1
1,915,63209350,94,-47,4155,-2,5,1
1,916,63216918,101,-48,4147,-3,5,1
1,917,63224365,100,-40,4146,-3,4,0
1,918,63231811,100,-40,4146,-4,2,1
1,919,63239257,95,-46,4155,-3,6,0
1,920,63246704,96,-44,4152,-2,2,1
1,921,63254150,95,-46,4150,-2,4,1
1,922,63261718,95,-46,4150,0,5,0
1,923,63269165,107,-38,4151,-2,4,0
1,924,63276611,104,-38,4153,-3,3,2
1,925,63284057,96,-36,4152,-1,4,1
1,926,63291503,96,-36,4152,-3,4,0
1,927,63298950,97,-41,4151,-3,6,1
1,928,63306427,96,-41,4150,-2,4,0
1,929,63313873,100,-46,4145,-5,3,0
1,930,63321319,100,-46,4145,-3,3,0
1,931,63328765,96,-43,4147,-1,4,2
1,932,63336212,100,-42,4149,-1,4,1
1,933,63343658,105,-47,4148,-3,5,1
1,934,63351196,105,-47,4148,-4,4,3
1,935,63358642,95,-44,4153,-2,5,1
1,936,63366119,101,-43,4150,-3,5,1
1,937,63373565,101,-45,4141,-3,4,1
1,938,63381011,101,-45,4141,-3,4,1
1,939,63388458,102,-42,4143,0,6,1
1,940,63395904,98,-41,4151,-1,5,1
1,941,63403350,96,-39,4146,-1,5,1
1,942,63410797,96,-39,4146,0,4,-1
1,943,63418243,96,-36,4151,-4,6,0
1,944,63425689,96,-43,4146,-4,4,1
1,945,63433135,98,-44,4146,-3,4,2
1,946,63440582,98,-44,4146,-2,5,1
1,947,63448028,93,-42,4140,-2,5,0
1,948,63455474,99,-38,4153,1,4,1
1,949,63462921,99,-39,4149,-5,6,0
1,950,63470367,99,-39,4149,0,0,2
1,951,63477813,77,-225,4147,-44,16,-59
1,952,63485260,17,-408,4149,-34,6,-163
1,953,63492706,179,83,4136,-2,32,-94
1,954,63500152,179,83,4136,6,18,-39
1,955,63507598,-78,-2068,4149,1,-44,-151
1,956,63515045,-522,-1990,4184,4,2,-283
1,957,63522491,-353,-764,4166,-7,13,-535
1,958,63529937,-353,-764,4166,-16,9,-629
1,959,63537384,143,-145,4169,-6,20,-613
1,960,63544830,695,330,4131,-12,2,-510
1,961,63552276,220,12,4096,-12,1,-380
1,962,63559722,220,12,4096,-9,-5,-323
1,963,63567169,-6,96,4163,-11,14,-227
1,964,63574615,190,595,4151,2,23,-176
1,965,63582061,-706,938,4241,-30,42,-287
1,966,63589508,-706,938,4241,-65,46,-466
1,967,63596954,20,1087,4622,-367,87,-167
1,968,63604400,380,-213,5491,-637,454,-41
1,969,63611846,-611,-386,4324,-901,693,-254
1,970,63619293,-611,-386,4324,-903,699,-390
1,971,63626770,-400,117,4017,-884,830,-574
1,972,63634216,-228,-143,4123,-865,844,-618
1,973,63641662,-128,-7,4147,-788,1125,-570
1,974,63649108,-128,-7,4147,-765,1147,-531
1,975,63656555,-92,-70,4488,-768,950,-423
1,976,63664001,-325,-323,4478,-802,920,-415
1,977,63671447,-422,-425,4237,-824,985,-430
1,978,63678894,-422,-425,4237,-837,969,-431
1,979,63686401,47,-352,4393,-899,963,-320
1,980,63693847,206,-386,4751,-968,929,-250
1,981,63701293,58,-348,5107,-1126,880,-157
1,982,63708740,58,-348,5107,-1224,832,-132
1,983,63716186,41,-182,5491,-1380,645,-55
1,984,63723632,307,-52,5590,-1440,523,15
1,985,63731079,442,-97,5648,-1538,188,176
1,986,63738525,442,-97,5648,-1559,19,241
1,987,63745971,246,-231,5518,-1630,-375,342
1,988,63753448,-93,-273,5243,-1669,-589,352
1,989,63760894,-461,-328,4926,-1748,-969,259
1,990,63768341,-461,-328,4926,-1778,-1077,206
1,991,63775787,-480,-401,4602,-1956,-1369,-58
1,992,63783233,-510,-778,4216,-2077,-1597,19
1,993,63790679,-548,-1028,3298,-1911,-1203,110
1,994,63798187,-548,-1028,3298,-1833,-1083,119
1,995,63805633,-208,-1106,3235,-1749,-915,180
1,996,63813079,-61,-1149,3349,-1724,-870,188
1,997,63820526,8,-1216,3466,-1706,-855,215
1,998,63827972,8,-1216,3466,-1731,-875,216
1,999,63835418,101,-1073,3928,-1896,-735,186
