event_id,seq,ts_us,ax,ay,az,gx,gy,gz
1,0,23121978,109,-36,4151,-2,4,-1
1,1,23129425,107,-37,4138,-3,5,-2
1,2,23136871,106,-36,4145,0,2,-1
1,3,23144317,106,-36,4145,-2,4,0
1,4,23151763,103,-37,4157,-3,5,-1
1,5,23159210,108,-40,4157,-3,5,0
1,6,23166656,110,-38,4156,-3,4,0
1,7,23174102,110,-38,4156,-2,3,0
1,8,23181549,108,-38,4157,-4,4,-1
1,9,23189147,99,-41,4147,-3,3,-1
1,10,23196594,97,-40,4151,-4,4,1
1,11,23204132,97,-40,4151,-4,6,1
1,12,23211578,103,-39,4156,-3,6,-1
1,13,23219024,109,-49,4151,-2,6,-1
1,14,23226470,103,-44,4153,-3,3,0
1,15,23233917,103,-44,4153,-2,4,-3
1,16,23241363,102,-36,4153,-2,6,0
1,17,23248809,103,-38,4149,-3,6,-1
1,18,23256256,104,-39,4150,0,3,0
1,19,23263702,104,-39,4150,-2,4,-2
1,20,23271148,102,-40,4143,-2,3,0
1,21,23278594,105,-42,4143,-2,3,-3
1,22,23286041,111,-37,4150,0,6,0
1,23,23293487,111,-37,4150,0,6,3
1,24,23300933,113,-43,4154,0,4,-2
1,25,23308471,105,-38,4140,-2,5,-1
1,26,23315948,108,-36,4141,0,3,0
1,27,23323394,108,-36,4141,-1,5,-2
1,28,23330841,114,-40,4143,-1,5,0
1,29,23338287,102,-36,4145,-1,3,0
1,30,23345733,107,-36,4151,-3,5,-2
1,31,23353179,107,-36,4151,-3,5,-1
1,32,23360626,102,-37,4153,-2,4,0
1,33,23368072,99,-40,4154,-3,5,0
1,34,23375518,106,-43,4151,-2,5,-2
1,35,23382965,106,-43,4151,-2,4,-2
1,36,23390411,107,-36,4144,-2,3,2
1,37,23397888,105,-35,4150,-3,3,0
1,38,23405334,104,-38,4149,-2,4,0
1,39,23412780,104,-38,4149,-4,5,1
1,40,23420227,101,-36,4150,-2,6,-2
1,41,23427673,102,-41,4146,-3,7,0
1,42,23435119,102,-39,4149,-2,4,-1
1,43,23442565,102,-39,4149,-2,3,1
1,44,23450012,105,-44,4147,-4,4,-1
1,45,23457458,105,-36,4163,-1,4,1
1,46,23464904,101,-37,4148,-2,5,0
1,47,23472351,101,-37,4148,-2,6,1
1,48,23479797,100,-35,4147,-3,3,1
1,49,23487243,108,-38,4146,-3,3,0
1,50,23494689,101,-41,4157,-1,7,0
1,51,23502136,101,-41,4157,-4,7,-3
1,52,23509582,110,-40,4150,0,4,1
1,53,23517028,105,-41,4150,-2,5,0
1,54,23524475,102,-39,4149,-1,6,1
1,55,23531921,102,-39,4149,-2,4,1
1,56,23539367,114,-36,4145,-4,5,-3
1,57,23546813,112,-43,4149,-1,6,-1
1,58,23554260,107,-40,4150,-2,2,-2
1,59,23561706,107,-40,4150,-2,4,-2
1,60,23569152,103,-38,4148,-1,4,1
1,61,23576599,106,-37,4144,-2,6,0
1,62,23584045,105,-37,4149,-3,3,1
1,63,23591491,105,-37,4149,0,4,2
1,64,23598937,107,-38,4154,-1,6,-2
1,65,23606384,98,-38,4147,-3,7,-2
1,66,23613861,107,-38,4150,-3,5,1
1,67,23621307,107,-38,4150,-2,5,-1
1,68,23628814,107,-36,4150,-2,4,0
1,69,23636260,107,-37,4153,-3,5,-2
1,70,23643707,102,-41,4147,-2,6,0
1,71,23651153,102,-41,4147,-2,6,1
1,72,23658599,103,-38,4152,-4,2,0
1,73,23666046,107,-39,4144,-3,7,1
1,74,23673492,109,-38,4144,-2,5,-2
1,75,23680938,109,-38,4144,-1,4,0
1,76,23688385,109,-37,4152,-4,3,0
1,77,23695831,109,-44,4153,-3,5,0
1,78,23703277,108,-39,4145,-2,6,-1
1,79,23710723,108,-39,4145,-3,8,-2
1,80,23718170,103,-37,4144,-2,4,1
1,81,23725616,104,-38,4148,-1,6,0
1,82,23733062,109,-36,4149,-2,4,0
1,83,23740509,109,-36,4149,-2,3,-1
1,84,23747955,113,-40,4152,-3,5,-1
1,85,23755401,110,-38,4154,-2,5,-1
1,86,23762847,103,-41,4152,-2,6,-3
1,87,23770294,103,-41,4152,-3,3,-1
1,88,23777740,100,-38,4151,-4,4,-2
1,89,23785186,102,-39,4143,-1,6,-3
1,90,23792633,111,-39,4143,-4,6,-1
1,91,23800079,111,-39,4143,-2,2,1
1,92,23807525,107,-40,4155,-3,7,-1
1,93,23814971,104,-42,4155,-2,5,-2
1,94,23822418,103,-36,4150,-1,5,0
1,95,23829864,103,-36,4150,-1,6,0
1,96,23837310,101,-37,4144,-3,4,1
1,97,23844757,101,-39,4154,0,4,1
1,98,23852203,105,-34,4146,-3,2,0
1,99,23859649,105,-34,4146,-2,4,0
1,100,23867095,106,-41,4142,-3,4,0
1,101,23874542,110,-43,4151,-2,6,0
1,102,23881988,107,-38,4154,2,4,-2
1,103,23889434,107,-38,4154,-3,7,-1
1,104,23896881,105,-35,4145,-2,5,0
1,105,23904327,105,-44,4143,0,3,0
1,106,23911773,105,-45,4147,-2,5,-1
1,107,23919219,105,-45,4147,-5,6,-1
1,108,23926666,104,-36,4152,1,5,0
1,109,23934112,105,-38,4148,-1,5,1
1,110,23941558,101,-36,4154,0,5,1
1,111,23949005,101,-36,4154,-1,5,0
1,112,23956451,106,-42,4149,-1,4,-1
1,113,23963897,105,-40,4153,-2,3,1
1,114,23971343,105,-43,4148,-1,5,-1
1,115,23978790,105,-43,4148,-2,3,2
1,116,23986236,105,-36,4145,-3,2,-1
1,117,23993682,101,-34,4150,-3,3,0
1,118,24001129,107,-37,4146,-4,5,0
1,119,24008605,107,-37,4146,-4,5,-1
1,120,24016082,114,-39,4149,0,4,2
1,121,24023559,108,-40,4157,-1,6,1
1,122,24031036,104,-39,4150,-2,2,1
1,123,24038482,104,-39,4150,-2,5,0
1,124,24045928,101,-38,4150,-2,4,-1
1,125,24053375,104,-40,4146,-3,3,-2
1,126,24060821,106,-37,4147,-4,4,0
1,127,24068267,106,-37,4147,-4,3,-1
1,128,24075714,100,-40,4153,-1,5,0
1,129,24083160,108,-39,4147,-3,2,-2
1,130,24090606,111,-34,4143,-3,4,3
1,131,24098052,111,-34,4143,-4,6,0
1,132,24105499,106,-40,4148,-4,7,0
1,133,24113037,101,-41,4151,-2,6,1
1,134,24120483,108,-44,4160,-1,5,0
1,135,24127929,108,-44,4160,-2,4,1
1,136,24135467,104,-37,4149,-1,5,-2
1,137,24142913,99,-37,4145,-2,4,-2
1,138,24150360,109,-39,4153,-3,7,-2
1,139,24157806,109,-39,4153,-3,5,1
1,140,24165252,108,-36,4149,-1,4,-1
1,141,24172729,102,-38,4148,-1,5,1
1,142,24180175,105,-37,4151,-2,7,0
1,143,24187622,105,-37,4151,-2,4,1
1,144,24195068,99,-36,4146,-2,4,1
1,145,24202514,107,-41,4143,-2,5,1
1,146,24210052,106,-38,4147,-4,4,-1
1,147,24217498,106,-38,4147,-3,6,-2
1,148,24224945,105,-40,4149,-3,2,0
1,149,24232391,105,-39,4148,-3,2,0
1,150,24239837,103,-39,4155,-3,5,-2
1,151,24247283,103,-39,4155,-1,5,0
1,152,24254730,107,-40,4153,-3,4,1
1,153,24262176,105,-34,4149,-2,5,0
1,154,24269622,105,-42,4152,-4,5,-1
1,155,24277069,105,-42,4152,-3,5,0
1,156,24284515,104,-43,4147,-2,5,-3
1,157,24291961,109,-43,4151,-2,6,-1
1,158,24299407,105,-39,4149,-3,6,0
1,159,24306854,105,-39,4149,-1,2,1
1,160,24314392,107,-43,4151,-2,1,-1
1,161,24321868,103,-42,4148,-1,6,0
1,162,24329315,98,-43,4147,-3,4,1
1,163,24336761,98,-43,4147,-5,6,0
1,164,24344207,106,-42,4150,-2,5,0
1,165,24351654,101,-43,4141,-3,2,0
1,166,24359100,104,-37,4145,-4,5,0
1,167,24366546,104,-37,4145,-2,4,-1
1,168,24373992,108,-33,4143,-2,4,2
1,169,24381439,104,-34,4148,-2,4,0
1,170,24388885,109,-40,4154,-1,4,-1
1,171,24396331,109,-40,4154,-4,3,1
1,172,24403900,98,-44,4154,-2,4,0
1,173,24411376,105,-45,4151,-2,4,-1
1,174,24418823,104,-46,4149,0,4,0
1,175,24426269,104,-46,4149,-2,2,1
1,176,24433715,104,-49,4145,-1,4,1
1,177,24441162,111,-38,4149,-2,3,-2
1,178,24448760,103,-39,4148,-3,7,3
1,179,24456207,103,-39,4148,-4,6,0
1,180,24463653,100,-46,4149,0,4,1
1,181,24471099,106,-41,4152,-3,5,1
1,182,24478546,103,-43,4144,-2,5,-1
1,183,24485992,103,-43,4144,-2,2,-2
1,184,24493896,103,-41,4139,-1,5,0
1,185,24501342,104,-39,4143,-1,3,0
1,186,24508789,108,-41,4152,-1,3,-3
1,187,24516235,104,-42,4150,-4,7,0
1,188,24523681,104,-42,4150,0,3,0
1,189,24531127,106,-40,4147,-3,3,2
1,190,24538665,104,-47,4149,-2,6,-1
1,191,24546112,103,-43,4156,-1,5,0
1,192,24553649,103,-43,4156,-3,6,-2
1,193,24561096,109,-40,4153,-2,1,0
1,194,24568542,107,-42,4151,-2,4,0
1,195,24575988,111,-40,4153,-2,4,2
1,196,24583862,111,-40,4153,-3,5,-1
1,197,24591308,112,-41,4155,-2,5,0
1,198,24598846,108,-40,4139,-3,3,0
1,199,24606323,100,-44,4142,-3,3,-1
1,200,24613769,100,-44,4142,-3,5,-2
1,201,24621215,102,-42,4148,1,3,1
1,202,24628662,100,-39,4145,-1,3,1
1,203,24636108,106,-39,4151,-4,6,-2
1,204,24643554,106,-39,4151,-3,4,0
1,205,24651000,106,-38,4139,-1,2,0
1,206,24658447,106,-39,4155,-2,2,-1
1,207,24665893,104,-42,4149,-3,6,-2
1,208,24673889,104,-42,4149,-3,4,4
1,209,24681335,104,-43,4147,-4,5,-2
1,210,24688781,103,-37,4145,-3,4,0
1,211,24696228,107,-46,4148,-1,5,0
1,212,24703674,107,-46,4148,-3,4,-1
1,213,24711120,107,-44,4150,-4,4,2
1,214,24718627,106,-40,4150,-1,5,0
1,215,24726074,110,-38,4152,-3,5,-1
1,216,24733520,110,-38,4152,-5,5,-1
1,217,24741058,112,-40,4148,-2,5,-2
1,218,24748535,107,-37,4140,-2,6,-2
1,219,24755981,104,-40,4146,0,5,0
1,220,24763702,104,-40,4146,-1,4,-3
1,221,24771148,108,-41,4150,0,4,-2
1,222,24778594,106,-36,4143,-2,5,1
1,223,24786041,112,-42,4141,-4,3,0
1,224,24793487,112,-42,4141,-3,4,1
1,225,24800933,110,-41,4149,-1,3,1
1,226,24808868,102,-41,4147,-1,4,0
1,227,24816314,102,-34,4144,-2,9,-3
1,228,24823760,102,-34,4144,-2,6,0
1,229,24831207,100,-40,4157,-1,4,1
1,230,24838653,102,-38,4146,-1,6,0
1,231,24846099,108,-38,4150,-2,7,-2
1,232,24853637,108,-38,4150,-1,4,0
1,233,24861083,109,-35,4144,-3,3,0
1,234,24868530,109,-37,4149,-3,4,-3
1,235,24875976,110,-39,4152,-4,3,0
1,236,24883422,110,-39,4152,-3,5,-1
1,237,24890869,111,-39,4146,-3,4,0
1,238,24898864,103,-40,4142,-1,4,1
1,239,24906311,100,-41,4150,-4,5,1
1,240,24913818,107,-37,4145,-3,4,-1
1,241,24921295,107,-37,4145,-5,2,1
1,242,24928741,118,-37,4148,0,4,0
1,243,24936187,107,-42,4152,-2,3,0
1,244,24943664,106,-43,4148,-3,4,-1
1,245,24951110,106,-43,4148,-4,3,0
1,246,24958557,112,-34,4147,-4,8,-2
1,247,24966003,107,-38,4143,-2,5,0
1,248,24973449,105,-39,4151,-6,5,-1
1,249,24980895,105,-39,4151,-5,4,1
1,250,24988861,104,-36,4154,-1,2,2
1,251,24996307,105,-39,4146,-3,0,-1
1,252,25003753,106,-45,4156,-5,3,0
1,253,25011199,106,-45,4156,-4,3,1
1,254,25018646,105,-42,4147,-4,6,0
1,255,25026092,100,-37,4147,-3,6,-2
1,256,25033721,97,-36,4151,-3,7,3
1,257,25041168,97,-36,4151,-4,5,-1
1,258,25048614,100,-41,4143,-4,4,-1
1,259,25056060,105,-38,4146,-4,6,-1
1,260,25063507,103,-40,4157,-3,5,1
1,261,25070953,103,-40,4157,-2,4,0
1,262,25078887,104,-44,4148,-3,2,-1
1,263,25086334,108,-40,4145,-2,2,-1
1,264,25093780,102,-38,4149,-3,4,-1
1,265,25101226,102,-38,4149,-2,5,-1
1,266,25108825,108,-44,4150,-1,3,-1
1,267,25116271,106,-43,4151,-2,5,-1
1,268,25123718,103,-39,4143,-1,2,-1
1,269,25131164,103,-39,4143,-3,4,0
1,270,25138763,103,-40,4143,-2,6,-2
1,271,25146209,105,-38,4143,-3,3,-2
1,272,25153656,108,-41,4152,0,3,1
1,273,25161102,108,-41,4152,-1,4,0
1,274,25168731,110,-40,4153,-3,5,-2
1,275,25176177,107,-46,4152,-4,3,0
1,276,25183624,101,-42,4148,-3,6,-1
1,277,25191070,101,-42,4148,-4,6,-2
1,278,25198730,102,-42,4147,1,5,1
1,279,25206176,104,-37,4147,-2,3,1
1,280,25213623,107,-41,4152,-2,7,-1
1,281,25221191,107,-41,4152,-2,4,0
1,282,25228820,110,-46,4151,-3,5,-1
1,283,25236267,103,-40,4141,-2,4,0
1,284,25243713,100,-40,4150,-2,3,0
1,285,25251159,102,-47,4154,-3,5,-1
1,286,25258758,102,-47,4154,-2,2,-2
1,287,25266204,107,-43,4149,-6,4,-1
1,288,25273651,108,-43,4150,-1,5,-1
1,289,25281097,97,-39,4150,-3,4,0
1,290,25288543,97,-39,4150,-4,6,-3
1,291,25295989,107,-41,4152,-3,3,-2
1,292,25303436,106,-41,4150,-4,4,-1
1,293,25310882,105,-38,4154,-2,4,-3
1,294,25318420,105,-38,4154,-1,4,-1
1,295,25325866,100,-41,4156,-3,5,-1
1,296,25333404,103,-47,4155,-1,4,0
1,297,25340850,110,-46,4150,-2,3,-1
1,298,25348419,110,-46,4150,-1,4,-1
1,299,25355865,106,-45,4147,-3,2,0
1,300,25363739,112,-40,4145,-3,3,-1
1,301,25371185,111,-38,4144,-2,6,-1
1,302,25378631,111,-38,4144,-3,6,0
1,303,25386077,110,-39,4147,-3,4,1
1,304,25393737,103,-34,4147,-2,3,0
1,305,25401184,101,-35,4146,-1,4,-2
1,306,25408630,101,-35,4146,-1,4,0
1,307,25416076,97,-40,4151,-1,4,0
1,308,25423675,103,-43,4150,-3,4,-1
1,309,25431121,110,-40,4148,-1,4,-1
1,310,25438568,110,-40,4148,-4,5,-2
1,311,25446014,101,-39,4155,-2,3,-1
1,312,25453765,106,-37,4152,-5,5,-2
1,313,25461212,113,-38,4156,0,4,0
1,314,25468658,113,-38,4156,-3,2,1
1,315,25476104,112,-47,4153,-2,8,-1
1,316,25483551,105,-40,4149,-1,4,2
1,317,25490997,108,-41,4149,-1,4,-1
1,318,25498535,108,-41,4149,-2,2,3
1,319,25506011,105,-36,4147,-2,5,0
1,320,25513458,110,-41,4157,-2,4,-1
1,321,25520904,107,-42,4149,-2,4,0
1,322,25528381,107,-42,4149,-3,4,-3
1,323,25535827,98,-46,4144,-3,5,0
1,324,25543365,97,-47,4149,-3,4,0
1,325,25550811,103,-37,4148,-2,6,-1
1,326,25558349,103,-37,4148,-3,8,1
1,327,25565795,111,-37,4149,-2,3,-2
1,328,25573333,114,-35,4154,-4,5,-1
1,329,25580780,109,-45,4146,-1,3,0
1,330,25588317,109,-45,4146,-3,7,-1
1,331,25595764,108,-39,4151,-2,5,-1
1,332,25603302,104,-35,4146,-2,4,-3
1,333,25610748,100,-42,4146,-2,3,-1
1,334,25618225,100,-42,4146,-1,4,1
1,335,25625671,110,-38,4144,-2,5,0
1,336,25633209,104,-35,4146,-2,6,-2
1,337,25640716,109,-42,4150,-1,3,1
1,338,25648223,109,-42,4150,-2,3,0
1,339,25655670,106,-40,4147,-3,5,1
1,340,25663208,106,-36,4142,-3,4,-2
1,341,25670654,104,-40,4145,0,2,2
1,342,25678192,104,-40,4145,-3,5,1
1,343,25685638,106,-42,4156,1,4,-1
1,344,25693176,114,-37,4146,-2,4,-1
1,345,25700622,112,-39,4142,-5,5,-2
1,346,25708068,112,-39,4142,-3,6,-1
1,347,25715515,102,-44,4145,-4,5,0
1,348,25723052,100,-38,4146,-1,7,-2
1,349,25730499,109,-41,4150,-2,6,-1
1,350,25738037,107,-43,4150,-1,4,0
1,351,25745483,107,-43,4150,-1,3,1
1,352,25752960,98,-42,4148,-2,3,-1
1,353,25760406,107,-38,4148,-2,4,-1
1,354,25767944,112,-38,4152,-2,6,1
1,355,25775390,112,-38,4152,-3,4,1
1,356,25782928,102,-36,4151,-1,5,-2
1,357,25790466,108,-41,4148,-3,5,0
1,358,25797943,112,-46,4148,-1,5,0
1,359,25805389,112,-46,4148,-3,6,-1
1,360,25812927,102,-40,4152,-3,4,-3
1,361,25820373,105,-36,4152,-4,7,-2
1,362,25827911,100,-37,4144,0,5,0
1,363,25835357,100,-37,4144,-1,3,0
1,364,25842803,102,-46,4152,-1,6,-1
1,365,25850250,106,-38,4146,-3,5,-1
1,366,25857727,108,-35,4152,-3,4,3
1,367,25865173,108,-35,4152,0,3,0
1,368,25872711,107,-41,4144,-3,4,0
1,369,25880157,103,-39,4149,-2,4,-2
1,370,25887695,106,-38,4150,-2,4,-2
1,371,25895141,106,-38,4150,-4,7,-1
1,372,25902618,104,-43,4152,1,1,1
1,373,25910064,108,-42,4146,-2,5,-1
1,374,25917602,109,-41,4148,-2,5,0
1,375,25925048,109,-41,4148,0,3,2
1,376,25932617,101,-37,4143,-2,4,-1
1,377,25940063,107,-40,4146,0,5,-3
1,378,25947601,106,-38,4144,-3,4,1
1,379,25955047,106,-38,4144,-4,5,-1
1,380,25962585,100,-38,4140,-4,4,0
1,381,25970031,106,-38,4145,-2,5,-1
1,382,25977569,109,-40,4147,-2,6,0
1,383,25985015,109,-40,4147,-2,7,0
1,384,25992462,105,-43,4152,-4,3,0
1,385,25999908,105,-37,4159,-5,2,-1
1,386,26007354,106,-40,4148,-7,2,-1
1,387,26014801,106,-40,4148,-9,3,-3
1,388,26022247,92,-99,4145,-11,2,-27
1,389,26029693,84,-109,4165,-20,-2,-57
1,390,26037170,141,55,4146,-17,-4,-12
1,391,26044616,141,55,4146,-12,1,-7
1,392,26052093,115,-37,4142,-9,2,-9
1,393,26059539,108,-48,4151,-7,3,-8
1,394,26067016,102,-49,4148,-5,7,-10
1,395,26074462,102,-49,4148,-4,4,-13
1,396,26081939,103,-37,4145,-7,6,-10
1,397,26089385,114,-28,4146,-4,6,-6
1,398,26096862,105,-36,4149,-6,6,-6
1,399,26104309,105,-36,4149,-5,5,-4
1,400,26111785,96,-44,4151,-3,4,-6
1,401,26119232,103,-45,4146,-3,3,-7
1,402,26126708,121,-35,4146,-3,7,-4
1,403,26134155,121,-35,4146,-2,5,-4
1,404,26141632,112,-48,4149,-5,4,-2
1,405,26149078,87,-76,4151,-1,3,-6
1,406,26156555,57,-145,4145,-3,3,-18
1,407,26164062,57,-145,4145,-3,4,-38
1,408,26171569,80,-116,4148,0,9,-47
1,409,26179016,93,-56,4147,-1,13,-58
1,410,26186492,225,236,4159,1,1,-8
1,411,26193939,225,236,4159,-4,5,4
1,412,26201446,106,-21,4148,-1,2,0
1,413,26208892,94,-66,4150,-3,4,-3
1,414,26216461,108,-35,4154,-2,5,-2
1,415,26223907,108,-35,4154,-2,4,0
1,416,26231445,106,-36,4153,-4,6,0
1,417,26238891,102,-42,4154,-3,3,0
1,418,26246459,97,-44,4144,-5,5,3
1,419,26253906,97,-44,4144,-3,6,0
1,420,26261444,103,-40,4150,-4,3,2
1,421,26268890,104,-48,4143,-4,4,0
1,422,26276458,101,-47,4147,-2,6,-2
1,423,26283905,101,-47,4147,-3,4,1
1,424,26291503,103,-45,4150,0,4,0
1,425,26298950,110,-46,4147,-5,5,0
1,426,26306457,118,-44,4151,-3,6,-1
1,427,26313903,118,-44,4151,-3,4,0
1,428,26321533,139,-37,4133,-2,5,0
1,429,26329010,126,-41,4147,-1,4,-1
1,430,26336486,103,-45,4150,-4,4,-2
1,431,26343933,103,-45,4150,-3,6,0
1,432,26351440,91,-45,4160,-4,6,-1
1,433,26358886,88,-48,4139,-3,5,-1
1,434,26366455,85,-45,4148,-2,4,0
1,435,26373901,94,-47,4155,-3,4,0
1,436,26381469,94,-47,4155,-3,4,0
1,437,26388916,92,-37,4149,-3,4,2
1,438,26396453,109,-29,4145,-4,7,0
1,439,26403900,110,-25,4145,-3,5,-1
1,440,26411437,110,-25,4145,-2,3,-1
1,441,26418884,104,-27,4148,-2,4,-1
1,442,26426452,109,-35,4159,-3,4,3
1,443,26433898,101,-47,4148,0,4,0
1,444,26441436,101,-47,4148,-2,4,-2
1,445,26448944,97,-45,4152,-4,4,1
1,446,26456451,95,-42,4152,-3,6,0
1,447,26463897,97,-42,4153,0,5,-2
1,448,26471435,97,-42,4153,1,5,0
1,449,26478973,100,-39,4147,-3,4,-2
1,450,26486480,116,-34,4144,-1,5,0
1,451,26493927,111,-43,4148,-2,2,-2
1,452,26501434,111,-43,4148,-2,4,0
1,453,26508880,110,-39,4149,0,3,-1
1,454,26516448,113,-43,4148,-5,4,-1
1,455,26523895,105,-49,4152,-1,3,-2
1,456,26531433,105,-49,4152,-3,4,0
1,457,26538879,110,-52,4151,-3,5,2
1,458,26546447,103,-48,4152,-3,4,0
1,459,26553894,104,-50,4151,-2,3,-1
1,460,26561431,104,-50,4151,-1,4,-2
1,461,26568878,116,-47,4145,-4,5,-4
1,462,26576446,112,-44,4148,-4,5,-3
1,463,26583892,104,-47,4153,0,4,0
1,464,26591430,104,-47,4153,-2,2,-1
1,465,26598876,107,-43,4149,-2,5,0
1,466,26606475,101,-45,4155,-3,3,-1
1,467,26613922,103,-48,4155,-3,3,-1
1,468,26621429,103,-48,4155,-1,3,-1
1,469,26628875,104,-47,4151,-4,6,-2
1,470,26636505,110,-43,4154,-3,5,0
1,471,26643981,108,-44,4157,-1,3,0
1,472,26651458,108,-44,4157,-1,5,-1
1,473,26658905,106,-44,4153,-3,3,0
1,474,26666442,107,-47,4155,-3,4,-1
1,475,26673889,106,-48,4151,-3,4,-2
1,476,26681427,106,-48,4151,-3,4,0
1,477,26688873,104,-40,4148,-4,4,-1
1,478,26696441,100,-41,4146,-5,5,0
1,479,26703887,102,-47,4154,-4,1,-1
1,480,26711425,102,-47,4154,-4,6,-2
1,481,26718872,111,-48,4148,-3,4,1
1,482,26726440,108,-42,4150,-3,5,0
1,483,26733886,101,-40,4146,-1,5,-2
1,484,26741363,101,-40,4146,-2,4,-2
1,485,26748809,97,-43,4153,-2,3,-1
1,486,26756286,104,-41,4147,-2,4,0
1,487,26763732,106,-39,4145,-1,5,0
1,488,26771240,106,-39,4145,-3,5,1
1,489,26778686,108,-44,4147,-1,5,-2
1,490,26786193,110,-44,4152,-1,3,1
1,491,26793640,112,-47,4151,-2,6,0
1,492,26801177,109,-47,4147,-4,4,-1
1,493,26808624,109,-47,4147,-3,3,-3
1,494,26816162,108,-46,4149,1,5,-2
1,495,26823608,106,-50,4147,-1,8,0
1,496,26831146,107,-50,4151,-1,4,-4
1,497,26838592,107,-50,4151,-2,4,2
1,498,26846038,107,-43,4151,-2,5,0
1,499,26853485,104,-41,4147,0,8,0
1,500,26860931,104,-42,4149,-2,5,1
1,501,26868377,104,-42,4149,-3,4,1
1,502,26875885,107,-46,4151,-2,4,0
1,503,26883361,104,-46,4147,-2,6,-1
1,504,26890808,104,-40,4139,-2,4,0
1,505,26898254,104,-40,4139,-4,3,-2
1,506,26905731,108,-41,4162,-22,26,0
1,507,26913177,115,-43,4163,-31,35,1
1,508,26920623,111,-65,4130,-15,20,2
1,509,26928131,111,-65,4130,-2,7,-8
1,510,26935577,212,-489,4155,-14,13,-74
1,511,26943023,-193,-56,4168,-27,17,-30
1,512,26950469,-540,-99,4159,4,-6,-169
1,513,26957916,-540,-99,4159,16,-33,-184
1,514,26965362,-1465,390,4217,-86,132,-613
1,515,26972808,498,3247,4759,-180,31,-401
1,516,26980255,976,-1094,5914,-1022,96,-8
1,517,26987701,976,-1094,5914,-1129,601,-181
1,518,26995147,-688,-1541,3219,-514,1487,-399
1,519,27002593,-493,-1099,4004,-517,1513,-472
1,520,27010040,-199,-665,5399,-770,1078,-750
1,521,27017486,-199,-665,5399,-1015,667,-761
1,522,27024932,-127,-268,6122,-1540,452,-777
1,523,27032379,485,-79,5643,-1634,395,-692
1,524,27039825,868,95,5601,-1703,507,-434
1,525,27047271,868,95,5601,-1775,677,-204
1,526,27054718,652,491,4992,-1993,1315,216
1,527,27062164,895,908,4330,-1897,1868,579
1,528,27069610,190,-1197,6068,-2119,1418,419
1,529,27077087,190,-1197,6068,-2093,996,389
1,530,27084533,-62,-1255,5506,-2001,-241,209
1,531,27091979,-297,-705,4115,-1886,-680,173
1,532,27099426,-667,-960,3116,-1612,-1330,9
1,533,27106872,-667,-960,3116,-1445,-1553,-126
1,534,27114379,-396,-1193,1757,-874,-1792,-246
1,535,27129272,448,-477,-437,-81,-1020,-10
1,536,27136718,448,-477,-437,36,-397,120
1,537,27144165,-239,-809,101,280,552,109
1,538,27151611,-810,-1486,2071,468,643,3
1,539,27159057,-626,-966,2597,713,1095,-64
1,540,27166503,-626,-966,2597,806,1245,-33
1,541,27173950,-95,-55,2026,1143,1625,58
1,542,27181396,-274,-292,1894,1293,1971,33
1,543,27188842,-742,-561,2414,1428,2590,-72
1,544,27196289,-742,-561,2414,1521,2759,-77
1,545,27203735,-784,-381,2767,1805,3025,-88
1,546,27211181,-894,-207,3576,1941,3101,-72
1,547,27218627,-1608,-460,8896,1733,-2268,-290
1,548,27226074,-1608,-460,8896,-30,-9436,-699
1,549,27233520,-300,94,3287,2358,-1911,-111
1,550,27248443,375,-1046,7640,862,-581,14
1,551,27255889,375,-1046,7640,390,-303,63
1,552,27263336,694,-384,4973,233,672,511
1,553,27270782,451,-110,4841,-30,850,704
1,554,27278228,-1090,-816,4489,-251,1493,304
1,555,27285675,-1090,-816,4489,-219,1726,180
1,556,27293121,-1042,-513,5181,-364,840,-10
1,557,27300567,-1026,-407,6305,-587,-16,-116
1,558,27308105,-387,-408,5793,-888,-1140,-169
1,559,27315551,-387,-408,5793,-942,-1327,-109
1,560,27322998,334,-251,4891,-947,-1065,129
1,561,27330444,498,-42,4461,-1020,-752,232
1,562,27337921,282,-322,4524,-1228,-357,461
1,563,27345367,282,-322,4524,-1378,-493,506
1,564,27352813,-144,-480,4042,-1444,-469,501
1,565,27367706,-1061,-663,2158,-1000,1154,419
1,566,27375274,-1061,-663,2158,-898,1286,300
1,567,27382751,-877,-654,1931,-475,1410,163
1,568,27390197,-312,-779,1188,-246,1394,106
1,569,27397644,-216,-740,1107,100,1351,20
1,570,27405090,-216,-740,1107,299,1572,20
1,571,27412536,-470,-667,728,826,2508,97
1,572,27419982,-647,-566,991,1083,2933,154
1,573,27427429,-631,-415,2005,1503,3305,242
1,574,27434875,-631,-415,2005,1700,3359,285
1,575,27442321,-748,-818,6325,1147,-7274,17
1,576,27449768,1407,713,6158,804,-6458,410
1,577,27457214,-2462,-2228,3659,1845,-1108,215
1,578,27464660,-2462,-2228,3659,1116,-1530,-114
1,579,27472106,327,-689,6252,519,-796,187
1,580,27487091,-1872,-459,4826,322,855,191
1,581,27494537,-1872,-459,4826,166,892,-10
1,582,27501983,-888,-631,4521,6,931,-173
1,583,27509429,-260,-347,4415,-52,996,-191
1,584,27516876,-295,269,6126,-282,261,-14
1,585,27524322,-295,269,6126,-540,-364,53
1,586,27531768,-112,9,5959,-695,-631,198
1,587,27539215,171,-168,5065,-730,-578,244
1,588,27546661,-169,-526,5166,-871,-996,259
1,589,27554168,-169,-526,5166,-892,-1208,220
1,590,27561614,-107,-608,4017,-815,-1096,67
1,591,27569061,50,-603,2822,-747,-912,49
1,592,27576507,-636,-782,2350,-622,-318,-3
1,593,27583953,-636,-782,2350,-452,-105,-59
1,594,27591400,-903,-854,1930,-99,330,-84
1,595,27606292,-420,-1131,973,473,1076,-270
1,596,27614166,-420,-1131,973,668,1367,-302
1,597,27621612,-217,-1019,1075,1126,2008,-359
1,598,27629058,-248,-706,1641,1312,2394,-363
1,599,27636505,-598,-648,4035,1574,2678,-352
1,600,27643951,-598,-648,4035,1826,-2918,-475
1,601,27651397,-378,753,8405,-19,-5842,-38
1,602,27658843,-947,1094,1640,1378,-2694,-135
1,603,27666290,232,-550,5322,1385,-630,-199
1,604,27673736,232,-550,5322,850,-944,-162
1,605,27681182,440,-206,5726,512,157,47
1,606,27688629,560,-163,4940,309,364,207
1,607,27696075,253,-507,4898,-197,-47,238
1,608,27703521,253,-507,4898,-285,203,161
1,609,27710968,-308,-453,3838,31,1455,108
1,610,27725982,-526,-578,6366,-297,-197,-116
1,611,27733428,-526,-578,6366,-391,-838,-124
1,612,27740875,-138,-88,5344,-423,-1289,-85
1,613,27748321,-126,139,4379,-378,-1184,-103
1,614,27755767,-178,119,3712,-170,-555,-91
1,615,27763214,-178,119,3712,-86,-310,-46
1,616,27770660,-133,-93,3624,-116,-273,-21
1,617,27778106,40,-152,3478,-225,-320,-2
1,618,27785552,-145,-209,3016,-610,-49,-5
1,619,27792999,-145,-209,3016,-721,258,-3
1,620,27800445,-136,-396,2370,-826,1149,-6
1,621,27807891,-74,-772,1896,-750,1777,-24
1,622,27815338,167,-1151,1861,-610,2688,-129
1,623,27822845,167,-1151,1861,-567,3119,-210
1,624,27830322,14,-1287,2041,-473,4324,-325
1,625,27845214,-110,1368,5258,-1182,-3726,203
1,626,27852661,-110,1368,5258,168,-595,199
1,627,27860107,-770,-42,2549,119,-395,185
1,628,27867584,-363,-970,6139,-1131,-3426,-18
1,629,27875030,-278,-114,2125,614,-91,116
1,630,27882476,-278,-114,2125,421,-49,137
1,631,27889923,-606,-402,4272,435,383,102
1,632,27897369,-95,-524,4688,340,546,145
1,633,27904815,-98,-403,4529,111,683,226
1,634,27912353,-98,-403,4529,50,858,252
1,635,27927337,-130,-537,5292,-208,1612,227
1,636,27934783,-316,-377,7165,-445,266,206
1,637,27942230,-316,-377,7165,-616,-940,216
1,638,27949676,-395,-87,6769,-779,-2628,203
1,639,27957305,-379,-91,4603,-771,-2907,164
1,640,27964782,-493,-456,2696,-553,-2306,-40
1,641,27972229,-493,-456,2696,-341,-1687,-82
1,642,27979675,-372,-892,1776,8,-814,-126
1,643,27987121,-259,-1033,1837,97,-614,-89
1,644,27994567,-273,-961,1917,115,-411,-54
1,645,28002014,-273,-961,1917,110,-273,-48
1,646,28009460,-375,-764,1670,281,364,-96
1,647,28016906,-588,-709,1704,412,818,-145
1,648,28024353,-684,-715,2076,707,1593,-224
1,649,28031799,-684,-715,2076,845,1848,-254
1,650,28046722,-1050,-268,3627,1050,2211,-298
1,651,28054168,-921,-158,4711,1095,2165,-202
1,652,28061614,-921,-158,4711,1369,-1082,-245
1,653,28069061,787,338,8074,506,-2090,-405
1,654,28076507,539,48,3534,1148,-126,-220
1,655,28083953,364,-299,5740,392,-44,-64
1,656,28091430,364,-299,5740,-5,-36,72
1,657,28098876,860,-4,5094,-200,569,429
1,658,28106323,95,180,4351,-306,608,564
1,659,28113769,-575,-223,4491,-345,399,543
1,660,28121215,-575,-223,4491,-256,413,467
1,661,28128662,-789,-564,4260,-46,-5,243
1,662,28136138,-831,-631,4636,-95,-580,126
1,663,28143585,-500,-473,3701,-170,-1172,1
1,664,28151031,-500,-473,3701,-57,-881,-1
1,665,28165924,-501,-407,3300,89,103,-66
1,666,28173370,-352,-316,3342,102,351,-94
1,667,28180847,-352,-316,3342,158,470,-98
1,668,28188293,-300,-278,3290,279,643,-100
1,669,28195739,-313,-201,3394,343,729,-87
1,670,28203186,-75,-421,6305,520,-1016,-192
1,671,28210632,-75,-421,6305,131,-1646,-158
1,672,28218078,86,-241,3894,541,-863,-102
1,673,28225585,-142,-265,3832,527,-809,-112
1,674,28233062,121,-230,4402,472,-609,-49
1,675,28240509,121,-230,4402,459,-457,-9
1,676,28247955,151,-169,4318,384,-482,57
1,677,28255401,-69,-216,4240,355,-492,63
1,678,28262847,81,-149,4118,355,-420,74
1,679,28270324,81,-149,4118,371,-382,115
1,680,28285339,-87,-311,4592,163,-843,135
1,681,28292785,368,-218,4169,15,-1267,118
1,682,28300231,368,-218,4169,140,-1075,186
1,683,28307678,-2,102,3356,476,-406,183
1,684,28315185,-241,-113,4370,448,-414,152
1,685,28322631,-100,-106,4217,426,-288,130
1,686,28330078,-100,-106,4217,446,-268,109
1,687,28337524,-76,-92,4095,462,-206,61
1,688,28344970,-16,17,4333,443,-137,32
1,689,28352416,239,341,4705,224,-78,-13
1,690,28359863,239,341,4705,118,-84,25
1,691,28367401,416,776,4286,47,12,46
1,692,28374847,-124,-293,4170,33,-1,-26
1,693,28382324,-20,-528,4191,23,9,-2
1,694,28389770,-20,-528,4191,15,-25,-15
1,695,28404663,246,-41,4155,19,-25,61
1,696,28412109,217,-28,4147,-2,11,110
1,697,28419555,217,-28,4147,-8,18,122
1,698,28427001,106,-132,4144,-10,8,116
1,699,28434448,-333,-189,4172,-16,21,45
1,700,28441894,-91,-72,4145,-20,27,-65
1,701,28449340,-91,-72,4145,-5,7,-76
1,702,28456787,232,-3,4139,-2,6,-28
1,703,28464233,104,-42,4153,-3,3,-33
1,704,28471679,39,-51,4147,-5,7,-62
1,705,28479125,39,-51,4147,-3,6,-62
1,706,28486572,222,-53,4148,-1,3,19
1,707,28494049,197,-93,4149,-2,2,54
1,708,28501495,143,-73,4151,-4,-2,139
1,709,28508941,143,-73,4151,-7,3,75
1,710,28523834,111,-35,4149,-4,4,15
1,711,28531280,113,-32,4140,-3,3,10
1,712,28538726,113,-32,4140,-3,5,7
1,713,28546173,105,-48,4150,-1,5,6
1,714,28553619,104,-51,4149,0,5,4
1,715,28561065,103,-45,4144,-3,3,4
1,716,28568511,103,-45,4144,-3,4,2
1,717,28575958,108,-44,4146,-1,3,0
1,718,28583404,103,-46,4150,-1,3,2
1,719,28590850,113,-50,4151,-1,4,0
1,720,28598297,113,-50,4151,-3,5,1
1,721,28605743,112,-50,4149,-2,3,2
1,722,28613189,107,-40,4152,-3,4,2
1,723,28620635,104,-43,4149,-2,4,4
1,724,28628082,104,-43,4149,-2,6,4
1,725,28642974,108,-48,4151,-3,6,2
1,726,28650421,120,-55,4151,0,5,2
1,727,28657867,120,-55,4151,-3,6,2
1,728,28665313,112,-50,4149,0,4,3
1,729,28672760,105,-44,4150,-3,3,4
1,730,28680206,102,-42,4160,-1,6,6
1,731,28687652,102,-42,4160,-1,5,7
1,732,28695098,104,-51,4143,-1,3,8
1,733,28702545,106,-45,4151,-1,6,6
1,734,28709991,103,-50,4148,0,5,6
1,735,28717437,103,-50,4148,-2,7,4
1,736,28724884,104,-56,4152,-1,9,2
1,737,28732330,106,-29,4141,-1,4,9
1,738,28739776,94,-27,4151,-1,7,7
1,739,28747222,94,-27,4151,-1,6,3
1,740,28762115,114,-54,4150,-1,6,3
1,741,28769561,101,-39,4151,-2,6,4
1,742,28777008,101,-39,4151,-2,3,1
1,743,28784454,111,-45,4145,-1,4,3
1,744,28791900,119,-44,4148,-1,5,7
1,745,28799346,85,-40,4151,0,6,4
1,746,28806793,85,-40,4151,-1,5,1
1,747,28814239,116,-52,4151,-3,5,4
1,748,28821685,134,-47,4145,-3,5,7
1,749,28829132,156,-48,4155,-4,6,14
1,750,28836578,156,-48,4155,-1,5,23
1,751,28844024,160,-42,4140,-3,3,33
1,752,28851470,171,-53,4140,-1,6,32
1,753,28858917,386,-52,4139,2,10,72
1,754,28866363,386,-52,4139,0,2,104
1,755,28881256,275,-140,4150,0,4,145
1,756,28888702,345,-26,4136,3,4,201
1,757,28896148,345,-26,4136,10,-15,297
1,758,28903594,-442,160,4172,-7,-9,81
1,759,28911041,-641,-48,4162,-13,10,-12
1,760,28918487,190,3,4145,-1,4,6
1,761,28925933,190,3,4145,-2,5,10
1,762,28933380,231,-134,4154,-1,2,33
1,763,28940826,233,-121,4152,1,0,82
1,764,28948272,207,-24,4146,-2,4,74
1,765,28955718,207,-24,4146,0,6,132
1,766,28963165,-184,131,4152,-2,7,1
1,767,28970611,-8,-15,4151,-2,4,-2
1,768,28978057,147,-56,4147,-1,3,7
1,769,28985504,147,-56,4147,-2,3,7
1,770,29000396,-143,-48,4155,-2,0,-3
1,771,29007843,-250,-84,4156,-1,8,-90
1,772,29015289,-250,-84,4156,-4,18,-126
1,773,29022735,-110,-28,4161,-4,-4,-152
1,774,29030181,347,-64,4144,-2,-4,-139
1,775,29037963,203,-39,4138,-4,22,-83
1,776,29045410,203,-39,4138,4,-8,-66
1,777,29052856,254,-52,4146,-2,8,-39
1,778,29060302,178,-55,4142,-5,9,-47
1,779,29067749,130,-24,4152,-3,6,-40
1,780,29082733,124,-28,4156,-7,6,-36
1,781,29090209,241,-20,4143,-3,3,-17
1,782,29097656,190,-35,4141,-2,3,0
1,783,29105102,190,-35,4141,-2,3,0
1,784,29112548,89,-48,4151,-2,4,0
1,785,29119995,103,-42,4151,-3,3,0
1,786,29127563,105,-38,4156,-4,4,-1
1,787,29135009,105,-38,4156,-2,4,0
1,788,29142456,107,-48,4145,-2,8,-2
1,789,29149902,110,-48,4149,-2,5,0
1,790,29164794,110,-49,4148,-3,5,0
1,791,29172271,103,-41,4147,-4,3,-2
1,792,29179718,103,-41,4146,0,5,1
1,793,29187164,99,-44,4153,-2,3,1
1,794,29194610,99,-44,4153,-1,3,-3
1,795,29202056,107,-44,4153,-2,4,0
1,796,29209503,102,-47,4150,-4,5,1
1,797,29216949,112,-52,4143,-2,4,0
1,798,29224395,112,-52,4143,-2,4,1
1,799,29231903,110,-47,4150,-4,5,-1
1,800,29246826,110,-44,4151,-1,3,-1
1,801,29254272,110,-44,4151,-2,3,-2
1,802,29261718,107,-41,4152,-1,6,-2
1,803,29269165,103,-40,4149,-1,4,-1
1,804,29276611,105,-40,4148,-1,4,1
1,805,29284057,105,-40,4148,-1,5,-2
1,806,29291503,107,-46,4158,-2,5,-1
1,807,29298950,104,-45,4154,-4,5,-1
1,808,29306427,101,-42,4152,-5,2,0
1,809,29313873,101,-42,4152,-6,4,-1
1,810,29328765,104,-41,4155,-1,5,1
1,811,29336212,106,-44,4152,-2,2,-2
1,812,29343658,106,-44,4152,0,3,-3
1,813,29351135,105,-47,4150,-3,5,-2
1,814,29358581,104,-40,4152,-3,6,1
1,815,29366027,99,-43,4147,-3,4,1
1,816,29373474,99,-43,4147,-3,5,1
1,817,29380920,104,-46,4157,-1,3,1
1,818,29388366,103,-42,4157,-3,5,1
1,819,29395904,107,-52,4137,1,4,-2
1,820,29410797,99,-45,4156,-2,7,-1
1,821,29418243,99,-47,4149,-3,4,0
1,822,29425720,102,-47,4153,-2,7,1
1,823,29433166,102,-47,4153,-1,5,0
1,824,29440673,102,-39,4148,-2,6,0
1,825,29448120,103,-41,4146,-2,3,1
1,826,29455566,110,-44,4151,-1,4,-1
1,827,29463012,110,-44,4151,-2,2,2
1,828,29470458,108,-42,4147,-3,4,-1
1,829,29477996,103,-55,4151,0,4,0
1,830,29492919,105,-43,4149,-3,7,0
1,831,29500366,98,-40,4141,-2,5,1
1,832,29507812,104,-47,4149,-4,6,0
1,833,29515258,109,-44,4145,-2,6,-2
1,834,29522705,109,-44,4145,-4,4,-2
1,835,29537597,107,-43,4149,-1,4,1
1,836,29545043,105,-44,4145,-2,4,2
1,837,29552490,105,-44,4145,-3,2,0
1,838,29559936,107,-46,4148,-1,5,0
1,839,29567382,98,-45,4148,0,4,-1
1,840,29574829,100,-44,4146,-5,4,1
1,841,29582336,100,-44,4146,-1,3,2
1,842,29589813,98,-47,4145,-1,6,0
1,843,29597259,103,-44,4150,0,4,0
1,844,29604705,108,-47,4154,-3,4,-1
1,845,29619598,107,-43,4148,-4,5,0
1,846,29627044,105,-36,4140,-4,3,1
1,847,29634490,103,-42,4147,-2,3,1
1,848,20685455,101,-34,4151,-2,4,-2
1,849,20692962,107,-39,4153,-4,8,-1
1,850,20707885,113,-42,4147,-1,4,0
1,851,20715332,111,-44,4148,-2,4,-2
1,852,20722778,104,-38,4145,-3,6,0
1,853,20730224,104,-38,4145,-2,5,-3
1,854,20737670,105,-40,4152,-2,6,4
1,855,20745117,107,-40,4152,-2,5,-1
1,856,20752563,103,-38,4143,-3,4,2
1,857,20760009,103,-38,4143,-4,3,1
1,858,20767517,107,-38,4148,-5,4,1
1,859,20774963,104,-39,4143,-7,4,-1
1,860,20789916,115,-39,4146,-4,2,0
1,861,20797363,101,-40,4151,-3,4,1
1,862,20804809,105,-35,4148,-1,6,0
1,863,20812255,107,-38,4147,-3,2,1
1,864,20819702,107,-38,4147,-3,5,-2
1,865,20827148,110,-41,4155,-1,5,3
1,866,20834594,107,-39,4149,-1,4,0
1,867,20842041,105,-42,4144,-2,4,-1
1,868,20849487,105,-42,4144,-4,3,1
1,869,20856933,102,-40,4152,-3,4,0
1,870,20871856,108,-39,4148,-4,4,2
1,871,20879302,108,-39,4148,-3,5,-1
1,872,20886749,106,-38,4149,-4,6,0
1,873,20894195,106,-41,4141,-5,4,-1
1,874,20901702,106,-34,4146,-3,6,-2
1,875,20909149,106,-34,4146,-4,4,-1
1,876,20916595,99,-41,4154,-1,4,0
1,877,20924041,109,-33,4150,-4,3,1
1,878,20931488,111,-36,4150,-2,4,0
1,879,20938934,111,-36,4150,-4,4,-1
1,880,20953826,106,-35,4146,-3,6,-1
1,881,20961273,105,-38,4147,-4,4,0
1,882,20968719,105,-38,4147,-2,4,0
1,883,20976165,103,-35,4156,-2,3,-1
1,884,20983612,101,-39,4152,-1,3,-1
1,885,20991058,104,-38,4150,-4,4,-1
1,886,20998504,104,-38,4150,-3,3,0
1,887,21005950,107,-41,4150,-3,1,0
1,888,21013397,102,-35,4150,-4,3,0
1,889,21020843,109,-43,4148,-4,5,-1
1,890,21035736,107,-43,4147,-3,3,0
1,891,21043182,108,-39,4142,-2,2,-1
1,892,21050628,103,-36,4145,-4,6,0
1,893,21058074,103,-36,4145,-5,3,-1
1,894,21065521,111,-43,4147,-3,5,-2
1,895,21072967,105,-41,4154,-4,4,-2
1,896,21080413,100,-36,4147,-3,3,-1
1,897,21087860,100,-36,4147,-3,4,-1
1,898,21095306,102,-39,4149,-2,4,0
1,899,21102752,99,-38,4146,-3,2,0
1,900,21117645,104,-41,4145,-3,6,-2
1,901,21125091,101,-42,4155,-3,4,0
1,902,21132537,95,-40,4148,-3,4,0
1,903,21139984,101,-38,4146,-1,6,-1
1,904,21147430,101,-38,4146,-1,3,0
1,905,21154876,104,-37,4142,-2,5,-1
1,906,21162322,105,-31,4153,-3,5,1
1,907,21169769,102,-36,4157,-2,4,-2
1,908,21177215,102,-36,4157,-2,1,-1
1,909,21184661,103,-42,4149,-1,4,0
1,910,21199584,100,-36,4152,-2,5,2
1,911,21207031,100,-36,4152,-2,3,0
1,912,21214477,101,-33,4150,-2,4,-1
1,913,21221923,108,-40,4147,-2,5,-1
1,914,21229370,109,-40,4148,-1,5,-1
1,915,21236877,109,-40,4148,-1,4,-2
1,916,21244323,100,-35,4153,-3,5,1
1,917,21251770,99,-36,4148,-1,7,0
1,918,21259216,103,-44,4146,0,2,2
1,919,21266662,103,-44,4146,0,5,1
1,920,21281555,108,-39,4150,-3,8,-1
1,921,21289001,101,-36,4153,-1,2,0
1,922,21296447,101,-36,4153,-2,5,-1
1,923,21303894,103,-36,4154,-2,1,3
1,924,21311340,101,-34,4150,1,4,1
1,925,21318786,104,-41,4151,-2,4,-1
1,926,21326232,104,-41,4151,-3,5,1
1,927,21333679,105,-40,4146,-1,4,0
1,928,21341125,102,-37,4150,-2,4,-3
1,929,21348571,101,-40,4156,-2,3,-1
1,930,21363464,106,-37,4148,-2,4,1
1,931,21370910,107,-37,4147,-3,5,-1
1,932,21378356,106,-41,4149,-3,3,0
1,933,21385803,106,-41,4149,-3,5,0
1,934,21393249,106,-31,4146,0,5,1
1,935,21400726,102,-34,4140,-2,5,2
1,936,21408172,103,-40,4149,-5,3,-2
1,937,21415618,103,-40,4149,-3,4,0
1,938,21423065,105,-39,4149,-2,4,1
1,939,21430511,103,-41,4150,-4,3,1
1,940,21445404,106,-37,4154,-3,4,0
1,941,21452850,104,-34,4147,-3,4,2
1,942,21460357,111,-35,4148,-5,5,0
1,943,21467803,108,-42,4148,-1,6,0
1,944,21475250,108,-42,4148,-2,5,-1
1,945,21482696,102,-41,4153,-1,6,-1
1,946,21490142,104,-39,4153,-1,4,0
1,947,21497589,100,-34,4153,-1,4,0
1,948,21505035,100,-34,4153,-2,5,0
1,949,21512481,107,-32,4150,1,6,-2
1,950,21527374,108,-38,4160,-4,5,-1
1,951,21534820,108,-38,4160,-3,2,0
1,952,21542266,113,-42,4149,-3,6,-1
1,953,21549713,103,-40,4146,-3,5,-1
1,954,21557159,99,-38,4146,0,4,1
1,955,21564605,99,-38,4146,-2,5,0
1,956,21572052,101,-38,4153,-2,5,2
1,957,21579498,109,-42,4154,-2,5,-3
1,958,21586944,116,-39,4148,-1,4,-2
1,959,21594390,116,-39,4148,-3,5,-1
