event_id,seq,ts_ms,ax,ay,az,gx,gy,gz
6,0,1250536,3420,-15944,-2033,16,-23,-21
6,1,1245541,1033,-16070,-2306,-61,690,32
6,2,1245546,990,-16377,-2142,-57,715,29
6,3,1245551,571,-16749,-2281,-54,745,16
6,4,1245556,16,-16904,-2268,-58,800,7
6,5,1245561,-596,-16785,-2299,-63,851,3
6,6,1245566,-779,-16366,-2171,-63,894,-6
6,7,1245571,-940,-15832,-1891,-63,930,-9
6,8,1245576,-958,-15690,-1470,-63,945,-17
6,9,1245581,-717,-15787,-1123,-60,922,-24
6,10,1245586,-342,-16000,-636,-54,876,-25
6,11,1245591,141,-16233,-359,-49,788,-24
6,12,1245596,174,-16240,98,-37,672,-28
6,13,1245601,-78,-16240,-39,-25,517,-30
6,14,1245606,-23,-16110,-398,-6,341,-21
6,15,1245611,435,-16220,-707,7,159,-5
6,16,1245616,917,-16408,-565,21,-9,-4
6,17,1245621,845,-16502,-271,36,-182,-7
6,18,1245626,688,-16760,-682,55,-373,4
6,19,1245631,746,-17087,-1017,69,-496,16
6,20,1245636,822,-17336,-1023,72,-550,14
6,21,1245641,845,-17443,-1039,72,-597,13
6,22,1245646,593,-17441,-1445,75,-643,15
6,23,1245651,377,-17221,-1953,72,-653,15
6,24,1245656,240,-17003,-2156,64,-608,13
6,25,1245661,31,-16801,-2217,58,-541,13
6,26,1245666,-178,-16717,-2456,48,-468,10
6,27,1245671,-211,-16726,-2861,42,-375,8
6,28,1245676,-173,-16695,-2914,27,-250,2
6,29,1245681,-167,-16606,-2623,10,-124,-6
6,30,1245686,-145,-16617,-2391,-2,-24,-13
6,31,1245691,123,-16626,-2382,-8,46,-14
6,32,1245696,337,-16586,-2189,-15,109,-19
6,33,1245701,371,-16609,-2086,-20,138,-21
6,34,1245706,94,-16646,-2095,-20,140,-18
6,35,1245711,-412,-16807,-2087,-24,126,-17
6,36,1245716,-594,-16883,-2059,-24,107,-18
6,37,1245721,-339,-16838,-1773,-21,107,-19
6,38,1245726,136,-16904,-1596,-24,95,-21
6,39,1245731,241,-17065,-1607,-20,69,-26
6,40,1245736,-182,-17190,-1747,-18,28,-31
6,41,1245741,-961,-16948,-1194,-23,-52,-38
6,42,1245746,-768,-16729,-1046,-20,-81,-38
6,43,1245751,-542,-16546,-1037,-20,-105,-45
6,44,1245756,-558,-16537,-1247,-20,-152,-48
6,45,1245761,-796,-16596,-1345,-19,-221,-51
6,46,1245766,-912,-16621,-1535,-17,-290,-55
6,47,1245771,-730,-16620,-1529,-14,-321,-55
6,48,1245776,-414,-16769,-1650,-18,-326,-58
6,49,1245781,-134,-17050,-1734,-18,-326,-70
6,50,1245786,-155,-17253,-1784,-18,-322,-80
6,51,1245791,-337,-17407,-1781,-27,-313,-87
6,52,1245796,-530,-17418,-1818,-34,-264,-94
6,53,1245801,-477,-17382,-2006,-42,-200,-98
6,54,1245806,-270,-17501,-1798,-50,-133,-105
6,55,1245811,43,-17621,-1534,-56,-109,-110
6,56,1245816,124,-17668,-1332,-61,-116,-116
6,57,1245821,147,-17818,-1498,-61,-129,-118
6,58,1245826,147,-17939,-1582,-65,-129,-120
6,59,1245831,353,-17869,-1385,-70,-128,-125
6,60,1245836,547,-17777,-1362,-66,-153,-125
6,61,1245841,572,-17654,-1638,-65,-186,-127
6,62,1245846,376,-17563,-1906,-66,-193,-132
6,63,1245851,197,-17486,-2030,-66,-184,-133
6,64,1245856,220,-17408,-2100,-72,-164,-133
6,65,1245861,465,-17343,-2026,-78,-151,-134
6,66,1245866,787,-17366,-1748,-80,-138,-134
6,67,1245871,993,-17398,-1563,-76,-129,-135
6,68,1245876,1038,-17412,-1620,-78,-123,-137
6,69,1245881,1015,-17369,-1779,-80,-108,-137
6,70,1245886,987,-17277,-1833,-82,-87,-139
6,71,1245891,898,-17182,-1755,-84,-65,-136
6,72,1245896,808,-17042,-1661,-90,-46,-136
6,73,1245901,729,-16845,-1543,-95,-26,-137
6,74,1245906,685,-16688,-1554,-95,-7,-137
6,75,1245911,663,-16579,-1526,-95,0,-137
6,76,1245916,671,-16442,-1463,-96,-7,-138
6,77,1245921,673,-16376,-1317,-96,-26,-135
6,78,1245926,717,-16379,-1243,-92,-52,-137
6,79,1245931,731,-16346,-1218,-90,-84,-136
6,80,1245936,672,-16249,-1227,-85,-115,-136
6,81,1245941,651,-16146,-1434,-80,-143,-137
6,82,1245946,730,-16051,-1540,-79,-174,-133
6,83,1245951,871,-15959,-1644,-75,-194,-131
6,84,1245956,983,-15952,-1639,-71,-204,-128
6,85,1245961,1021,-15961,-1665,-70,-215,-126
6,86,1245966,1015,-16026,-1780,-67,-220,-127
6,87,1245971,984,-16131,-1836,-65,-219,-125
6,88,1245976,1067,-16145,-1829,-62,-212,-121
6,89,1245981,1191,-16097,-1715,-59,-211,-120
6,90,1245986,1253,-16063,-1719,-55,-216,-119
6,91,1245991,1199,-15982,-1755,-50,-221,-117
6,92,1245996,993,-15958,-1819,-47,-230,-113
6,93,1246001,1042,-15939,-1874,-45,-243,-109
6,94,1246006,1289,-15864,-1928,-37,-251,-101
6,95,1246011,1498,-15926,-1997,-33,-253,-97
6,96,1246016,1440,-16038,-2039,-31,-254,-99
6,97,1246021,1355,-16135,-2101,-24,-255,-93
6,98,1246026,1423,-16192,-2235,-21,-241,-86
6,99,1246031,1562,-16230,-2496,-19,-204,-82
6,100,1246036,1622,-16225,-2637,-18,-153,-82
6,101,1246041,1519,-16226,-2474,-18,-109,-80
6,102,1246046,1465,-16195,-2175,-20,-76,-73
6,103,1246051,1485,-16274,-2154,-19,-36,-66
6,104,1246056,1644,-16376,-2318,-19,33,-64
6,105,1246061,1788,-16464,-2252,-22,105,-62
6,106,1246066,1802,-16443,-1821,-24,139,-57
6,107,1246071,1710,-16368,-1592,-21,135,-53
6,108,1246076,1641,-16342,-1587,-19,131,-47
6,109,1246081,1548,-16372,-1608,-14,148,-42
6,110,1246086,1468,-16393,-1428,-12,151,-37
6,111,1246091,1504,-16362,-1288,-8,115,-29
6,112,1246096,1535,-16360,-1283,-1,71,-23
6,113,1246101,1483,-16370,-1448,4,46,-19
6,114,1246106,1289,-16393,-1550,10,27,-11
6,115,1246111,1272,-16398,-1600,15,4,-7
6,116,1246116,1234,-16362,-1664,17,-17,-4
6,117,1246121,1154,-16427,-1758,23,-26,-1
6,118,1246126,1107,-16508,-1830,27,-32,0
6,119,1246131,1120,-16600,-1881,29,-38,4
6,120,1246136,1273,-16627,-1916,33,-40,5
6,121,1246141,1416,-16647,-1899,34,-35,4
6,122,1246146,1393,-16693,-1930,34,-23,4
6,123,1246151,1306,-16717,-1944,36,1,3
6,124,1246156,1298,-16678,-1971,39,25,4
6,125,1246161,1195,-16626,-1966,37,54,5
6,126,1246166,1213,-16666,-1952,39,79,6
6,127,1246171,1260,-16651,-1946,40,103,7
6,128,1246176,1325,-16669,-1824,36,120,7
6,129,1246181,1307,-16640,-1783,40,129,6
6,130,1246186,1326,-16674,-1641,39,137,10
6,131,1246191,1345,-16729,-1516,37,146,11
6,132,1246196,1325,-16767,-1354,41,142,11
6,133,1246201,1245,-16721,-1258,42,128,12
6,134,1246206,1239,-16716,-1187,44,114,18
6,135,1246211,1329,-16719,-1097,44,102,20
6,136,1246216,1413,-16658,-916,43,81,21
6,137,1246221,1427,-16576,-762,45,39,23
6,138,1246226,1354,-16530,-871,48,-6,24
6,139,1246231,1229,-16436,-1003,51,-43,25
6,140,1246236,1190,-16417,-1042,52,-73,30
6,141,1246241,1132,-16323,-1091,51,-106,32
6,142,1246246,1091,-16268,-1187,53,-130,34
6,143,1246251,1036,-16273,-1411,55,-142,36
6,144,1246256,989,-16245,-1531,55,-146,33
6,145,1246261,970,-16272,-1662,53,-144,33
6,146,1246266,975,-16285,-1848,54,-144,32
6,147,1246271,1012,-16244,-1989,53,-134,30
6,148,1246276,1021,-16251,-1971,51,-121,29
6,149,1246281,985,-16304,-1830,48,-101,26
6,150,1246286,901,-16345,-1824,48,-87,26
6,151,1246291,767,-16377,-1842,49,-60,24
6,152,1246296,731,-16398,-1742,44,-32,17
6,153,1246301,805,-16382,-1574,42,-22,21
6,154,1246306,1165,-16438,-1543,48,-26,26
6,155,1246311,1325,-16434,-1453,44,-18,19
6,156,1246316,1123,-16430,-980,39,-9,16
6,157,1246321,925,-16350,-876,35,-28,16
6,158,1246326,1077,-16207,-1227,38,-39,18
6,159,1246331,1382,-16159,-1482,37,-25,19
6,160,1246336,1433,-16206,-1189,30,-24,17
6,161,1246341,1339,-16253,-941,27,-63,17
6,162,1246346,1246,-16362,-1068,28,-103,21
6,163,1246351,1234,-16446,-1283,27,-89,24
6,164,1246356,1309,-16427,-1103,20,-54,19
6,165,1246361,1363,-16356,-880,17,-59,21
6,166,1246366,1436,-16296,-1020,19,-102,25
6,167,1246371,1387,-16279,-1264,18,-134,24
6,168,1246376,1226,-16269,-1401,15,-139,25
6,169,1246381,1107,-16242,-1376,16,-151,25
6,170,1246386,1083,-16269,-1367,15,-177,29
6,171,1246391,1195,-16291,-1445,13,-194,26
6,172,1246396,1250,-16318,-1467,14,-188,25
6,173,1246401,1167,-16344,-1510,11,-169,26
6,174,1246406,1114,-16350,-1608,8,-157,19
6,175,1246411,1121,-16409,-1652,5,-146,18
6,176,1246416,1124,-16399,-1637,3,-126,18
6,177,1246421,1014,-16370,-1562,-1,-107,13
6,178,1246426,1016,-16345,-1567,-4,-90,8
6,179,1246431,1018,-16324,-1599,-5,-82,9
6,180,1246436,1082,-16328,-1504,-6,-69,8
6,181,1246441,1119,-16353,-1382,-8,-57,5
6,182,1246446,1099,-16462,-1303,-9,-63,2
6,183,1246451,1124,-16454,-1306,-8,-76,3
6,184,1246456,1265,-16432,-1296,-7,-82,3
6,185,1246461,1260,-16405,-1187,-11,-87,-1
6,186,1246466,1109,-16355,-1176,-11,-98,-2
6,187,1246471,1009,-16267,-1348,-12,-117,-2
6,188,1246476,990,-16205,-1355,-10,-119,-2
6,189,1246481,1044,-16210,-1333,-10,-127,-2
6,190,1246486,1067,-16200,-1421,-11,-146,-3
6,191,1246491,1123,-16272,-1421,-9,-154,-3
6,192,1246496,1151,-16347,-1416,-10,-152,-5
6,193,1246501,1140,-16344,-1410,-10,-144,-10
6,194,1246506,1067,-16348,-1458,-11,-133,-12
6,195,1246511,1022,-16293,-1474,-12,-113,-12
6,196,1246516,1024,-16279,-1407,-14,-103,-12
6,197,1246521,1090,-16253,-1276,-16,-98,-13
6,198,1246526,1123,-16312,-1227,-15,-99,-13
6,199,1246531,1201,-16369,-1221,-16,-102,-14
6,200,1246536,1155,-16374,-1250,-14,-108,-17
6,201,1246541,1102,-16393,-1243,-14,-114,-18
6,202,1246546,1105,-16341,-1184,-14,-129,-14
6,203,1246551,1121,-16271,-1168,-9,-143,-10
6,204,1246556,1155,-16246,-1255,-10,-151,-11
6,205,1246561,1152,-16219,-1259,-12,-155,-13
6,206,1246566,1111,-16247,-1246,-10,-161,-13
6,207,1246571,1107,-16249,-1260,-8,-168,-11
6,208,1246576,1160,-16217,-1240,-9,-168,-11
6,209,1246581,1105,-16175,-1250,-8,-165,-11
6,210,1246586,1057,-16138,-1179,-10,-161,-11
6,211,1246591,998,-16070,-1183,-11,-157,-11
6,212,1246596,1026,-16057,-1179,-8,-151,-9
6,213,1246601,934,-16024,-1014,-13,-140,-12
6,214,1246606,865,-16024,-980,-14,-136,-12
6,215,1246611,991,-16043,-1092,-13,-133,-13
6,216,1246616,1143,-16061,-1141,-14,-130,-12
6,217,1246621,1163,-16060,-820,-14,-139,-15
6,218,1246626,1039,-16151,-740,-12,-167,-12
6,219,1246631,977,-16244,-955,-8,-187,-7
6,220,1246636,951,-16322,-1123,-8,-185,-12
6,221,1246641,998,-16362,-1043,-7,-182,-11
6,222,1246646,984,-16392,-1013,-8,-200,-9
6,223,1246651,1031,-16429,-1261,-5,-227,-7
6,224,1246656,1072,-16486,-1447,-3,-236,-7
6,225,1246661,1118,-16536,-1303,-3,-236,-6
6,226,1246666,1150,-16536,-1166,0,-246,-7
6,227,1246671,1124,-16594,-1326,2,-257,-3
6,228,1246676,1139,-16591,-1514,5,-251,-5
6,229,1246681,1176,-16603,-1542,4,-237,-6
6,230,1246686,1221,-16565,-1600,5,-221,-6
6,231,1246691,1235,-16499,-1692,4,-201,-3
6,232,1246696,1188,-16519,-1833,3,-170,-5
6,233,1246701,1161,-16529,-1742,0,-133,-7
6,234,1246706,1145,-16511,-1642,3,-109,-6
6,235,1246711,1130,-16477,-1685,6,-92,-7
6,236,1246716,1065,-16449,-1717,4,-78,-7
6,237,1246721,954,-16452,-1765,8,-70,-7
6,238,1246726,995,-16417,-1707,6,-69,-4
6,239,1246731,1019,-16429,-1633,10,-72,-2
6,240,1246736,989,-16393,-1657,13,-70,-4
6,241,1246741,859,-16409,-1720,12,-66,-6
6,242,1246746,811,-16394,-1774,17,-64,-3
6,243,1246751,824,-16372,-1812,19,-60,-3
6,244,1246756,850,-16351,-1746,18,-58,-8
6,245,1246761,898,-16403,-1689,24,-54,-5
6,246,1246766,837,-16457,-1738,26,-49,-6
6,247,1246771,886,-16489,-1713,27,-41,-10
6,248,1246776,980,-16526,-1645,30,-37,-8
6,249,1246781,981,-16510,-1550,29,-37,-7
6,250,1246786,946,-16521,-1522,29,-41,-6
6,251,1246791,934,-16560,-1545,32,-41,-7
6,252,1246796,991,-16520,-1533,35,-30,-9
6,253,1246801,925,-16515,-1510,34,-20,-9
6,254,1246806,943,-16471,-1408,33,-17,-7
6,255,1246811,929,-16469,-1422,33,-16,-9
6,256,1246816,935,-16421,-1377,33,-12,-10
6,257,1246821,916,-16447,-1334,33,-17,-8
6,258,1246826,964,-16427,-1327,33,-22,-7
6,259,1246831,948,-16369,-1235,35,-31,-5
6,260,1246836,891,-16367,-1457,35,-41,-8
6,261,1246841,866,-16338,-1508,35,-45,-8
6,262,1246846,947,-16302,-1524,36,-49,-5
6,263,1246851,937,-16287,-1472,36,-47,-2
6,264,1246856,888,-16301,-1515,35,-40,-4
6,265,1246861,885,-16389,-1575,39,-33,-4
6,266,1246866,862,-16440,-1599,33,-16,-5
6,267,1246871,911,-16449,-1563,28,0,-5
6,268,1246876,946,-16375,-1510,31,12,-5
6,269,1246881,902,-16390,-1536,31,14,-7
6,270,1246886,877,-16392,-1534,30,18,-7
6,271,1246891,820,-16323,-1470,30,23,-8
6,272,1246896,838,-16365,-1478,31,22,-11
6,273,1246901,921,-16405,-1515,29,24,-9
6,274,1246906,931,-16430,-1428,29,23,-7
6,275,1246911,969,-16441,-1235,27,17,-7
6,276,1246916,998,-16458,-1224,26,10,-7
6,277,1246921,1053,-16482,-1225,25,11,-7
6,278,1246926,1054,-16532,-1208,25,20,-7
6,279,1246931,1005,-16478,-1155,25,16,-6
6,280,1246936,1097,-16451,-1168,24,4,-3
6,281,1246941,1133,-16412,-1177,21,-7,-1
6,282,1246946,1138,-16348,-1151,20,-14,1
6,283,1246951,1118,-16361,-1219,22,-26,3
6,284,1246956,1053,-16397,-1366,23,-45,3
6,285,1246961,1043,-16367,-1374,21,-54,3
6,286,1246966,983,-16354,-1438,22,-57,4
6,287,1246971,960,-16314,-1527,22,-52,2
6,288,1246976,909,-16299,-1615,20,-44,-1
6,289,1246981,920,-16322,-1610,18,-34,0
6,290,1246986,916,-16341,-1646,16,-24,1
6,291,1246991,958,-16363,-1592,16,-12,-1
6,292,1246996,938,-16386,-1562,13,-3,0
6,293,1247001,987,-16392,-1529,12,5,1
6,294,1247006,995,-16403,-1480,12,14,-3
6,295,1247011,992,-16386,-1368,13,20,-5
6,296,1247016,1050,-16412,-1213,12,16,-2
6,297,1247021,1109,-16406,-1200,12,16,-2
6,298,1247026,1105,-16357,-1228,10,16,-2
6,299,1247031,1026,-16341,-1189,8,11,-1
6,300,1247036,952,-16352,-1175,10,0,1
6,301,1247041,976,-16302,-1149,11,-15,0
6,302,1247046,1020,-16295,-1152,8,-25,1
6,303,1247051,1022,-16344,-1142,11,-33,1
6,304,1247056,993,-16347,-1181,12,-44,0
6,305,1247061,938,-16351,-1279,11,-60,-1
6,306,1247066,959,-16430,-1394,10,-65,1
6,307,1247071,1002,-16465,-1407,10,-60,2
6,308,1247076,986,-16455,-1277,9,-49,1
6,309,1247081,959,-16427,-1314,8,-43,-1
6,310,1247086,905,-16385,-1415,11,-33,-1
6,311,1247091,917,-16394,-1380,5,-19,-5
6,312,1247096,945,-16357,-1319,4,-12,-4
6,313,1247101,958,-16382,-1295,4,-14,-7
6,314,1247106,936,-16441,-1307,2,-17,-5
6,315,1247111,916,-16497,-1323,4,-20,-7
6,316,1247116,905,-16486,-1236,6,-23,-8
6,317,1247121,907,-16476,-1326,5,-22,-5
6,318,1247126,944,-16426,-1416,3,-24,-9
6,319,1247131,945,-16420,-1456,4,-19,-9
6,320,1247136,926,-16475,-1358,3,-17,-11
6,321,1247141,899,-16517,-1404,5,-18,-9
6,322,1247146,908,-16515,-1406,4,-14,-10
6,323,1247151,976,-16537,-1447,6,-8,-12
6,324,1247156,1095,-16553,-1387,8,-9,-9
6,325,1247161,1146,-16501,-1327,7,-11,-9
6,326,1247166,1123,-16509,-1415,11,-12,-10
6,327,1247171,1083,-16530,-1542,11,-12,-11
6,328,1247176,1064,-16516,-1535,6,-6,-10
6,329,1247181,1057,-16521,-1439,7,-6,-11
6,330,1247186,1107,-16522,-1396,11,-7,-10
6,331,1247191,1209,-16532,-1305,9,-2,-11
6,332,1247196,1255,-16537,-1320,9,8,-9
6,333,1247201,1161,-16395,-1384,11,17,-7
6,334,1247206,1140,-16297,-1371,11,17,-7
6,335,1247211,1088,-16200,-1355,9,21,-6
6,336,1247216,1047,-16195,-1328,8,28,-6
6,337,1247221,1065,-16296,-1238,11,29,-5
6,338,1247226,946,-16228,-1067,8,21,-6
6,339,1247231,915,-16131,-997,7,10,-9
6,340,1247236,988,-16134,-1173,9,-3,-3
6,341,1247241,1103,-16171,-1380,9,-5,-4
6,342,1247246,1030,-16211,-1180,8,1,-8
6,343,1247251,693,-16130,-1084,4,-10,-7
6,344,1247256,872,-16065,-1453,9,-14,-9
6,345,1247261,1105,-16051,-1940,11,17,-6
6,346,1247266,1224,-16105,-1765,8,49,-9
6,347,1247271,940,-16153,-1275,4,35,-13
6,348,1247276,758,-16205,-1293,8,3,-9
6,349,1247281,949,-16307,-1620,9,18,-5
6,350,1247286,1118,-16311,-1602,6,73,-12
6,351,1247291,1143,-16305,-1231,2,90,-17
6,352,1247296,1035,-16347,-1156,6,52,-15
6,353,1247301,1024,-16410,-1346,10,16,-7
6,354,1247306,1009,-16439,-1431,6,33,-7
6,355,1247311,1034,-16448,-1247,7,53,-11
6,356,1247316,1102,-16442,-1156,6,36,-10
6,357,1247321,1121,-16457,-1285,7,5,-8
6,358,1247326,1109,-16424,-1388,7,-1,-7
6,359,1247331,1022,-16400,-1260,7,5,-6
6,360,1247336,1033,-16379,-1187,7,1,-8
6,361,1247341,1082,-16370,-1240,6,-12,-4
6,362,1247346,1026,-16363,-1347,7,-15,-4
6,363,1247351,935,-16348,-1311,6,-9,-3
6,364,1247356,876,-16295,-1234,6,0,-6
6,365,1247361,855,-16285,-1312,3,1,-5
6,366,1247366,842,-16345,-1352,4,-1,-4
6,367,1247371,836,-16357,-1317,3,-1,-7
6,368,1247376,889,-16318,-1271,2,-3,-7
6,369,1247381,896,-16311,-1236,2,-6,-4
6,370,1247386,907,-16323,-1246,5,-4,-5
6,371,1247391,913,-16406,-1232,1,-2,-4
6,372,1247396,923,-16380,-1145,1,-2,-8
6,373,1247401,949,-16413,-1090,1,-7,-9
6,374,1247406,985,-16443,-1089,-1,-19,-7
6,375,1247411,955,-16451,-1125,-1,-25,-1
6,376,1247416,956,-16470,-1124,-3,-29,-3
6,377,1247421,883,-16446,-1130,-2,-39,-4
6,378,1247426,901,-16423,-1137,-1,-51,-3
6,379,1247431,845,-16411,-1293,1,-58,-1
6,380,1247436,907,-16374,-1484,3,-55,-2
6,381,1247441,910,-16298,-1582,3,-47,-2
6,382,1247446,831,-16340,-1485,1,-43,-4
6,383,1247451,766,-16404,-1420,2,-48,-5
6,384,1247456,818,-16535,-1531,2,-47,1
6,385,1247461,958,-16532,-1704,1,-32,1
6,386,1247466,1004,-16516,-1712,2,-10,-4
6,387,1247471,893,-16480,-1649,1,-3,-5
6,388,1247476,761,-16488,-1626,-1,0,-7
6,389,1247481,809,-16502,-1683,-1,22,-5
6,390,1247486,884,-16487,-1738,-1,64,-7
6,391,1247491,833,-16396,-1569,-3,95,-9
6,392,1247496,829,-16325,-1370,-5,100,-10
6,393,1247501,790,-16345,-1333,-5,89,-11
6,394,1247506,813,-16316,-1355,-1,89,-5
6,395,1247511,858,-16307,-1344,-2,96,-10
6,396,1247516,904,-16334,-1222,-2,83,-9
6,397,1247521,913,-16309,-1240,3,53,-7
6,398,1247526,905,-16313,-1346,3,34,-6
6,399,1247531,865,-16380,-1404,4,28,-6
6,400,1247536,813,-16416,-1335,4,24,-8
6,401,1247541,774,-16436,-1349,4,13,-9
6,402,1247546,764,-16427,-1470,7,8,-7
6,403,1247551,742,-16430,-1658,5,16,-7
6,404,1247556,769,-16514,-1769,9,35,-7
6,405,1247561,719,-16474,-1793,8,46,-6
6,406,1247566,745,-16510,-1691,5,50,-7
6,407,1247571,733,-16569,-1505,7,78,-3
6,408,1247576,752,-16572,-1444,4,100,-4
6,409,1247581,701,-16538,-1294,2,114,-4
6,410,1247586,551,-16540,-1111,1,118,-3
6,411,1247591,382,-16603,-1048,0,114,-3
6,412,1247596,364,-16739,-974,-1,110,3
6,413,1247601,436,-16739,-755,-3,102,6
6,414,1247606,473,-16675,-446,-3,75,8
6,415,1247611,523,-16793,-372,2,19,14
6,416,1247616,559,-16986,-417,5,-37,21
6,417,1247621,597,-17153,-386,9,-96,31
6,418,1247626,647,-17297,-263,13,-162,39
6,419,1247631,647,-17444,-150,18,-243,49
6,420,1247636,590,-17489,-180,24,-332,59
6,421,1247641,500,-17424,-190,30,-412,66
6,422,1247646,485,-17250,-451,38,-488,80
6,423,1247651,419,-17038,-633,44,-556,91
6,424,1247656,239,-16796,-714,53,-626,105
6,425,1247661,20,-16611,-1026,58,-679,116
6,426,1247666,-255,-16489,-1495,61,-692,125
6,427,1247671,-443,-16545,-2000,62,-663,134
6,428,1247676,-476,-16412,-2085,59,-601,139
6,429,1247681,-511,-16268,-2121,55,-525,143
6,430,1247686,-669,-16099,-2406,51,-436,144
6,431,1247691,-1012,-15971,-2580,44,-317,144
6,432,1247696,-1290,-15853,-2506,37,-193,147
6,433,1247701,-1407,-15769,-2286,28,-73,149
6,434,1247706,-1413,-15779,-2160,19,37,153
6,435,1247711,-1440,-15796,-1949,16,151,157
6,436,1247716,-1462,-15921,-1761,9,238,159
6,437,1247721,-1407,-15972,-1575,8,294,164
6,438,1247726,-1354,-16072,-1255,9,328,171
6,439,1247731,-1262,-16122,-925,6,353,175
6,440,1247736,-1245,-16147,-633,10,367,182
6,441,1247741,-1243,-16257,-619,15,341,191
6,442,1247746,-1096,-16320,-690,17,299,203
6,443,1247751,-856,-16371,-540,18,277,212
6,444,1247756,-753,-16330,-466,23,235,223
6,445,1247761,-794,-16339,-521,31,178,236
6,446,1247766,-892,-16374,-411,37,136,247
6,447,1247771,-863,-16421,-540,41,98,261
6,448,1247776,-701,-16426,-625,43,85,273
6,449,1247781,-466,-16400,-796,49,85,288
6,450,1247786,-461,-16396,-817,50,87,295
6,451,1247791,-600,-16380,-901,51,80,304
6,452,1247796,-658,-16319,-1103,52,73,320
6,453,1247801,-765,-16279,-1234,55,86,329
6,454,1247806,-754,-16259,-1242,57,116,342
6,455,1247811,-780,-16291,-1189,58,149,349
6,456,1247816,-814,-16352,-1232,58,165,358
6,457,1247821,-737,-16331,-1276,59,176,368
6,458,1247826,-666,-16279,-1266,62,192,380
6,459,1247831,-731,-16260,-1200,65,209,386
6,460,1247836,-850,-16272,-1186,67,213,396
6,461,1247841,-880,-16272,-1259,67,222,406
6,462,1247846,-759,-16320,-1298,70,235,416
6,463,1247851,-683,-16343,-1274,75,249,425
6,464,1247856,-722,-16392,-1191,76,264,433
6,465,1247861,-806,-16476,-1189,75,282,437
6,466,1247866,-808,-16543,-1138,73,308,444
6,467,1247871,-761,-16615,-965,74,334,451
6,468,1247876,-687,-16629,-734,73,354,457
6,469,1247881,-580,-16686,-564,74,353,466
6,470,1247886,-509,-16722,-383,77,334,473
6,471,1247891,-450,-16793,-270,77,307,480
6,472,1247896,-345,-16728,-175,84,264,492
6,473,1247901,-243,-16651,-209,89,208,499
6,474,1247906,-222,-16563,-229,94,150,510
6,475,1247911,-280,-16563,-287,102,85,518
6,476,1247916,-218,-16663,-478,108,28,526
6,477,1247921,-202,-16750,-639,110,-4,535
6,478,1247926,-156,-16752,-658,113,-16,537
6,479,1247931,-226,-16715,-818,116,-22,543
6,480,1247936,-295,-16663,-1168,115,5,549
6,481,1247941,-397,-16505,-1134,115,29,545
6,482,1247946,-500,-16403,-1077,118,45,552
6,483,1247951,-438,-16428,-1197,119,55,562
6,484,1247956,-360,-16431,-1181,116,82,560
6,485,1247961,-347,-16508,-1030,118,101,557
6,486,1247966,-214,-16555,-1119,121,93,558
6,487,1247971,-67,-16517,-1156,122,88,559
6,488,1247976,-136,-16508,-966,122,93,555
6,489,1247981,-242,-16644,-881,123,97,554
6,490,1247986,-152,-16740,-978,124,109,555
6,491,1247991,47,-16743,-1005,120,132,550
6,492,1247996,90,-16710,-660,121,150,549
6,493,1248001,53,-16735,-666,120,148,543
6,494,1248006,47,-16784,-827,121,148,543
6,495,1248011,214,-16726,-832,117,156,541
6,496,1248016,251,-16546,-444,113,151,538
6,497,1248021,78,-16415,-194,117,115,532
6,498,1248026,-128,-16384,-446,123,74,531
6,499,1248031,-264,-16331,-791,122,57,526
6,500,1248036,-258,-16321,-699,116,57,523
6,501,1248041,-89,-16266,-657,118,44,514
6,502,1248046,103,-16235,-857,120,24,500
6,503,1248051,127,-16170,-913,118,17,494
6,504,1248056,59,-16136,-866,116,11,486
6,505,1248061,29,-15978,-768,116,5,475
6,506,1248066,-147,-15805,-380,115,-4,470
6,507,1248071,-255,-15861,-791,112,-36,458
6,508,1248076,33,-15983,-945,116,-47,443
6,509,1248081,296,-16091,-1466,117,-50,435
6,510,1248086,435,-16151,-1474,116,-39,418
6,511,1248091,91,-16109,-1272,108,-28,398
6,512,1248096,-206,-16039,-1154,101,-10,386
6,513,1248101,-201,-15913,-1231,100,27,375
6,514,1248106,147,-15914,-1367,97,77,358
6,515,1248111,493,-16042,-1391,94,106,339
6,516,1248116,576,-16156,-1449,91,94,324
6,517,1248121,438,-16225,-1460,91,77,310
6,518,1248126,258,-16303,-1680,88,92,293
6,519,1248131,198,-16315,-1608,84,139,273
6,520,1248136,233,-16374,-1416,77,182,253
6,521,1248141,280,-16409,-1359,73,201,236
6,522,1248146,292,-16381,-1386,70,212,216
6,523,1248151,322,-16372,-1210,67,222,198
6,524,1248156,343,-16407,-986,62,215,177
6,525,1248161,492,-16351,-863,59,190,160
6,526,1248166,576,-16317,-826,60,157,146
6,527,1248171,579,-16375,-863,63,123,123
6,528,1248176,589,-16416,-888,60,92,105
6,529,1248181,622,-16518,-848,62,64,87
6,530,1248186,746,-16655,-888,60,30,66
6,531,1248191,852,-16743,-884,56,2,44
6,532,1248196,925,-16655,-954,55,-17,28
6,533,1248201,914,-16592,-1115,53,-18,3
6,534,1248206,763,-16521,-1348,48,-21,-18
6,535,1248211,683,-16477,-1516,45,-24,-38
6,536,1248216,552,-16350,-1583,43,-22,-58
6,537,1248221,476,-16300,-1508,38,-16,-84
6,538,1248226,441,-16318,-1238,30,-10,-105
6,539,1248231,356,-16339,-1143,25,-8,-126
6,540,1248236,435,-16268,-1470,27,10,-154
6,541,1248241,519,-16283,-1866,23,42,-178
6,542,1248246,413,-16286,-1597,13,66,-205
6,543,1248251,183,-16373,-1212,10,43,-225
6,544,1248256,78,-16470,-1100,8,20,-247
6,545,1248261,231,-16574,-1122,3,29,-270
6,546,1248266,314,-16576,-896,0,46,-299
6,547,1248271,317,-16564,-678,0,23,-323
6,548,1248276,402,-16623,-803,-3,-37,-345
6,549,1248281,490,-16669,-920,-7,-71,-365
6,550,1248286,606,-16662,-830,-9,-83,-387
6,551,1248291,646,-16695,-583,-12,-106,-413
6,552,1248296,706,-16671,-573,-14,-154,-434
6,553,1248301,716,-16723,-784,-18,-207,-476
6,554,1248306,659,-16674,-660,-20,-216,-493
6,555,1248311,602,-16658,-763,-25,-232,-512
6,556,1248316,504,-16642,-1081,-30,-245,-532
6,557,1248321,422,-16676,-1303,-36,-243,-556
6,558,1248326,420,-16670,-1230,-44,-235,-576
6,559,1248331,425,-16643,-1213,-47,-234,-590
6,560,1248336,290,-16665,-1438,-49,-242,-610
6,561,1248341,123,-16680,-1647,-55,-238,-629
6,562,1248346,100,-16665,-1643,-59,-220,-647
6,563,1248351,204,-16711,-1532,-64,-198,-665
6,564,1248356,246,-16772,-1419,-71,-176,-686
6,565,1248361,253,-16838,-1387,-70,-152,-703
6,566,1248366,247,-16881,-1459,-77,-117,-724
6,567,1248371,236,-16870,-1383,-84,-92,-741
6,568,1248376,215,-16861,-1353,-89,-77,-755
6,569,1248381,195,-16819,-1342,-92,-67,-772
6,570,1248386,222,-16820,-1320,-94,-58,-787
6,571,1248391,154,-16816,-1201,-96,-55,-801
6,572,1248396,96,-16824,-1174,-98,-63,-817
6,573,1248401,134,-16778,-1226,-100,-78,-829
6,574,1248406,238,-16807,-1250,-102,-80,-840
6,575,1248411,248,-16870,-1148,-106,-87,-853
6,576,1248416,193,-16921,-1056,-109,-109,-866
6,577,1248421,177,-16985,-1215,-109,-127,-875
6,578,1248426,109,-16984,-1430,-111,-124,-887
6,579,1248431,96,-17005,-1484,-115,-106,-899
6,580,1248436,89,-17075,-1375,-125,-84,-911
6,581,1248441,114,-17151,-1325,-128,-61,-920
6,582,1248446,494,-17262,-1600,-132,-23,-931
6,583,1248451,392,-17090,-1337,-142,39,-944
6,584,1248456,177,-17072,-1051,-148,64,-956
6,585,1248461,-77,-17029,-968,-152,70,-964
6,586,1248466,-115,-16986,-1150,-157,82,-968
6,587,1248471,64,-16994,-1094,-163,112,-976
6,588,1248476,291,-17113,-845,-167,123,-983
6,589,1248481,456,-17192,-576,-171,105,-990
6,590,1248486,505,-17234,-524,-171,69,-992
6,591,1248491,272,-17155,-517,-174,50,-1001
6,592,1248496,119,-17191,-797,-173,28,-1003
6,593,1248501,237,-17302,-1154,-175,11,-1000
6,594,1248506,459,-17391,-1139,-179,-3,-1005
6,595,1248511,478,-17428,-846,-181,-31,-1007
6,596,1248516,392,-17448,-757,-180,-63,-1008
6,597,1248521,325,-17428,-881,-183,-80,-1005
6,598,1248526,295,-17363,-1019,-189,-65,-1008
6,599,1248531,-910,-5505,-7661,-201,-30,-967
6,600,1248536,-7097,-1458,7626,-221,691,-1254
6,601,1248541,5733,-16983,-7089,-224,842,-576
6,602,1248546,-5192,-8394,-263,-156,1522,-358
6,603,1248551,17681,-15599,7392,-259,1640,-998
6,604,1248556,-9574,-14904,14546,-221,202,-1101
6,605,1248561,-5470,-20907,-5245,79,-2129,-571
6,606,1248566,-2693,-18118,-7933,-28,-1556,-532
6,607,1248571,2817,-14650,-2341,-150,118,-755
6,608,1248576,3282,-16959,4425,-219,700,-858
6,609,1248581,-2542,-16264,3277,-153,-207,-816
6,610,1248586,1896,-18305,-4912,-75,-1100,-678
6,611,1248591,130,-16252,-4697,-141,-688,-744
6,612,1248596,602,-16362,-557,-194,120,-796
6,613,1248601,-628,-16581,1972,-204,284,-772
6,614,1248606,679,-16816,-547,-179,-156,-702
6,615,1248611,1826,-17024,-2833,-181,-377,-688
6,616,1248616,649,-16397,-977,-205,-172,-734
6,617,1248621,365,-16522,711,-205,-7,-734
6,618,1248626,96,-16521,609,-186,-94,-698
6,619,1248631,1348,-16767,-1345,-178,-293,-666
6,620,1248636,1447,-16626,-1273,-195,-302,-672
6,621,1248641,1161,-16501,-290,-202,-264,-677
6,622,1248646,866,-16472,105,-198,-285,-668
6,623,1248651,867,-16513,-807,-185,-359,-641
6,624,1248656,1148,-16663,-1388,-190,-364,-618
6,625,1248661,1072,-16542,-928,-202,-312,-615
6,626,1248666,1016,-16471,-881,-201,-339,-586
6,627,1248671,931,-16512,-1336,-198,-371,-571
6,628,1248676,864,-16431,-1342,-198,-372,-554
6,629,1248681,1125,-16275,-1235,-196,-370,-538
6,630,1248686,1483,-16210,-1244,-194,-380,-528
6,631,1248691,1630,-16238,-1343,-191,-397,-513
6,632,1248696,1468,-16225,-1476,-186,-407,-497
6,633,1248701,1406,-16105,-1688,-181,-399,-482
6,634,1248706,1447,-16065,-1794,-183,-369,-467
6,635,1248711,1575,-15999,-1836,-185,-317,-453
6,636,1248716,1629,-16010,-1790,-186,-260,-441
6,637,1248721,1678,-15967,-1623,-187,-215,-428
6,638,1248726,1785,-15925,-1669,-188,-179,-414
6,639,1248731,1918,-15846,-1757,-187,-136,-399
6,640,1248736,2015,-15811,-1669,-186,-97,-387
6,641,1248741,2077,-15907,-1496,-188,-64,-372
6,642,1248746,2163,-15956,-1383,-187,-52,-355
6,643,1248751,2202,-15919,-1427,-182,-43,-337
6,644,1248756,2114,-16018,-1366,-181,-20,-326
6,645,1248761,2068,-16213,-1395,-175,-5,-307
6,646,1248766,2446,-16208,-1747,-173,0,-286
6,647,1248771,2646,-15989,-1468,-171,5,-271
6,648,1248776,2651,-15942,-1199,-164,-28,-253
6,649,1248781,2607,-16038,-1477,-153,-77,-231
6,650,1248786,2803,-16131,-1771,-143,-103,-212
6,651,1248791,3006,-16130,-1578,-139,-110,-197
6,652,1248796,3137,-16069,-1506,-131,-135,-182
6,653,1248801,3172,-16008,-1787,-123,-166,-165
6,654,1248806,3129,-15872,-2343,-114,-170,-149
6,655,1248811,2966,-15722,-2390,-113,-135,-139
6,656,1248816,2749,-15679,-2248,-115,-87,-127
6,657,1248821,2618,-15665,-2330,-113,-35,-114
6,658,1248826,2579,-15647,-2481,-111,44,-104
6,659,1248831,2582,-15624,-2332,-114,142,-98
6,660,1248836,2702,-15611,-1959,-122,224,-91
6,661,1248841,2913,-15625,-1606,-120,256,-78
6,662,1248846,2949,-15714,-1724,-116,258,-70
6,663,1248851,2989,-15749,-1799,-111,261,-58
6,664,1248856,3043,-15637,-1890,-103,249,-43
6,665,1248861,3104,-15595,-1563,-98,216,-28
6,666,1248866,3251,-15723,-1594,-89,149,-14
6,667,1248871,3477,-15882,-1844,-77,102,-2
6,668,1248876,3559,-15920,-1955,-72,81,6
6,669,1248881,3621,-15883,-1858,-65,61,14
6,670,1248886,3599,-15857,-1851,-58,35,23
6,671,1248891,3643,-15854,-2109,-53,20,35
6,672,1248896,3538,-15828,-2363,-53,44,40
6,673,1248901,3447,-15738,-2363,-53,90,44
6,674,1248906,3415,-15603,-2241,-53,115,51
6,675,1248911,3386,-15526,-2313,-48,123,59
6,676,1248916,3399,-15557,-2476,-48,148,63
6,677,1248921,3423,-15629,-2340,-49,196,66
6,678,1248926,3438,-15643,-2205,-47,219,67
6,679,1248931,3407,-15711,-2108,-45,231,73
6,680,1248936,3439,-15735,-2120,-46,236,79
6,681,1248941,3538,-15711,-2015,-43,256,82
6,682,1248946,3544,-15766,-1910,-44,272,82
6,683,1248951,3504,-15851,-1774,-44,273,88
6,684,1248956,3516,-15857,-1797,-40,254,94
6,685,1248961,3561,-15876,-1834,-37,243,96
6,686,1248966,3552,-15896,-1734,-37,232,100
6,687,1248971,3565,-15930,-1663,-33,205,103
6,688,1248976,3651,-15929,-1722,-27,168,107
6,689,1248981,3610,-15945,-1870,-25,148,106
6,690,1248986,3561,-15961,-1912,-23,130,110
6,691,1248991,3642,-15909,-1855,-19,110,114
6,692,1248996,3674,-15879,-1802,-15,86,115
6,693,1249001,3602,-15912,-1808,-14,62,113
6,694,1249006,3557,-15951,-1984,-12,48,117
6,695,1249011,3575,-15966,-2155,-9,49,115
6,696,1249016,3700,-15865,-2152,-11,56,117
6,697,1249021,3752,-15885,-1961,-12,58,118
6,698,1249026,3735,-15952,-2053,-7,43,118
6,699,1249031,3634,-16030,-2137,-2,44,115
6,700,1249036,3630,-16006,-2120,-3,40,115
6,701,1249041,3743,-16008,-2162,-2,29,116
6,702,1249046,3748,-16013,-2235,4,20,117
6,703,1249051,3653,-16016,-2263,4,18,118
6,704,1249056,3566,-15951,-2254,3,22,113
6,705,1249061,3567,-15914,-2288,4,24,114
6,706,1249066,3615,-15940,-2250,4,35,114
6,707,1249071,3634,-16051,-2142,2,43,111
6,708,1249076,3602,-16098,-1934,2,42,108
6,709,1249081,3589,-16063,-1957,3,37,109
6,710,1249086,3626,-16027,-2030,5,40,104
6,711,1249091,3536,-15924,-2027,4,52,101
6,712,1249096,3500,-15849,-1998,2,47,98
6,713,1249101,3525,-15807,-2063,2,34,99
6,714,1249106,3523,-15866,-2092,3,25,99
6,715,1249111,3513,-15902,-2095,5,24,96
6,716,1249116,3589,-15990,-2049,2,32,96
6,717,1249121,3693,-16112,-2096,1,40,93
6,718,1249126,3771,-16164,-1996,2,47,89
6,719,1249131,3712,-16126,-1871,0,48,87
6,720,1249136,3604,-16094,-1922,1,44,85
6,721,1249141,3587,-16067,-1911,1,41,84
6,722,1249146,3601,-15991,-1895,2,36,85
6,723,1249151,3587,-15872,-1876,0,27,81
6,724,1249156,3644,-15864,-1987,1,9,81
6,725,1249161,3516,-15891,-1982,5,0,83
6,726,1249166,3580,-16005,-2115,6,-9,80
6,727,1249171,3544,-16000,-1996,4,-12,77
6,728,1249176,3548,-16006,-1910,6,-22,78
6,729,1249181,3642,-16001,-1884,7,-31,78
6,730,1249186,3682,-16017,-1919,7,-39,73
6,731,1249191,3685,-16062,-1979,8,-48,71
6,732,1249196,3620,-16010,-2087,7,-57,71
6,733,1249201,3664,-15996,-2195,10,-65,73
6,734,1249206,3665,-15981,-2197,9,-66,72
6,735,1249211,3573,-15962,-2204,11,-57,70
6,736,1249216,3439,-15920,-2195,6,-47,65
6,737,1249221,3355,-15888,-2291,9,-30,64
6,738,1249226,3361,-15863,-2398,7,-2,60
6,739,1249231,3351,-15838,-2289,5,19,57
6,740,1249236,3375,-15868,-2084,3,23,54
6,741,1249241,3423,-15935,-2005,1,16,56
6,742,1249246,3433,-15976,-1978,3,11,59
6,743,1249251,3466,-16002,-1994,1,16,50
6,744,1249256,3440,-15960,-1910,2,18,49
6,745,1249261,3381,-15921,-1855,3,10,48
6,746,1249266,3372,-15975,-1838,1,-2,48
6,747,1249271,3403,-15986,-1794,-1,-10,45
6,748,1249276,3440,-15965,-1842,0,-15,47
6,749,1249281,3487,-16010,-1851,1,-22,45
6,750,1249286,3541,-16018,-1878,2,-35,46
6,751,1249291,3562,-16028,-1929,1,-45,44
6,752,1249296,3547,-16031,-1942,0,-50,41
6,753,1249301,3453,-16036,-1904,-1,-51,40
6,754,1249306,3435,-16048,-2022,2,-54,41
6,755,1249311,3478,-16030,-2204,3,-49,40
6,756,1249316,3501,-15984,-2208,2,-42,38
6,757,1249321,3459,-15933,-2207,-1,-38,34
6,758,1249326,3401,-15895,-2211,0,-40,33
6,759,1249331,3354,-15874,-2304,2,-41,33
6,760,1249336,3383,-15893,-2389,1,-26,32
6,761,1249341,3391,-15868,-2307,-3,-5,31
6,762,1249346,3312,-15895,-2308,-3,5,27
6,763,1249351,3266,-15957,-2302,-2,14,24
6,764,1249356,3343,-16001,-2245,-2,27,26
6,765,1249361,3360,-16010,-2085,-4,36,22
6,766,1249366,3384,-16053,-2032,-1,35,19
6,767,1249371,3433,-16056,-2065,0,22,18
6,768,1249376,3409,-16034,-2101,0,18,16
6,769,1249381,3337,-15989,-2005,2,14,16
6,770,1249386,3360,-15954,-2058,4,5,14
6,771,1249391,3341,-15941,-2085,3,-5,13
6,772,1249396,3371,-15924,-2144,4,-11,12
6,773,1249401,3315,-15916,-2086,8,-18,6
6,774,1249406,3251,-15911,-2108,7,-19,3
6,775,1249411,3325,-15879,-2081,9,-18,3
6,776,1249416,3346,-15926,-2040,9,-19,3
6,777,1249421,3385,-15954,-2021,10,-21,3
6,778,1249426,3373,-15951,-1994,9,-23,-1
6,779,1249431,3389,-15956,-1966,10,-32,0
6,780,1249436,3393,-15949,-2060,10,-37,-4
6,781,1249441,3435,-15960,-2060,10,-38,-5
6,782,1249446,3521,-16025,-2068,7,-42,-2
6,783,1249451,3615,-16124,-2034,9,-44,-2
6,784,1249456,3631,-16185,-2063,9,-46,-8
6,785,1249461,3501,-16217,-2034,10,-41,-11
6,786,1249466,3409,-16171,-2033,10,-39,-9
6,787,1249471,3473,-16087,-1999,11,-36,-9
6,788,1249476,3456,-16051,-1994,11,-29,-7
6,789,1249481,3400,-16085,-1955,9,-23,-9
6,790,1249486,3303,-16123,-1958,9,-22,-8
6,791,1249491,3312,-16071,-1925,9,-19,-8
6,792,1249496,3359,-16071,-1875,7,-16,-11
6,793,1249501,3300,-16032,-1722,8,-19,-14
6,794,1249506,3290,-15989,-1772,9,-32,-14
6,795,1249511,3306,-16006,-1841,10,-44,-12
6,796,1249516,3362,-16108,-1795,9,-50,-12
6,797,1249521,3375,-15985,-1844,9,-48,-16
6,798,1249526,3322,-15903,-2013,9,-50,-17
6,799,1249531,3332,-15950,-2085,10,-50,-17
6,800,1249536,3468,-16045,-2188,11,-50,-14
6,801,1249541,3574,-15991,-2131,10,-49,-15
6,802,1249546,3449,-15927,-2001,11,-52,-21
6,803,1249551,3328,-15956,-2148,12,-60,-21
6,804,1249556,3314,-15935,-2327,12,-52,-20
6,805,1249561,3326,-15957,-2296,9,-27,-22
6,806,1249566,3312,-15910,-2175,9,-12,-25
6,807,1249571,3259,-15881,-2128,9,-9,-24
6,808,1249576,3205,-15918,-2151,7,-6,-24
6,809,1249581,3252,-16045,-2163,7,3,-24
6,810,1249586,3435,-16140,-2102,11,9,-25
6,811,1249591,3625,-16098,-2067,14,6,-25
6,812,1249596,3625,-16022,-2031,12,-2,-25
6,813,1249601,3470,-16008,-1958,13,-7,-24
6,814,1249606,3286,-15936,-2070,12,-4,-23
6,815,1249611,3272,-15889,-2107,14,10,-22
6,816,1249616,3340,-15868,-2021,12,27,-24
6,817,1249621,3339,-15817,-1923,12,39,-27
6,818,1249626,3297,-15847,-1935,10,39,-26
6,819,1249631,3238,-15895,-1928,10,34,-25
6,820,1249636,3228,-15873,-1871,9,34,-27
6,821,1249641,3290,-15892,-1798,11,31,-27
6,822,1249646,3238,-15971,-1758,12,20,-26
6,823,1249651,3205,-16033,-1798,11,3,-28
6,824,1249656,3243,-16053,-1877,14,-15,-28
6,825,1249661,3331,-16055,-1918,16,-26,-28
6,826,1249666,3388,-16021,-1908,17,-35,-26
6,827,1249671,3400,-16052,-1934,18,-50,-26
6,828,1249676,3360,-16115,-2036,19,-52,-27
6,829,1249681,3286,-16111,-2131,22,-46,-25
6,830,1249686,3284,-16093,-2154,19,-37,-27
6,831,1249691,3328,-16053,-2138,19,-30,-25
6,832,1249696,3329,-16073,-2063,20,-32,-24
6,833,1249701,3276,-16027,-2059,21,-35,-26
6,834,1249706,3222,-15974,-2111,26,-44,-25
6,835,1249711,3241,-15965,-2123,26,-47,-23
6,836,1249716,3204,-15966,-2075,26,-42,-21
6,837,1249721,3194,-15956,-2077,26,-36,-22
6,838,1249726,3235,-15988,-2026,28,-29,-22
6,839,1249731,3282,-15965,-1970,25,-23,-24
6,840,1249736,3324,-15972,-1895,23,-21,-23
6,841,1249741,3312,-16030,-1864,25,-31,-21
6,842,1249746,3267,-16018,-1895,29,-42,-19
6,843,1249751,3216,-16003,-1960,28,-46,-18
6,844,1249756,3310,-16019,-1938,29,-50,-18
6,845,1249761,3322,-16018,-1926,31,-57,-19
6,846,1249766,3269,-16020,-2030,33,-74,-14
6,847,1249771,3297,-16077,-2065,35,-71,-13
6,848,1249776,3307,-16089,-2044,34,-58,-14
6,849,1249781,3353,-16066,-1975,31,-46,-14
6,850,1249786,3228,-16022,-1994,31,-38,-15
6,851,1249791,3161,-15957,-2090,32,-22,-15
6,852,1249796,3202,-15895,-2174,29,-3,-14
6,853,1249801,3215,-15827,-2146,25,11,-13
6,854,1249806,3286,-15788,-1997,27,9,-11
6,855,1249811,3263,-15839,-2038,29,3,-12
6,856,1249816,3325,-15951,-2102,28,4,-9
6,857,1249821,3373,-15944,-2049,29,14,-10
6,858,1249826,3396,-15987,-2006,28,20,-11
6,859,1249831,3343,-16050,-2046,30,16,-10
6,860,1249836,3325,-16072,-2074,31,14,-10
6,861,1249841,3351,-16104,-1966,29,16,-7
6,862,1249846,3373,-16108,-1875,28,18,-5
6,863,1249851,3340,-16138,-1943,30,14,-6
6,864,1249856,3386,-16175,-1999,32,14,-8
6,865,1249861,3342,-16071,-1943,29,16,-6
6,866,1249866,3285,-16048,-1900,30,8,-6
6,867,1249871,3210,-16022,-1918,30,-1,-5
6,868,1249876,3191,-15981,-1995,30,-9,-6
6,869,1249881,3231,-15970,-1937,32,-4,-4
6,870,1249886,3269,-16008,-1800,30,-8,-5
6,871,1249891,3296,-16069,-1813,29,-18,-5
6,872,1249896,3307,-16044,-1852,29,-25,-8
6,873,1249901,3273,-16036,-1882,27,-32,-7
6,874,1249906,3240,-16023,-1893,27,-35,-8
6,875,1249911,3256,-16059,-1952,28,-45,-7
6,876,1249916,3275,-16027,-1969,27,-52,-7
6,877,1249921,3348,-16047,-1950,28,-59,-5
6,878,1249926,3315,-16050,-1983,26,-67,-5
6,879,1249931,3355,-16080,-2128,27,-72,-4
6,880,1249936,3390,-16107,-2243,28,-62,-5
6,881,1249941,3384,-16112,-2224,25,-46,-6
6,882,1249946,3389,-16120,-2205,23,-32,-7
6,883,1249951,3425,-16125,-2217,20,-17,-8
6,884,1249956,3390,-16161,-2198,18,0,-12
6,885,1249961,3404,-16110,-2074,20,10,-8
6,886,1249966,3421,-16057,-1974,17,12,-9
6,887,1249971,3437,-16006,-1976,16,8,-8
6,888,1249976,3386,-15988,-1948,16,9,-4
6,889,1249981,3326,-15938,-1904,13,5,-6
6,890,1249986,3269,-15900,-1866,14,-4,-10
6,891,1249991,3309,-15898,-1916,14,-11,-7
6,892,1249996,3357,-15879,-1960,12,-17,-8
6,893,1250001,3294,-15877,-1950,15,-19,-6
6,894,1250006,3293,-15877,-1957,11,-25,-3
6,895,1250011,3328,-15895,-2061,10,-29,-8
6,896,1250016,3346,-15917,-2058,11,-27,-8
6,897,1250021,3376,-15867,-1962,12,-25,-6
6,898,1250026,3399,-15871,-1945,11,-27,-8
6,899,1250031,3394,-15932,-1986,11,-34,-7
6,900,1250036,3418,-15967,-2092,11,-41,-5
6,901,1250041,3445,-15973,-2063,10,-42,-5
6,902,1250046,3453,-15914,-2009,9,-44,-8
6,903,1250051,3366,-15904,-2059,9,-50,-10
6,904,1250056,3276,-15950,-2149,9,-47,-8
6,905,1250061,3299,-15961,-2102,7,-29,-9
6,906,1250066,3380,-15976,-2035,4,-9,-9
6,907,1250071,3412,-15986,-1974,2,0,-8
6,908,1250076,3324,-16014,-2021,0,4,-9
6,909,1250081,3338,-16021,-2039,3,6,-10
6,910,1250086,3363,-16009,-1922,-1,14,-7
6,911,1250091,3430,-16055,-1790,-4,14,-7
6,912,1250096,3503,-16085,-1829,-3,4,-11
6,913,1250101,3476,-16076,-1873,-5,-4,-9
6,914,1250106,3450,-16047,-1937,-6,-10,-9
6,915,1250111,3419,-15988,-1888,-6,-19,-5
6,916,1250116,3395,-15981,-1869,-2,-25,-6
6,917,1250121,3361,-16032,-2025,-3,-35,-9
6,918,1250126,3347,-16076,-2054,-5,-41,-6
6,919,1250131,3424,-16110,-1870,-3,-47,-6
6,920,1250136,3403,-16025,-1860,-3,-48,-8
6,921,1250141,3296,-16027,-2004,-3,-44,-5
6,922,1250146,3237,-15933,-2105,-4,-36,-9
6,923,1250151,3204,-15855,-2031,-7,-27,-9
6,924,1250156,3217,-15899,-2021,-9,-26,-9
6,925,1250161,3252,-15900,-2097,-7,-23,-8
6,926,1250166,3247,-15988,-2110,-9,-18,-11
6,927,1250171,3286,-15997,-2024,-9,-15,-10
6,928,1250176,3375,-16012,-2015,-8,-20,-13
6,929,1250181,3429,-16060,-2094,-5,-30,-13
6,930,1250186,3368,-16122,-2130,-9,-35,-9
6,931,1250191,3367,-16149,-2125,-10,-36,-11
6,932,1250196,3385,-16113,-2082,-10,-39,-9
6,933,1250201,3368,-16072,-2084,-4,-45,-9
6,934,1250206,3356,-16110,-2122,-2,-44,-11
6,935,1250211,3353,-16142,-2134,-4,-32,-11
6,936,1250216,3334,-16074,-2025,-6,-19,-12
6,937,1250221,3402,-16010,-2013,-7,-13,-13
6,938,1250226,3428,-15999,-2097,-8,-11,-10
6,939,1250231,3424,-16020,-1985,-9,-7,-10
6,940,1250236,3360,-16042,-1913,-9,-10,-12
6,941,1250241,3377,-16015,-1903,-10,-11,-12
6,942,1250246,3356,-15967,-1937,-7,-10,-10
6,943,1250251,3359,-15930,-1964,-11,-2,-9
6,944,1250256,3337,-15885,-1952,-13,-1,-10
6,945,1250261,3303,-15856,-1992,-10,-8,-9
6,946,1250266,3257,-15893,-2106,-10,-14,-8
6,947,1250271,3254,-15963,-2094,-8,-15,-9
6,948,1250276,3338,-15990,-2064,-8,-14,-11
6,949,1250281,3405,-15973,-2072,-8,-14,-8
6,950,1250286,3421,-15984,-2116,-6,-11,-8
6,951,1250291,3376,-15973,-2170,-6,-6,-10
6,952,1250296,3395,-15979,-2155,-5,-4,-9
6,953,1250301,3443,-15942,-2044,-4,-3,-5
6,954,1250306,3454,-15910,-2017,-5,-8,-4
6,955,1250311,3398,-15922,-2030,-6,-9,-8
6,956,1250316,3413,-15969,-1977,-3,-10,-6
6,957,1250321,3447,-15977,-1870,-3,-11,-8
6,958,1250326,3480,-15983,-1819,-4,-13,-8
6,959,1250331,3519,-15923,-1775,-5,-19,-3
6,960,1250336,3497,-15986,-1750,-5,-22,-4
6,961,1250341,3376,-15967,-1770,-5,-28,-7
6,962,1250346,3204,-15907,-1790,-4,-28,-4
6,963,1250351,3158,-15880,-1890,-5,-20,-4
6,964,1250356,3270,-15896,-1865,-9,-15,-4
6,965,1250361,3321,-15943,-1865,-10,-16,-5
6,966,1250366,3390,-16038,-1869,-9,-25,-4
6,967,1250371,3406,-16123,-1887,-8,-37,-4
6,968,1250376,3335,-16151,-1838,-7,-41,-5
6,969,1250381,3288,-16143,-1872,-7,-37,-4
6,970,1250386,3254,-16095,-1895,-7,-28,-6
6,971,1250391,3299,-16111,-1869,-10,-17,-12
6,972,1250396,3288,-16081,-1820,-13,-7,-13
6,973,1250401,3309,-16073,-1767,-12,-9,-12
6,974,1250406,3394,-16062,-1783,-11,-18,-9
6,975,1250411,3356,-16072,-1854,-11,-27,-9
6,976,1250416,3366,-16093,-1902,-8,-39,-11
6,977,1250421,3449,-16147,-1974,-7,-47,-11
6,978,1250426,3491,-16079,-1969,-8,-47,-12
6,979,1250431,3386,-16057,-1999,-11,-41,-10
6,980,1250436,3308,-16021,-2153,-10,-30,-14
6,981,1250441,3243,-15982,-2257,-9,-14,-18
6,982,1250446,3234,-15928,-2130,-9,5,-17
6,983,1250451,3315,-15882,-2033,-8,9,-16
6,984,1250456,3313,-15928,-2046,-7,4,-16
6,985,1250461,3298,-15946,-2032,-5,-1,-17
6,986,1250466,3324,-15918,-1990,-2,-9,-15
6,987,1250471,3340,-15963,-1945,-2,-19,-16
6,988,1250476,3360,-15968,-1931,1,-32,-17
6,989,1250481,3365,-16017,-2032,6,-46,-19
6,990,1250486,3429,-16152,-2105,7,-47,-18
6,991,1250491,3583,-16232,-2074,5,-47,-17
6,992,1250496,3420,-16056,-2058,6,-28,-19
6,993,1250501,3156,-16011,-2278,6,-2,-24
6,994,1250506,3082,-15926,-2298,3,25,-24
6,995,1250511,3239,-15842,-2054,2,32,-20
6,996,1250516,3342,-15844,-1903,4,24,-22
6,997,1250521,3385,-15870,-1948,10,2,-23
6,998,1250526,3326,-15933,-2041,13,-12,-23
6,999,1250531,3318,-15958,-2035,14,-20,-21
