event_id,seq,ts_ms,ax,ay,az,gx,gy,gz
8,0,274521,1831,-16863,1733,116,-590,253
8,1,274526,1619,-16818,1783,111,-596,260
8,2,274531,1754,-16800,1740,102,-606,269
8,3,274536,2124,-16779,1309,97,-592,278
8,4,274541,2280,-16834,1271,88,-527,277
8,5,274546,2023,-16823,1584,75,-457,276
8,6,274551,1748,-16654,1552,68,-434,279
8,7,274556,1739,-16603,1347,63,-421,289
8,8,274561,1956,-16576,1401,52,-378,297
8,9,274566,2027,-16510,1952,40,-321,299
8,10,274571,1840,-16464,2283,33,-302,302
8,11,274576,956,-16302,3430,35,-312,311
8,12,274581,1740,-16265,-151,38,-409,326
8,13,274586,2297,-16461,1272,11,-330,318
8,14,274591,748,-15818,4139,-10,-373,311
8,15,274596,1615,-16016,588,24,-517,334
8,16,274601,1808,-16188,411,0,-302,348
8,17,274606,1582,-16009,2915,-22,-261,338
8,18,274611,1171,-15898,3429,-22,-447,336
8,19,274616,1077,-16023,1655,-6,-571,351
8,20,274621,1067,-16048,714,-16,-457,351
8,21,274626,1113,-15981,2001,-34,-280,353
8,22,274631,1262,-15878,3130,-42,-301,361
8,23,274636,1463,-15888,2543,-37,-459,367
8,24,274641,1326,-15966,1576,-37,-529,364
8,25,274646,935,-16000,1749,-49,-468,364
8,26,274651,751,-16086,2383,-56,-401,371
8,27,274656,940,-16127,2164,-57,-416,377
8,28,274661,1208,-16176,1524,-60,-427,384
8,29,274666,1037,-16197,1534,-72,-390,379
8,30,274671,696,-16144,2082,-79,-348,378
8,31,274676,630,-16165,2140,-81,-337,387
8,32,274681,873,-16257,1748,-87,-323,389
8,33,274686,952,-16314,1717,-95,-281,391
8,34,274691,784,-16338,2157,-100,-256,388
8,35,274696,540,-16218,2347,-104,-275,387
8,36,274701,453,-16178,2087,-103,-300,393
8,37,274706,543,-16074,1880,-107,-294,394
8,38,274711,578,-16061,1963,-110,-284,395
8,39,274716,470,-16103,2270,-114,-286,395
8,40,274721,186,-16042,2203,-115,-316,389
8,41,274726,-27,-16146,1890,-114,-341,394
8,42,274731,47,-16122,1815,-115,-336,395
8,43,274736,153,-16032,2072,-121,-318,391
8,44,274741,211,-16011,2108,-123,-317,386
8,45,274746,29,-16033,1913,-123,-317,383
8,46,274751,-221,-16070,1741,-127,-311,378
8,47,274756,-247,-16018,1837,-129,-297,375
8,48,274761,-62,-15992,2055,-132,-294,373
8,49,274766,112,-15964,2231,-130,-302,371
8,50,274771,112,-15925,2493,-134,-309,363
8,51,274776,330,-16120,1895,-134,-323,357
8,52,274781,-249,-15953,2075,-134,-318,352
8,53,274786,-543,-16123,2088,-136,-349,356
8,54,274791,-74,-15924,1683,-136,-366,359
8,55,274796,631,-16046,1551,-134,-312,349
8,56,274801,228,-16088,1907,-144,-250,330
8,57,274806,-407,-16058,1828,-143,-245,325
8,58,274811,-581,-16065,1353,-145,-237,326
8,59,274816,-209,-16032,1199,-149,-179,327
8,60,274821,249,-16061,1701,-156,-96,319
8,61,274826,159,-16034,2053,-159,-55,304
8,62,274831,-156,-16096,1786,-158,-64,294
8,63,274836,-517,-16119,1398,-158,-62,290
8,64,274841,-525,-16195,1613,-163,-19,284
8,65,274846,-315,-16304,1984,-165,16,278
8,66,274851,-96,-16424,2134,-165,13,268
8,67,274856,-415,-16488,2249,-161,-10,259
8,68,274861,-744,-16286,2000,-156,-43,241
8,69,274866,-867,-16338,1970,-156,-79,247
8,70,274871,-562,-16245,2304,-155,-96,239
8,71,274876,-496,-16180,2515,-149,-136,228
8,72,274881,-491,-16285,2157,-144,-205,222
8,73,274886,-856,-16295,1978,-142,-244,211
8,74,274891,-1045,-16204,2006,-139,-264,201
8,75,274896,-986,-16137,2082,-136,-279,194
8,76,274901,-694,-16199,1899,-133,-295,191
8,77,274906,-524,-16210,1812,-133,-297,174
8,78,274911,-638,-16241,1834,-131,-305,163
8,79,274916,-710,-16204,1790,-127,-320,156
8,80,274921,-650,-16199,1621,-126,-324,147
8,81,274926,-461,-16177,1412,-125,-300,137
8,82,274931,-375,-16221,1368,-124,-265,127
8,83,274936,-397,-16233,1361,-123,-235,119
8,84,274941,-434,-16140,1384,-127,-212,109
8,85,274946,-362,-16084,1362,-125,-192,100
8,86,274951,-227,-16087,1372,-123,-164,94
8,87,274956,-96,-16076,1517,-126,-138,85
8,88,274961,-88,-16002,1590,-117,-144,73
8,89,274966,-30,-15964,1664,-117,-153,72
8,90,274971,114,-15902,1866,-113,-164,63
8,91,274976,243,-15814,1850,-108,-187,59
8,92,274981,278,-15911,1710,-102,-218,58
8,93,274986,198,-15919,1632,-101,-246,53
8,94,274991,62,-15994,1576,-98,-267,52
8,95,274996,74,-16001,1476,-94,-280,51
8,96,275001,143,-16024,1354,-91,-277,50
8,97,275006,171,-16068,1264,-89,-261,44
8,98,275011,121,-16112,1195,-89,-244,40
8,99,275016,24,-16169,1068,-90,-223,36
8,100,275021,-42,-16210,964,-88,-191,34
8,101,275026,4,-16248,847,-87,-144,31
8,102,275031,-48,-16379,849,-90,-83,23
8,103,275036,-151,-16464,823,-91,-24,13
8,104,275041,-225,-16482,913,-95,25,9
8,105,275046,-231,-16530,1058,-97,65,7
8,106,275051,-233,-16523,1173,-96,104,0
8,107,275056,-278,-16618,1267,-94,137,-3
8,108,275061,-406,-16646,1329,-93,159,-8
8,109,275066,-505,-16643,1465,-93,168,-12
8,110,275071,-520,-16646,1557,-92,162,-18
8,111,275076,-567,-16732,1658,-89,147,-23
8,112,275081,-657,-16768,1729,-87,125,-24
8,113,275086,-733,-16770,1734,-84,93,-30
8,114,275091,-806,-16748,1729,-82,55,-31
8,115,275096,-910,-16699,1717,-77,14,-35
8,116,275101,-990,-16719,1670,-70,-27,-42
8,117,275106,-982,-16726,1679,-66,-66,-44
8,118,275111,-852,-16697,1727,-65,-103,-42
8,119,275116,-664,-16725,1749,-62,-142,-48
8,120,275121,-660,-16691,1719,-56,-182,-55
8,121,275126,-771,-16672,1506,-56,-215,-56
8,122,275131,-775,-16730,1246,-55,-223,-60
8,123,275136,-685,-16725,1157,-54,-210,-63
8,124,275141,-562,-16636,1098,-55,-183,-62
8,125,275146,-468,-16684,1080,-61,-145,-69
8,126,275151,-501,-16719,1018,-64,-102,-75
8,127,275156,-558,-16702,902,-66,-48,-78
8,128,275161,-550,-16683,937,-69,13,-79
8,129,275166,-398,-16698,1057,-72,66,-83
8,130,275171,-340,-16714,1172,-77,107,-86
8,131,275176,-384,-16690,1247,-75,139,-88
8,132,275181,-392,-16644,1310,-74,158,-91
8,133,275186,-392,-16549,1485,-79,158,-90
8,134,275191,-318,-16506,1640,-77,145,-88
8,135,275196,-209,-16468,1730,-74,121,-87
8,136,275201,-178,-16409,1724,-71,87,-86
8,137,275206,-223,-16297,1656,-68,49,-83
8,138,275211,-289,-16266,1594,-65,14,-82
8,139,275216,-302,-16231,1500,-61,-11,-81
8,140,275221,-258,-16219,1307,-62,-18,-79
8,141,275226,-255,-16297,1103,-60,-14,-80
8,142,275231,-290,-16331,966,-59,-4,-79
8,143,275236,-329,-16353,850,-61,15,-79
8,144,275241,-419,-16431,800,-61,43,-78
8,145,275246,-403,-16445,749,-63,77,-80
8,146,275251,-405,-16497,803,-62,117,-83
8,147,275256,-391,-16554,907,-63,146,-83
8,148,275261,-380,-16673,992,-62,166,-84
8,149,275266,-402,-16684,1091,-64,176,-86
8,150,275271,-480,-16702,1213,-62,180,-88
8,151,275276,-546,-16709,1263,-56,172,-84
8,152,275281,-663,-16763,1298,-54,148,-86
8,153,275286,-556,-16733,1383,-52,124,-83
8,154,275291,-544,-16753,1463,-48,90,-79
8,155,275296,-643,-16741,1491,-43,56,-82
8,156,275301,-734,-16771,1458,-38,20,-82
8,157,275306,-736,-16757,1291,-34,-16,-80
8,158,275311,-766,-16702,1291,-35,-33,-83
8,159,275316,-748,-16712,1236,-32,-46,-81
8,160,275321,-745,-16725,1089,-26,-56,-81
8,161,275326,-748,-16674,983,-27,-43,-86
8,162,275331,-723,-16617,1086,-29,-34,-85
8,163,275336,-683,-16613,1152,-29,-29,-84
8,164,275341,-581,-16612,1129,-26,-23,-85
8,165,275346,-556,-16577,1055,-21,-18,-85
8,166,275351,-535,-16591,1054,-22,-11,-84
8,167,275356,-414,-16562,1062,-20,-6,-83
8,168,275361,-317,-16510,1060,-18,3,-82
8,169,275366,-335,-16496,1046,-21,21,-82
8,170,275371,-397,-16469,1062,-21,36,-82
8,171,275376,-445,-16485,1001,-21,52,-84
8,172,275381,-487,-16501,1014,-20,67,-81
8,173,275386,-378,-16538,1090,-21,85,-77
8,174,275391,-320,-16485,1257,-20,91,-77
8,175,275396,-330,-16372,1430,-18,77,-73
8,176,275401,-340,-16379,1423,-16,57,-71
8,177,275406,-305,-16385,1382,-15,36,-68
8,178,275411,-301,-16347,1349,-12,27,-65
8,179,275416,-340,-16372,1334,-10,23,-62
8,180,275421,-436,-16425,1302,-11,15,-59
8,181,275426,-512,-16418,1209,-9,7,-60
8,182,275431,-471,-16398,1239,-9,7,-57
8,183,275436,-406,-16400,1289,-8,10,-55
8,184,275441,-339,-16371,1329,-6,7,-55
8,185,275446,-305,-16311,1307,-9,1,-54
8,186,275451,-284,-16369,1214,-7,-2,-50
8,187,275456,-302,-16395,1117,-3,2,-46
8,188,275461,-318,-16369,1049,-5,11,-45
8,189,275466,-357,-16393,979,-7,25,-44
8,190,275471,-388,-16380,941,-6,40,-44
8,191,275476,-402,-16391,930,-7,61,-42
8,192,275481,-379,-16441,990,-7,84,-40
8,193,275486,-304,-16484,1039,-8,97,-38
8,194,275491,-252,-16524,1051,-7,102,-37
8,195,275496,-296,-16527,1136,-7,98,-36
8,196,275501,-324,-16530,1208,-5,81,-31
8,197,275506,-215,-16524,1311,1,57,-26
8,198,275511,-205,-16508,1364,3,28,-23
8,199,275516,-314,-16469,1344,5,1,-22
8,200,275521,-409,-16472,1257,8,-24,-18
8,201,275526,-409,-16508,1166,9,-41,-13
8,202,275531,-410,-16510,1041,13,-49,-12
8,203,275536,-405,-16535,987,11,-48,-7
8,204,275541,-414,-16571,914,12,-42,-10
8,205,275546,-431,-16550,875,11,-28,-9
8,206,275551,-478,-16516,901,10,-10,-7
8,207,275556,-470,-16541,944,11,13,-7
8,208,275561,-390,-16575,939,6,41,-7
8,209,275566,-308,-16525,1010,5,62,-7
8,210,275571,-293,-16469,1080,9,71,-4
8,211,275576,-374,-16458,1097,9,74,-4
8,212,275581,-409,-16532,1059,6,66,0
8,213,275586,-359,-16562,1066,7,66,3
8,214,275591,-298,-16572,1152,9,63,4
8,215,275596,-217,-16487,1222,10,53,8
8,216,275601,-221,-16452,1241,8,34,8
8,217,275606,-326,-16427,1136,12,14,10
8,218,275611,-362,-16456,1066,15,-1,15
8,219,275616,-334,-16480,1080,15,-12,16
8,220,275621,-318,-16574,1155,16,-21,21
8,221,275626,-308,-16565,1146,18,-33,20
8,222,275631,-316,-16547,1138,19,-46,20
8,223,275636,-346,-16536,1177,18,-46,19
8,224,275641,-341,-16534,1142,18,-50,24
8,225,275646,-324,-16514,1142,18,-60,26
8,226,275651,-358,-16566,1124,20,-64,27
8,227,275656,-361,-16580,1012,19,-61,29
8,228,275661,-357,-16572,1005,18,-55,29
8,229,275666,-273,-16513,1056,17,-50,29
8,230,275671,-255,-16491,1084,19,-46,32
8,231,275676,-241,-16478,1104,17,-36,33
8,232,275681,-287,-16468,1040,16,-24,32
8,233,275686,-328,-16451,998,16,-6,30
8,234,275691,-272,-16405,1006,11,22,37
8,235,275696,-292,-16491,958,10,31,35
8,236,275701,-292,-16508,979,11,39,37
8,237,275706,-240,-16514,1048,10,47,37
8,238,275711,-253,-16511,1142,8,50,41
8,239,275716,-291,-16473,1114,10,49,42
8,240,275721,-267,-16437,1087,8,50,41
8,241,275726,-295,-16429,1083,8,52,40
8,242,275731,-296,-16386,1195,8,52,45
8,243,275736,-325,-16375,1195,7,49,41
8,244,275741,-392,-16399,1086,5,48,41
8,245,275746,-419,-16487,1002,6,46,46
8,246,275751,-378,-16521,1001,6,49,45
8,247,275756,-289,-16499,1119,8,48,47
8,248,275761,-323,-16498,1180,6,43,46
8,249,275766,-396,-16473,1093,4,41,44
8,250,275771,-454,-16490,1024,5,46,45
8,251,275776,-462,-16489,1067,4,51,47
8,252,275781,-416,-16483,1144,0,55,45
8,253,275786,-417,-16478,1191,2,54,46
8,254,275791,-497,-16461,1136,3,52,43
8,255,275796,-577,-16477,1096,2,50,42
8,256,275801,-575,-16526,1128,-1,45,43
8,257,275806,-470,-16495,1243,1,34,41
8,258,275811,-408,-16460,1309,3,13,42
8,259,275816,-410,-16405,1323,4,-13,43
8,260,275821,-489,-16390,1252,4,-34,43
8,261,275826,-516,-16406,1152,6,-49,43
8,262,275831,-514,-16454,1125,5,-56,43
8,263,275836,-519,-16476,1058,5,-57,45
8,264,275841,-439,-16447,1011,6,-55,42
8,265,275846,-361,-16438,1076,5,-54,38
8,266,275851,-370,-16409,1068,4,-54,38
8,267,275856,-390,-16406,993,6,-53,38
8,268,275861,-363,-16449,952,6,-47,38
8,269,275866,-397,-16410,943,5,-41,37
8,270,275871,-390,-16458,978,5,-32,36
8,271,275876,-364,-16442,966,3,-28,37
8,272,275881,-360,-16426,929,2,-25,39
8,273,275886,-296,-16379,986,3,-23,39
8,274,275891,-282,-16383,977,4,-22,37
8,275,275896,-300,-16425,915,4,-19,36
8,276,275901,-292,-16465,809,4,-11,38
8,277,275906,-326,-16404,888,6,-2,39
8,278,275911,-340,-16438,889,3,12,35
8,279,275916,-330,-16445,863,-1,27,32
8,280,275921,-365,-16458,846,-2,45,31
8,281,275926,-379,-16451,965,-2,61,32
8,282,275931,-411,-16468,1047,-3,66,30
8,283,275936,-422,-16432,1067,-2,64,28
8,284,275941,-429,-16423,1169,1,58,29
8,285,275946,-442,-16436,1174,1,49,28
8,286,275951,-431,-16352,1143,1,37,29
8,287,275956,-481,-16332,1203,0,20,29
8,288,275961,-485,-16349,1125,0,1,30
8,289,275966,-503,-16392,1029,4,-16,30
8,290,275971,-487,-16411,1003,7,-25,26
8,291,275976,-465,-16367,1047,5,-30,24
8,292,275981,-453,-16337,1115,2,-39,22
8,293,275986,-491,-16351,1065,4,-38,23
8,294,275991,-530,-16327,918,5,-31,21
8,295,275996,-537,-16348,938,3,-21,18
8,296,276001,-495,-16339,945,2,-9,18
8,297,276006,-492,-16390,996,2,3,15
8,298,276011,-509,-16389,957,-1,18,12
8,299,276016,-460,-16339,1026,-2,34,11
8,300,276021,-498,-16364,1013,-3,48,10
8,301,276026,-489,-16364,993,-5,61,9
8,302,276031,-417,-16369,1008,-5,71,9
8,303,276036,-402,-16417,974,-7,81,8
8,304,276041,-392,-16464,972,-8,96,5
8,305,276046,-485,-16502,929,-7,105,1
8,306,276051,-552,-16550,905,-8,121,0
8,307,276056,-536,-16584,926,-10,138,-2
8,308,276061,-450,-16523,1146,-10,135,-7
8,309,276066,-441,-16531,1244,-7,111,-6
8,310,276071,-407,-16507,1206,-4,85,-5
8,311,276076,-446,-16502,1181,-2,62,-4
8,312,276081,-449,-16533,1193,-1,44,-4
8,313,276086,-499,-16515,1127,1,34,-6
8,314,276091,-501,-16501,1048,0,27,-8
8,315,276096,-482,-16519,976,-1,26,-10
8,316,276101,-503,-16528,936,-2,33,-10
8,317,276106,-498,-16499,911,1,49,-12
8,318,276111,-438,-16507,926,-2,64,-17
8,319,276116,-390,-16481,1021,-4,65,-20
8,320,276121,-350,-16499,1043,-2,75,-18
8,321,276126,-342,-16491,1046,-5,82,-18
8,322,276131,-346,-16479,946,-4,88,-18
8,323,276136,-430,-16474,929,-3,96,-21
8,324,276141,-435,-16482,989,-4,103,-21
8,325,276146,-406,-16495,963,-2,108,-22
8,326,276151,-412,-16500,927,-5,118,-21
8,327,276156,-490,-16552,915,-6,132,-25
8,328,276161,-510,-16585,931,-4,138,-27
8,329,276166,-576,-16600,955,-5,140,-28
8,330,276171,-562,-16579,1029,-4,139,-29
8,331,276176,-535,-16503,1124,-3,136,-30
8,332,276181,-536,-16505,1175,-5,124,-34
8,333,276186,-559,-16465,1211,-3,111,-31
8,334,276191,-570,-16480,1210,-1,98,-34
8,335,276196,-631,-16451,1223,0,85,-37
8,336,276201,-579,-16433,1260,2,69,-37
8,337,276206,-569,-16415,1282,1,46,-37
8,338,276211,-590,-16454,1230,4,24,-37
8,339,276216,-599,-16403,1190,9,8,-40
8,340,276221,-515,-16365,1180,9,-4,-42
8,341,276226,-566,-16377,1123,7,-12,-41
8,342,276231,-514,-16388,1073,8,-25,-40
8,343,276236,-507,-16401,999,9,-29,-44
8,344,276241,-470,-16403,1014,8,-25,-41
8,345,276246,-492,-16396,1040,8,-21,-46
8,346,276251,-442,-16404,994,7,-16,-49
8,347,276256,-386,-16390,972,9,-12,-47
8,348,276261,-373,-16351,948,6,-6,-49
8,349,276266,-315,-16347,981,4,7,-51
8,350,276271,-281,-16369,997,6,12,-50
8,351,276276,-302,-16390,972,6,17,-49
8,352,276281,-295,-16458,881,7,25,-48
8,353,276286,-182,-16492,943,6,37,-49
8,354,276291,-125,-16403,1013,6,44,-48
8,355,276296,-180,-16416,1055,4,46,-49
8,356,276301,-229,-16431,1034,5,44,-49
8,357,276306,-268,-16432,1003,5,50,-47
8,358,276311,-264,-16444,1024,6,55,-48
8,359,276316,-294,-16452,1089,4,55,-48
8,360,276321,-362,-16453,1107,5,52,-47
8,361,276326,-371,-16476,1087,7,44,-48
8,362,276331,-437,-16459,1054,6,38,-48
8,363,276336,-434,-16400,1188,6,31,-48
8,364,276341,-375,-16412,1225,7,16,-47
8,365,276346,-425,-16416,1221,9,0,-44
8,366,276351,-434,-16420,1172,10,-10,-46
8,367,276356,-459,-16412,1136,9,-17,-46
8,368,276361,-453,-16412,1096,10,-20,-47
8,369,276366,-465,-16403,1038,11,-24,-48
8,370,276371,-479,-16354,1005,10,-24,-48
8,371,276376,-472,-16361,939,9,-15,-48
8,372,276381,-404,-16397,922,8,-7,-48
8,373,276386,-415,-16433,918,8,10,-48
8,374,276391,-430,-16418,875,7,26,-50
8,375,276396,-406,-16473,955,4,39,-52
8,376,276401,-386,-16471,941,6,46,-51
8,377,276406,-372,-16545,971,4,53,-51
8,378,276411,-252,-16533,1036,2,57,-47
8,379,276416,-281,-16478,1078,2,51,-48
8,380,276421,-346,-16474,1134,5,42,-50
8,381,276426,-425,-16512,1015,4,24,-47
8,382,276431,-366,-16539,1021,5,15,-45
8,383,276436,-316,-16507,1106,8,4,-43
8,384,276441,-354,-16452,1170,9,-16,-42
8,385,276446,-351,-16372,1194,11,-42,-38
8,386,276451,-347,-16379,1261,11,-68,-38
8,387,276456,-319,-16352,1311,13,-99,-32
8,388,276461,-130,-16338,1389,16,-141,-21
8,389,276466,40,-16313,1496,20,-188,-17
8,390,276471,46,-16341,1455,24,-240,-15
8,391,276476,-51,-16396,1279,29,-288,-5
8,392,276481,-68,-16462,960,29,-316,2
8,393,276486,-3,-16508,682,31,-321,9
8,394,276491,31,-16565,546,31,-310,14
8,395,276496,-107,-16621,500,30,-299,24
8,396,276501,-171,-16687,365,31,-292,36
8,397,276506,196,-16683,622,31,-281,52
8,398,276511,658,-16623,1078,35,-283,66
8,399,276516,675,-16730,1339,36,-306,76
8,400,276521,333,-16880,1149,45,-347,90
8,401,276526,-42,-16924,857,49,-369,109
8,402,276531,-256,-16875,720,51,-365,133
8,403,276536,-628,-16846,800,54,-353,146
8,404,276541,-1110,-16703,845,56,-338,157
8,405,276546,-1500,-16483,801,52,-303,168
8,406,276551,-1674,-16275,954,47,-248,182
8,407,276556,-1775,-16202,1256,41,-199,197
8,408,276561,-1963,-16399,1290,44,-177,212
8,409,276566,-2128,-16673,1179,45,-176,231
8,410,276571,-1947,-16859,1120,48,-183,254
8,411,276576,-1511,-16886,1391,49,-200,281
8,412,276581,-1030,-16867,1539,58,-242,302
8,413,276586,-1160,-16985,1284,62,-300,322
8,414,276591,-1659,-17126,676,71,-343,347
8,415,276596,-2018,-17192,198,78,-330,373
8,416,276601,-2079,-17145,97,79,-262,399
8,417,276606,-1829,-16899,277,79,-178,420
8,418,276611,-1848,-16736,489,77,-107,445
8,419,276616,-2102,-16569,680,74,-42,468
8,420,276621,-2404,-16458,802,71,24,494
8,421,276626,-2477,-16346,1023,72,85,524
8,422,276631,-2293,-16125,1471,69,132,559
8,423,276636,-2164,-15958,2027,68,147,589
8,424,276641,-2450,-15857,2328,70,123,619
8,425,276646,-2807,-15730,2269,74,77,653
8,426,276651,-2633,-15543,2146,78,33,693
8,427,276656,-2204,-15385,2250,77,4,731
8,428,276661,-2063,-15349,2309,79,-37,764
8,429,276666,-2426,-15356,1982,80,-76,793
8,430,276671,-2834,-15373,1430,80,-74,825
8,431,276676,-2875,-15304,1199,78,-19,858
8,432,276681,-2623,-15224,1454,71,56,891
8,433,276686,-2625,-15193,1739,64,109,918
8,434,276691,-2737,-15176,1744,61,122,948
8,435,276696,-2624,-15202,1598,58,129,975
8,436,276701,-2831,-15265,1838,52,153,1007
8,437,276706,-3148,-15101,1996,47,150,1031
8,438,276711,-3250,-15190,1866,49,129,1079
8,439,276716,-2841,-15317,1755,51,125,1119
8,440,276721,-2583,-15250,2040,48,126,1137
8,441,276726,-2837,-15344,2022,50,79,1167
8,442,276731,-3262,-15455,1541,51,25,1195
8,443,276736,-3550,-15508,1057,49,31,1221
8,444,276741,-3534,-15593,1030,40,93,1250
8,445,276746,-3427,-15668,1246,36,160,1270
8,446,276751,-3625,-15749,1334,35,193,1289
8,447,276756,-3925,-15821,1266,30,209,1304
8,448,276761,-4134,-15859,1341,21,244,1319
8,449,276766,-4144,-15794,1607,16,280,1332
8,450,276771,-4042,-15931,1827,10,302,1349
8,451,276776,-4334,-16143,1547,6,302,1360
8,452,276781,-5051,-15985,963,-1,311,1358
8,453,276786,-5364,-15925,1074,-9,352,1371
8,454,276791,-5054,-15898,1694,-26,414,1380
8,455,276796,-5003,-15874,1686,-30,415,1378
8,456,276801,-5325,-15886,1696,-33,388,1379
8,457,276806,-5560,-15945,1796,-34,344,1380
8,458,276811,-5363,-15993,1874,-36,298,1384
8,459,276816,-4930,-16022,2066,-39,258,1384
8,460,276821,-4759,-16027,2156,-36,203,1377
8,461,276826,-4958,-16022,2174,-33,124,1367
8,462,276831,-5120,-16063,1867,-30,46,1366
8,463,276836,-5130,-16172,1575,-32,2,1361
8,464,276841,-4914,-16187,1446,-29,-13,1354
8,465,276846,-4665,-16309,1279,-28,-28,1344
8,466,276851,-4556,-16452,1081,-27,-41,1332
8,467,276856,-4664,-16446,889,-31,-39,1310
8,468,276861,-4946,-16411,649,-31,-9,1296
8,469,276866,-5195,-16398,279,-34,62,1276
8,470,276871,-5459,-16381,-127,-41,162,1254
8,471,276876,-5797,-16300,-265,-50,269,1230
8,472,276881,-5992,-16225,48,-55,362,1204
8,473,276886,-5824,-16192,715,-69,427,1180
8,474,276891,-5450,-16153,1267,-73,455,1158
8,475,276896,-5272,-16208,1391,-68,445,1128
8,476,276901,-5375,-16310,1242,-70,414,1104
8,477,276906,-5631,-16422,1144,-68,362,1076
8,478,276911,-5782,-16599,1060,-64,303,1052
8,479,276916,-5904,-16660,994,-58,249,1027
8,480,276921,-6078,-16735,944,-53,218,996
8,481,276926,-5921,-17108,949,-47,190,976
8,482,276931,-5739,-16932,1166,-38,144,931
8,483,276936,-5923,-16561,1667,-35,59,886
8,484,276941,-6500,-16785,1670,-22,-62,874
8,485,276946,-6747,-16498,1169,-11,-144,832
8,486,276951,-6345,-16237,1049,-11,-193,806
8,487,276956,-6270,-16015,1844,-3,-253,776
8,488,276961,-6595,-15770,2059,8,-360,723
8,489,276966,-6786,-15566,948,22,-460,688
8,490,276971,-6668,-15463,76,22,-454,661
8,491,276976,-6726,-15234,593,13,-390,617
8,492,276981,-6571,-15120,1283,14,-378,572
8,493,276986,-6429,-15052,830,19,-390,529
8,494,276991,-6301,-14999,66,18,-341,486
8,495,276996,-6452,-14923,419,11,-236,446
8,496,277001,-6430,-14776,951,7,-185,409
8,497,277006,-6013,-14728,970,6,-175,376
8,498,277011,-5720,-14708,883,5,-155,333
8,499,277016,-5755,-14722,930,7,-128,290
8,500,277021,-6095,-14814,1060,6,-116,253
8,501,277026,-6075,-14836,809,5,-127,215
8,502,277031,-5912,-14873,931,6,-107,178
8,503,277036,-5916,-14923,1236,7,-97,139
8,504,277041,-5924,-14820,1443,5,-114,92
8,505,277046,-6001,-14760,1506,9,-165,58
8,506,277051,-6100,-14685,1622,13,-224,23
8,507,277056,-6051,-14524,1711,17,-279,-17
8,508,277061,-6108,-14544,1689,24,-320,-52
8,509,277066,-6142,-14500,1461,27,-364,-91
8,510,277071,-6243,-14428,1317,26,-410,-133
8,511,277076,-6195,-14350,1295,26,-454,-172
8,512,277081,-6066,-14265,1241,24,-481,-205
8,513,277086,-6066,-14281,1169,23,-467,-248
8,514,277091,-6084,-14299,996,21,-424,-288
8,515,277096,-6079,-14258,770,15,-374,-330
8,516,277101,-5913,-14294,806,9,-331,-368
8,517,277106,-5744,-14324,1060,3,-299,-409
8,518,277111,-5568,-14392,1175,0,-273,-448
8,519,277116,-5573,-14477,1066,-3,-238,-486
8,520,277121,-5415,-14482,1130,-7,-201,-528
8,521,277126,-5508,-14421,1278,-11,-180,-567
8,522,277131,-5404,-14442,1227,-16,-172,-602
8,523,277136,-5386,-14571,1199,-18,-161,-631
8,524,277141,-5368,-14653,1282,-22,-149,-671
8,525,277146,-5409,-14721,1204,-22,-146,-705
8,526,277151,-5369,-14795,1198,-22,-147,-737
8,527,277156,-5174,-14182,1228,-25,-160,-828
8,528,277161,-5511,-14876,865,-35,-147,-810
8,529,277166,-5255,-14472,1371,-42,-103,-884
8,530,277171,-5504,-14325,1521,-40,-94,-924
8,531,277176,-5064,-14547,771,-41,-135,-934
8,532,277181,-4989,-14887,1136,-43,-71,-962
8,533,277186,-4958,-14749,1602,-48,-29,-1024
8,534,277191,-4934,-14633,1438,-52,-73,-1053
8,535,277196,-4896,-15001,1052,-55,-77,-1062
8,536,277201,-4890,-14822,1373,-63,-23,-1111
8,537,277206,-4690,-14756,1582,-67,-2,-1140
8,538,277211,-4865,-15151,1513,-65,-13,-1155
8,539,277216,-4695,-15029,1214,-70,-26,-1201
8,540,277221,-4841,-15001,1701,-72,-5,-1224
8,541,277226,-4309,-14984,1629,-74,-27,-1251
8,542,277231,-4441,-14970,1618,-78,-38,-1284
8,543,277236,-4586,-15236,1645,-77,-47,-1299
8,544,277241,-4292,-15066,1595,-79,-73,-1335
8,545,277246,-3851,-15269,1498,-76,-104,-1346
8,546,277251,-3358,-15376,1232,-79,-103,-1370
8,547,277256,-3440,-15351,1398,-82,-80,-1397
8,548,277261,-3623,-15698,1176,-85,-89,-1418
8,549,277266,-3397,-15490,417,-93,-75,-1448
8,550,277271,-3111,-15703,373,-92,19,-1456
8,551,277276,-2872,-15961,225,-103,101,-1476
8,552,277281,-2545,-15896,792,-113,178,-1506
8,553,277286,-2517,-16267,521,-114,221,-1519
8,554,277291,-2430,-16348,603,-113,282,-1541
8,555,277296,-2223,-16391,654,-115,339,-1554
8,556,277301,-2002,-16688,1120,-111,363,-1556
8,557,277306,-1742,-16607,1366,-105,326,-1578
8,558,277311,-1639,-16668,1376,-99,279,-1581
8,559,277316,-1672,-16864,1455,-92,234,-1587
8,560,277321,-1575,-16812,1257,-86,193,-1604
8,561,277326,-1495,-16859,1256,-77,156,-1608
8,562,277331,-1400,-16972,815,-72,111,-1606
8,563,277336,-1472,-16899,564,-70,106,-1619
8,564,277341,-1664,-16814,394,-69,127,-1628
8,565,277346,-1601,-16872,297,-71,163,-1632
8,566,277351,-1445,-16719,249,-70,227,-1644
8,567,277356,-1273,-16817,227,-71,305,-1656
8,568,277361,-1679,-16920,-180,-75,363,-1673
8,569,277366,-1061,-17004,1039,-77,440,-1667
8,570,277371,-1269,-16746,576,-71,460,-1701
8,571,277376,-1403,-17151,1277,-62,506,-1683
8,572,277381,-785,-16826,944,-60,471,-1699
8,573,277386,-392,-16574,2004,-54,393,-1674
8,574,277391,-465,-17480,2269,-35,260,-1663
8,575,277396,-559,-16265,1354,-23,146,-1748
8,576,277401,-1103,-17197,714,-19,128,-1678
8,577,277406,-991,-16971,674,-24,178,-1699
8,578,277411,-746,-16813,1288,-22,180,-1706
8,579,277416,-303,-16982,993,-13,110,-1704
8,580,277421,-430,-17121,593,-15,101,-1716
8,581,277426,-766,-17004,434,-21,178,-1736
8,582,277431,-958,-16992,680,-20,267,-1729
8,583,277436,-373,-16948,404,-19,290,-1724
8,584,277441,371,-16920,567,-17,321,-1724
8,585,277446,446,-17122,824,-15,325,-1722
8,586,277451,261,-16921,934,-16,325,-1726
8,587,277456,64,-17044,777,-5,343,-1708
8,588,277461,430,-17188,872,3,371,-1696
8,589,277466,1157,-16905,732,5,353,-1698
8,590,277471,1326,-17070,1067,9,333,-1682
8,591,277476,980,-17205,1431,15,311,-1681
8,592,277481,627,-17006,1412,18,271,-1680
8,593,277486,931,-17081,947,25,230,-1656
8,594,277491,1333,-17134,1220,22,235,-1650
8,595,277496,1666,-17092,1510,27,207,-1648
8,596,277501,1686,-17197,1346,33,142,-1636
8,597,277506,1906,-16975,853,36,103,-1635
8,598,277511,1901,-17167,1510,37,109,-1604
8,599,277516,-716,-13492,81,38,67,-1585
8,600,277521,-146,-21881,-19574,145,456,-1599
8,601,277526,-32768,-30354,-28144,-876,10575,-1063
8,602,277531,-9383,-18774,14830,-1027,18870,294
8,603,277536,31607,-10469,32767,-774,21353,-320
8,604,277541,31078,-8748,32767,-522,16480,-1296
8,605,277546,-7,-18184,31443,298,4700,-351
8,606,277551,-32355,-20834,31845,500,-4980,422
8,607,277556,-24055,-7660,21127,1260,-12110,907
8,608,277561,16927,-13924,-23387,1091,-14018,1741
8,609,277566,19535,-25798,-22381,802,-5874,1125
8,610,277571,-9059,-19186,1388,298,-1193,-156
8,611,277576,-28528,-17836,21089,163,-2031,129
8,612,277581,-21332,-9802,18014,558,-5603,636
8,613,277586,15194,-14737,-23104,933,-8426,1215
8,614,277591,13838,-18967,-19648,676,-4650,651
8,615,277596,-7169,-18923,-5870,350,-1709,99
8,616,277601,-19272,-16210,5384,293,-1048,215
8,617,277606,-7368,-15436,-12430,347,-1675,494
8,618,277611,10202,-15085,-19950,286,-425,407
8,619,277616,12927,-16787,-6814,111,1570,205
8,620,277621,767,-17568,10354,74,2353,41
8,621,277626,-6302,-16095,7104,184,1408,94
8,622,277631,-506,-15833,-7686,236,840,329
8,623,277636,7189,-15854,-6725,123,1826,352
8,624,277641,9570,-15850,5904,13,2582,223
8,625,277646,2717,-16141,19621,108,2041,229
8,626,277651,288,-17573,803,134,6,295
8,627,277656,-74,-14888,-2825,220,234,288
8,628,277661,1719,-17245,-401,213,767,495
8,629,277666,4620,-15928,7220,162,912,364
8,630,277671,3443,-16158,6675,182,342,334
8,631,277676,1661,-17055,675,222,-266,373
8,632,277681,-485,-16759,261,196,-253,366
8,633,277686,222,-16384,446,169,-120,368
8,634,277691,1942,-16261,2933,165,-1,386
8,635,277696,3179,-16954,2751,175,-98,382
8,636,277701,1906,-16929,1159,178,-167,325
8,637,277706,78,-16897,1160,171,-149,321
8,638,277711,-193,-16623,1479,166,-156,342
8,639,277716,1329,-16358,1667,158,-148,348
8,640,277721,2546,-16680,1877,144,-93,341
8,641,277726,2080,-16797,1330,133,-77,308
8,642,277731,1033,-16918,1590,124,-48,299
8,643,277736,435,-16743,1676,117,-37,301
8,644,277741,1416,-16572,1368,119,-31,313
8,645,277746,2223,-16574,1659,106,23,304
8,646,277751,2182,-16703,1931,94,39,287
8,647,277756,1600,-16652,2379,87,8,276
8,648,277761,1274,-16610,2057,86,-64,283
8,649,277766,1671,-16459,1616,87,-81,284
8,650,277771,1920,-16448,1767,76,-35,283
8,651,277776,1953,-16330,2064,66,-24,276
8,652,277781,1549,-16371,1915,60,-50,268
8,653,277786,1276,-16238,1617,53,-56,263
8,654,277791,1261,-16111,1607,47,-35,262
8,655,277796,1610,-16115,2045,43,-15,256
8,656,277801,1620,-15904,1958,39,-58,243
8,657,277806,1410,-15967,1616,29,-77,244
8,658,277811,1022,-15786,1793,21,-25,231
8,659,277816,1049,-15715,1995,18,-5,229
8,660,277821,1281,-15674,1966,14,-17,228
8,661,277826,1409,-15861,1275,11,-60,223
8,662,277831,-34,-15757,2980,-4,-12,204
8,663,277836,1689,-15938,1090,-2,-37,216
8,664,277841,2624,-16099,157,-15,31,200
8,665,277846,1155,-15791,3409,-36,107,149
8,666,277851,-439,-16287,2865,-27,-51,187
8,667,277856,537,-15903,632,-19,-68,176
8,668,277861,1768,-16006,485,-43,140,175
8,669,277866,1659,-16331,2407,-60,265,166
8,670,277871,924,-16255,3581,-69,169,129
8,671,277876,239,-16035,2182,-55,-25,136
8,672,277881,478,-16373,1112,-54,-16,151
8,673,277886,904,-15958,1822,-74,119,124
8,674,277891,1045,-16157,2932,-76,3,119
8,675,277896,655,-16038,1922,-72,-101,110
8,676,277901,286,-16069,1562,-79,-78,109
8,677,277906,331,-16033,2183,-91,-15,106
8,678,277911,794,-16095,2430,-93,-29,102
8,679,277916,928,-16170,2233,-92,-78,89
8,680,277921,724,-16173,1517,-95,-121,78
8,681,277926,150,-16115,1943,-97,-75,68
8,682,277931,104,-16107,2115,-104,-66,64
8,683,277936,553,-16043,2021,-105,-82,63
8,684,277941,738,-16172,1472,-105,-107,56
8,685,277946,496,-16194,1481,-112,-92,38
8,686,277951,110,-16074,1884,-117,-70,30
8,687,277956,100,-15964,1879,-116,-71,28
8,688,277961,419,-15894,1635,-118,-64,23
8,689,277966,597,-15859,1481,-122,-44,14
8,690,277971,495,-15930,1735,-127,-23,4
8,691,277976,275,-15804,1981,-128,-26,-6
8,692,277981,283,-15792,1913,-130,-38,-8
8,693,277986,543,-15799,1763,-133,-30,-11
8,694,277991,721,-15877,1896,-134,-17,-21
8,695,277996,755,-15979,2109,-134,-26,-27
8,696,278001,682,-16057,2126,-135,-52,-31
8,697,278006,679,-16109,1943,-136,-73,-35
8,698,278011,605,-16130,1851,-134,-81,-37
8,699,278016,636,-16224,1862,-135,-88,-42
8,700,278021,675,-16310,1904,-137,-102,-44
8,701,278026,745,-16353,1876,-136,-119,-49
8,702,278031,619,-16290,2376,-133,-131,-52
8,703,278036,1054,-16358,1592,-126,-164,-55
8,704,278041,675,-16573,1192,-129,-160,-64
8,705,278046,117,-16156,1960,-147,-172,-62
8,706,278051,1182,-16368,1778,-132,-214,-56
8,707,278056,1024,-16137,1848,-129,-155,-76
8,708,278061,960,-16531,885,-132,-115,-74
8,709,278066,447,-16152,1754,-141,-50,-89
8,710,278071,774,-16183,1716,-140,-89,-74
8,711,278076,1071,-16257,1496,-142,-91,-76
8,712,278081,1222,-16230,1662,-140,-22,-92
8,713,278086,868,-16436,1726,-143,21,-91
8,714,278091,730,-16224,1685,-147,20,-97
8,715,278096,895,-16344,1627,-144,3,-95
8,716,278101,1093,-16284,1596,-142,-7,-99
8,717,278106,979,-16608,1593,-142,26,-94
8,718,278111,651,-16597,1762,-143,49,-107
8,719,278116,633,-16614,1771,-136,27,-104
8,720,278121,766,-16567,1501,-134,0,-105
8,721,278126,839,-16489,1891,-134,-7,-109
8,722,278131,695,-16501,2153,-129,-39,-107
8,723,278136,636,-16572,2131,-126,-79,-108
8,724,278141,767,-16476,1819,-120,-114,-111
8,725,278146,852,-16461,1698,-117,-130,-111
8,726,278151,817,-16411,1766,-113,-147,-113
8,727,278156,704,-16339,1741,-114,-163,-114
8,728,278161,744,-16374,1563,-112,-161,-114
8,729,278166,850,-16336,1330,-111,-133,-117
8,730,278171,1015,-16272,1376,-112,-95,-119
8,731,278176,949,-16275,1362,-115,-71,-125
8,732,278181,936,-16260,1318,-113,-49,-128
8,733,278186,934,-16276,1347,-112,-19,-125
8,734,278191,1011,-16278,1400,-116,11,-125
8,735,278196,1167,-16281,1439,-113,36,-126
8,736,278201,1091,-16338,1482,-112,56,-128
8,737,278206,977,-16469,1491,-109,68,-127
8,738,278211,909,-16450,1533,-107,78,-130
8,739,278216,973,-16493,1600,-104,75,-124
8,740,278221,1070,-16444,1704,-98,61,-124
8,741,278226,1094,-16367,1851,-96,42,-125
8,742,278231,1059,-16386,1841,-90,11,-121
8,743,278236,1011,-16373,1823,-88,-21,-120
8,744,278241,1019,-16356,1782,-82,-48,-118
8,745,278246,1042,-16339,1748,-77,-66,-116
8,746,278251,1049,-16429,1663,-74,-87,-116
8,747,278256,1093,-16357,1377,-66,-110,-114
8,748,278261,1077,-16301,1356,-65,-106,-111
8,749,278266,1116,-16305,1371,-63,-99,-112
8,750,278271,1121,-16297,1236,-64,-83,-111
8,751,278276,1112,-16331,1156,-62,-49,-114
8,752,278281,1057,-16375,1133,-59,-10,-114
8,753,278286,1132,-16350,1216,-57,16,-111
8,754,278291,1200,-16363,1305,-57,34,-110
8,755,278296,1221,-16409,1328,-57,50,-108
8,756,278301,1185,-16451,1394,-52,61,-110
8,757,278306,1107,-16496,1460,-50,70,-108
8,758,278311,1075,-16543,1462,-48,68,-105
8,759,278316,1067,-16608,1473,-44,61,-101
8,760,278321,1078,-16559,1550,-40,53,-100
8,761,278326,1071,-16587,1572,-34,40,-98
8,762,278331,1020,-16577,1594,-34,22,-96
8,763,278336,983,-16535,1556,-31,3,-95
8,764,278341,940,-16540,1490,-25,-13,-91
8,765,278346,968,-16567,1417,-20,-26,-88
8,766,278351,988,-16527,1394,-15,-37,-86
8,767,278356,927,-16481,1440,-14,-43,-87
8,768,278361,860,-16422,1421,-14,-43,-87
8,769,278366,841,-16390,1387,-11,-43,-88
8,770,278371,895,-16367,1432,-9,-35,-85
8,771,278376,924,-16329,1516,-6,-32,-84
8,772,278381,979,-16282,1585,-5,-35,-83
8,773,278386,1034,-16302,1579,-6,-45,-83
8,774,278391,1024,-16329,1496,-2,-51,-80
8,775,278396,1078,-16357,1463,4,-45,-78
8,776,278401,1137,-16403,1448,2,-38,-73
8,777,278406,1123,-16395,1358,2,-32,-72
8,778,278411,1124,-16387,1308,6,-23,-70
8,779,278416,1114,-16413,1314,7,-8,-69
8,780,278421,1180,-16391,1310,6,13,-69
8,781,278426,1232,-16391,1352,4,27,-67
8,782,278431,1237,-16488,1394,7,36,-65
8,783,278436,1210,-16566,1392,10,38,-64
8,784,278441,1227,-16580,1424,11,38,-62
8,785,278446,1256,-16543,1504,13,37,-57
8,786,278451,1252,-16509,1556,16,31,-54
8,787,278456,1221,-16541,1528,18,23,-51
8,788,278461,1150,-16625,1544,19,15,-45
8,789,278466,1147,-16590,1528,22,7,-46
8,790,278471,1140,-16606,1576,23,-2,-46
8,791,278476,1157,-16566,1646,24,-12,-42
8,792,278481,1057,-16542,1628,25,-27,-42
8,793,278486,1127,-16551,1630,28,-40,-36
8,794,278491,1128,-16533,1632,30,-54,-34
8,795,278496,1097,-16536,1621,31,-63,-31
8,796,278501,1088,-16511,1650,30,-73,-30
8,797,278506,1106,-16509,1534,32,-77,-28
8,798,278511,1126,-16546,1459,31,-75,-26
8,799,278516,1168,-16517,1436,28,-71,-25
8,800,278521,1100,-16517,1428,29,-67,-27
8,801,278526,1085,-16544,1414,30,-58,-24
8,802,278531,1119,-16527,1352,30,-46,-23
8,803,278536,1173,-16573,1390,29,-32,-22
8,804,278541,1139,-16544,1480,27,-26,-21
8,805,278546,1125,-16553,1458,28,-24,-18
8,806,278551,1164,-16510,1428,29,-27,-14
8,807,278556,1185,-16520,1396,30,-29,-12
8,808,278561,1134,-16495,1449,29,-31,-13
8,809,278566,1125,-16476,1462,27,-36,-9
8,810,278571,1218,-16483,1398,28,-34,-7
8,811,278576,1210,-16435,1410,30,-27,-8
8,812,278581,1156,-16370,1386,28,-19,-5
8,813,278586,1160,-16337,1386,28,-18,-5
8,814,278591,1233,-16305,1377,27,-12,-2
8,815,278596,1246,-16302,1350,23,-1,1
8,816,278601,1229,-16358,1392,22,8,2
8,817,278606,1182,-16445,1416,24,14,0
8,818,278611,1180,-16469,1444,24,17,2
8,819,278616,1220,-16477,1461,22,19,5
8,820,278621,1315,-16441,1543,22,1,6
8,821,278626,1223,-16462,1516,23,-15,10
8,822,278631,1223,-16487,1448,22,-28,14
8,823,278636,1236,-16502,1415,23,-34,16
8,824,278641,1262,-16465,1391,22,-37,17
8,825,278646,1221,-16448,1400,20,-36,19
8,826,278651,1180,-16376,1451,20,-34,23
8,827,278656,1200,-16323,1414,20,-34,22
8,828,278661,1222,-16279,1397,15,-32,23
8,829,278666,1203,-16328,1350,17,-26,27
8,830,278671,1241,-16428,1294,16,-22,28
8,831,278676,1262,-16486,1207,18,-15,27
8,832,278681,1280,-16457,1182,16,-11,30
8,833,278686,1284,-16420,1238,13,-7,32
8,834,278691,1282,-16370,1303,15,-1,33
8,835,278696,1227,-16356,1254,13,9,35
8,836,278701,1185,-16357,1180,11,25,36
8,837,278706,1213,-16352,1262,8,43,35
8,838,278711,1238,-16305,1371,9,51,36
8,839,278716,1254,-16278,1421,6,52,39
8,840,278721,1209,-16267,1414,8,46,44
8,841,278726,1269,-16258,1432,6,42,43
8,842,278731,1267,-16222,1408,8,38,44
8,843,278736,1282,-16249,1417,6,30,48
8,844,278741,1283,-16185,1452,2,21,51
8,845,278746,1242,-16219,1426,4,12,52
8,846,278751,1197,-16408,1333,3,8,55
8,847,278756,1201,-16507,1258,5,13,58
8,848,278761,1281,-16509,1220,5,23,57
8,849,278766,1272,-16377,1366,3,31,58
8,850,278771,1188,-16321,1475,2,27,58
8,851,278776,1144,-16285,1456,1,13,58
8,852,278781,1188,-16268,1475,0,7,60
8,853,278786,1239,-16320,1536,-1,1,64
8,854,278791,1190,-16335,1555,-1,-11,66
8,855,278796,1105,-16360,1533,0,-22,68
8,856,278801,1086,-16336,1411,-2,-32,68
8,857,278806,1059,-16318,1408,-2,-36,70
8,858,278811,1076,-16330,1399,-2,-43,73
8,859,278816,1062,-16349,1322,-3,-50,71
8,860,278821,966,-16434,1250,-4,-49,72
8,861,278826,982,-16457,1159,-2,-45,73
8,862,278831,1065,-16409,1190,-2,-41,73
8,863,278836,1094,-16344,1228,0,-38,74
8,864,278841,1071,-16321,1262,-1,-34,73
8,865,278846,1088,-16333,1201,-4,-31,73
8,866,278851,1104,-16349,1162,-7,-23,72
8,867,278856,1160,-16386,1161,-8,-12,72
8,868,278861,1160,-16370,1222,-6,-5,72
8,869,278866,1242,-16372,1278,-9,-2,75
8,870,278871,1190,-16379,1259,-8,3,74
8,871,278876,1143,-16342,1246,-6,9,75
8,872,278881,1135,-16356,1214,-9,18,76
8,873,278886,1139,-16347,1223,-11,30,75
8,874,278891,1055,-16370,1261,-12,37,78
8,875,278896,1058,-16450,1278,-16,44,76
8,876,278901,1055,-16438,1256,-16,48,77
8,877,278906,997,-16432,1285,-13,50,77
8,878,278911,967,-16473,1317,-14,46,76
8,879,278916,975,-16464,1378,-15,40,76
8,880,278921,927,-16478,1316,-12,35,76
8,881,278926,948,-16469,1336,-12,30,75
8,882,278931,872,-16455,1389,-14,26,74
8,883,278936,841,-16382,1480,-12,14,74
8,884,278941,807,-16411,1411,-10,3,72
8,885,278946,770,-16487,1374,-14,-2,73
8,886,278951,864,-16450,1388,-15,-10,72
8,887,278956,901,-16441,1462,-10,-24,72
8,888,278961,896,-16427,1524,-11,-44,70
8,889,278966,845,-16422,1478,-11,-59,71
8,890,278971,776,-16408,1390,-9,-70,69
8,891,278976,810,-16410,1347,-12,-75,68
8,892,278981,828,-16468,1316,-10,-77,69
8,893,278986,857,-16412,1301,-8,-88,64
8,894,278991,849,-16339,1344,-8,-92,62
8,895,278996,860,-16345,1349,-8,-96,64
8,896,279001,885,-16331,1328,-10,-95,61
8,897,279006,881,-16391,1214,-11,-90,60
8,898,279011,934,-16406,1145,-10,-81,58
8,899,279016,978,-16399,1133,-11,-68,60
8,900,279021,1023,-16374,1151,-15,-52,55
8,901,279026,945,-16350,1183,-14,-41,55
8,902,279031,941,-16398,1169,-15,-26,51
8,903,279036,899,-16466,1186,-18,-5,49
8,904,279041,936,-16490,1164,-18,15,50
8,905,279046,990,-16457,1266,-21,28,47
8,906,279051,1021,-16446,1407,-19,29,44
8,907,279056,1018,-16397,1472,-19,21,46
8,908,279061,967,-16411,1481,-20,11,46
8,909,279066,935,-16450,1473,-19,-1,46
8,910,279071,945,-16421,1425,-16,-16,46
8,911,279076,979,-16393,1437,-14,-31,44
8,912,279081,934,-16352,1481,-16,-50,47
8,913,279086,914,-16350,1482,-16,-64,47
8,914,279091,896,-16391,1412,-15,-73,45
8,915,279096,884,-16355,1352,-17,-71,40
8,916,279101,873,-16420,1238,-18,-60,40
8,917,279106,808,-16416,1256,-17,-51,39
8,918,279111,820,-16369,1267,-19,-42,35
8,919,279116,907,-16349,1331,-19,-39,34
8,920,279121,928,-16319,1365,-18,-39,35
8,921,279126,898,-16352,1327,-20,-36,35
8,922,279131,884,-16368,1276,-18,-31,31
8,923,279136,870,-16399,1226,-21,-24,26
8,924,279141,933,-16412,1227,-20,-21,28
8,925,279146,907,-16404,1221,-19,-14,25
8,926,279151,933,-16367,1268,-21,-7,25
8,927,279156,905,-16318,1317,-22,-4,24
8,928,279161,908,-16325,1356,-21,1,23
8,929,279166,904,-16339,1338,-24,4,21
8,930,279171,922,-16394,1323,-22,6,21
8,931,279176,907,-16439,1367,-21,11,22
8,932,279181,871,-16448,1371,-21,11,18
8,933,279186,945,-16441,1343,-20,5,17
8,934,279191,964,-16414,1338,-22,2,16
8,935,279196,955,-16422,1387,-22,-6,16
8,936,279201,910,-16435,1362,-23,-14,16
8,937,279206,876,-16451,1259,-24,-16,13
8,938,279211,852,-16449,1291,-20,-13,13
8,939,279216,833,-16431,1309,-21,-5,12
8,940,279221,812,-16464,1288,-20,-2,9
8,941,279226,791,-16532,1159,-22,0,8
8,942,279231,826,-16564,1127,-21,5,7
8,943,279236,928,-16492,1221,-24,10,7
8,944,279241,917,-16431,1352,-22,9,5
8,945,279246,847,-16387,1343,-22,5,1
8,946,279251,790,-16419,1264,-24,10,-2
8,947,279256,823,-16423,1255,-23,18,-2
8,948,279261,840,-16429,1324,-25,26,-3
8,949,279266,820,-16446,1452,-25,23,-3
8,950,279271,815,-16506,1401,-25,15,-5
8,951,279276,757,-16578,1299,-23,9,-6
8,952,279281,764,-16665,1204,-21,10,-6
8,953,279286,825,-16676,1239,-20,10,-11
8,954,279291,859,-16651,1313,-21,0,-12
8,955,279296,853,-16579,1370,-21,-11,-10
8,956,279301,789,-16525,1377,-19,-25,-12
8,957,279306,763,-16522,1295,-16,-31,-12
8,958,279311,776,-16545,1262,-16,-30,-17
8,959,279316,830,-16580,1259,-17,-35,-20
8,960,279321,859,-16581,1291,-17,-39,-18
8,961,279326,797,-16568,1301,-14,-44,-18
8,962,279331,807,-16530,1285,-19,-45,-22
8,963,279336,787,-16458,1268,-18,-42,-23
8,964,279341,840,-16436,1265,-16,-41,-24
8,965,279346,858,-16427,1239,-16,-36,-22
8,966,279351,864,-16425,1232,-15,-33,-24
8,967,279356,864,-16465,1222,-18,-15,-28
8,968,279361,842,-16438,1261,-17,-7,-30
8,969,279366,892,-16418,1245,-15,-1,-29
8,970,279371,951,-16416,1329,-17,1,-28
8,971,279376,916,-16479,1343,-17,-4,-30
8,972,279381,960,-16523,1321,-15,-11,-32
8,973,279386,990,-16484,1322,-16,-15,-35
8,974,279391,1025,-16432,1346,-14,-26,-32
8,975,279396,1024,-16428,1356,-13,-38,-32
8,976,279401,1034,-16371,1299,-10,-44,-32
8,977,279406,1007,-16306,1186,-10,-40,-30
8,978,279411,992,-16311,1217,-12,-30,-31
8,979,279416,933,-16259,1190,-13,-18,-32
8,980,279421,934,-16334,1174,-13,-8,-33
8,981,279426,900,-16399,1111,-12,8,-33
8,982,279431,918,-16437,1099,-12,25,-33
8,983,279436,963,-16450,1112,-14,40,-36
8,984,279441,891,-16447,1202,-11,39,-36
8,985,279446,867,-16406,1232,-10,42,-36
8,986,279451,875,-16413,1227,-12,48,-34
8,987,279456,840,-16388,1269,-12,56,-36
8,988,279461,757,-16406,1289,-12,59,-39
8,989,279466,710,-16423,1282,-11,60,-37
8,990,279471,685,-16475,1346,-9,56,-38
8,991,279476,769,-16520,1340,-7,46,-39
8,992,279481,811,-16528,1345,-6,34,-40
8,993,279486,811,-16505,1408,-5,19,-40
8,994,279491,802,-16424,1406,-4,-4,-41
8,995,279496,771,-16412,1322,-4,-27,-41
8,996,279501,808,-16432,1162,1,-42,-40
8,997,279506,823,-16436,1088,4,-45,-39
8,998,279511,852,-16488,1143,4,-42,-40
8,999,279516,860,-16487,1144,0,-40,-39
