event_id,seq,ts_ms,ax,ay,az,gx,gy,gz
4,0,157871,557,-16608,940,-11,-1,-19
4,1,157876,552,-16631,901,-9,1,-16
4,2,157881,534,-16607,904,-13,-1,-18
4,3,157886,542,-16600,879,-12,-3,-20
4,4,157891,541,-16587,868,-9,-1,-19
4,5,157896,535,-16597,900,-12,0,-20
4,6,157901,523,-16625,877,-14,1,-19
4,7,157906,481,-16631,948,-11,5,-18
4,8,157911,463,-16597,988,-10,7,-18
4,9,157916,507,-16611,979,-12,9,-20
4,10,157921,556,-16613,1067,-11,12,-25
4,11,157926,568,-16599,1113,-10,7,-22
4,12,157931,529,-16584,1104,-11,0,-20
4,13,157936,533,-16609,1003,-13,-3,-22
4,14,157941,517,-16610,979,-11,-9,-21
4,15,157946,551,-16583,970,-11,-14,-21
4,16,157951,593,-16565,974,-12,-18,-22
4,17,157956,561,-16574,938,-10,-16,-21
4,18,157961,571,-16533,912,-9,-11,-22
4,19,157966,588,-16523,899,-13,-8,-21
4,20,157971,578,-16503,853,-13,-4,-22
4,21,157976,600,-16508,889,-12,-1,-22
4,22,157981,585,-16518,915,-13,1,-23
4,23,157986,591,-16558,936,-11,-2,-22
4,24,157991,594,-16598,942,-12,-1,-20
4,25,157996,610,-16552,954,-12,0,-22
4,26,158001,597,-16541,993,-10,0,-22
4,27,158006,581,-16538,936,-11,-1,-22
4,28,158011,592,-16536,941,-12,2,-22
4,29,158016,597,-16545,900,-12,4,-21
4,30,158021,591,-16538,838,-10,2,-20
4,31,158026,584,-16506,827,-8,3,-20
4,32,158031,615,-16490,925,-6,4,-20
4,33,158036,601,-16474,912,-8,6,-20
4,34,158041,565,-16462,898,-10,14,-19
4,35,158046,516,-16416,881,-8,22,-21
4,36,158051,524,-16450,885,-8,26,-22
4,37,158056,608,-16391,957,-9,27,-21
4,38,158061,622,-16358,1037,-9,23,-21
4,39,158066,631,-16381,1132,-10,16,-21
4,40,158071,632,-16383,1148,-9,5,-20
4,41,158076,591,-16387,1104,-7,5,-19
4,42,158081,600,-16391,1028,-8,-1,-19
4,43,158086,605,-16412,1023,-6,-7,-18
4,44,158091,559,-16408,1014,-6,-17,-16
4,45,158096,553,-16386,980,-5,-23,-17
4,46,158101,579,-16408,887,-5,-26,-17
4,47,158106,597,-16349,873,-4,-19,-18
4,48,158111,620,-16343,868,-4,-17,-16
4,49,158116,622,-16384,846,-2,-15,-12
4,50,158121,662,-16355,913,-2,-10,-14
4,51,158126,588,-16358,875,-5,-13,-15
4,52,158131,639,-16327,869,-3,-7,-16
4,53,158136,638,-16341,856,-1,0,-16
4,54,158141,649,-16340,866,-2,3,-13
4,55,158146,707,-16284,887,-1,9,-12
4,56,158151,722,-16307,896,1,13,-11
4,57,158156,756,-16265,958,-2,12,-11
4,58,158161,779,-16271,1019,-3,12,-12
4,59,158166,799,-16275,988,-1,9,-10
4,60,158171,757,-16319,992,-3,7,-9
4,61,158176,729,-16335,995,0,6,-9
4,62,158181,680,-16327,937,2,8,-7
4,63,158186,679,-16381,906,2,10,-5
4,64,158191,613,-16414,912,1,12,-3
4,65,158196,599,-16434,1001,-2,16,-4
4,66,158201,558,-16463,973,0,16,-4
4,67,158206,555,-16494,931,0,18,-5
4,68,158211,545,-16527,955,2,20,-4
4,69,158216,525,-16536,1013,0,18,-3
4,70,158221,555,-16551,1034,0,9,-3
4,71,158226,548,-16562,979,-1,4,-2
4,72,158231,562,-16556,967,1,-3,-2
4,73,158236,581,-16575,964,4,-6,-2
4,74,158241,600,-16539,947,6,-12,-2
4,75,158246,562,-16564,892,3,-14,2
4,76,158251,562,-16568,879,6,-17,1
4,77,158256,587,-16590,879,6,-18,-2
4,78,158261,598,-16586,832,6,-10,-1
4,79,158266,548,-16608,857,6,-5,0
4,80,158271,588,-16564,890,6,3,-1
4,81,158276,606,-16562,924,5,9,0
4,82,158281,593,-16536,920,5,11,-1
4,83,158286,581,-16556,917,5,15,0
4,84,158291,595,-16555,962,5,18,-2
4,85,158296,593,-16588,920,3,19,-2
4,86,158301,583,-16574,906,2,20,0
4,87,158306,551,-16548,974,5,21,-2
4,88,158311,560,-16532,997,5,17,-2
4,89,158316,562,-16505,982,5,14,-1
4,90,158321,624,-16545,974,8,10,2
4,91,158326,616,-16494,977,9,5,1
4,92,158331,594,-16491,1003,9,-1,1
4,93,158336,646,-16502,1045,6,-6,0
4,94,158341,634,-16441,1050,8,-12,2
4,95,158346,598,-16447,1038,7,-10,2
4,96,158351,590,-16474,948,7,-9,3
4,97,158356,564,-16493,928,7,-7,5
4,98,158361,575,-16500,964,6,-5,6
4,99,158366,636,-16494,976,6,-3,1
4,100,158371,689,-16449,1030,6,-3,2
4,101,158376,699,-16424,1006,4,-4,3
4,102,158381,638,-16457,972,5,-6,4
4,103,158386,624,-16473,936,6,-2,6
4,104,158391,604,-16481,932,5,2,4
4,105,158396,632,-16442,898,5,3,5
4,106,158401,614,-16472,933,3,2,8
4,107,158406,609,-16523,947,4,-1,7
4,108,158411,588,-16528,939,7,-5,5
4,109,158416,607,-16507,919,8,-3,5
4,110,158421,634,-16505,910,7,-6,4
4,111,158426,633,-16533,958,6,-7,5
4,112,158431,621,-16553,955,6,-8,6
4,113,158436,572,-16550,940,6,-12,7
4,114,158441,519,-16535,926,9,-11,7
4,115,158446,494,-16540,970,9,-9,7
4,116,158451,541,-16550,955,7,-6,7
4,117,158456,606,-16538,979,8,-6,6
4,118,158461,623,-16535,974,6,-5,6
4,119,158466,600,-16580,919,7,-5,6
4,120,158471,534,-16571,881,8,-1,5
4,121,158476,540,-16606,865,6,8,6
4,122,158481,502,-16581,867,6,11,5
4,123,158486,563,-16626,897,6,11,5
4,124,158491,671,-16597,948,6,12,7
4,125,158496,645,-16552,936,4,7,6
4,126,158501,658,-16511,968,8,0,6
4,127,158506,634,-16504,978,11,-4,11
4,128,158511,643,-16481,977,10,-8,7
4,129,158516,641,-16447,962,10,-12,7
4,130,158521,636,-16463,976,11,-14,9
4,131,158526,661,-16460,981,8,-15,10
4,132,158531,684,-16402,993,8,-14,10
4,133,158536,682,-16421,1000,9,-12,12
4,134,158541,679,-16401,967,10,-11,14
4,135,158546,630,-16428,949,8,-2,14
4,136,158551,589,-16451,867,7,7,9
4,137,158556,610,-16429,840,8,11,11
4,138,158561,596,-16427,863,7,19,10
4,139,158566,576,-16419,933,7,21,11
4,140,158571,571,-16460,961,4,21,10
4,141,158576,586,-16491,989,6,23,8
4,142,158581,567,-16487,989,7,25,9
4,143,158586,629,-16536,1075,7,22,13
4,144,158591,649,-16503,1140,5,21,12
4,145,158596,645,-16483,1134,7,16,11
4,146,158601,665,-16459,1075,8,8,12
4,147,158606,611,-16464,1021,7,4,12
4,148,158611,651,-16462,1017,8,1,12
4,149,158616,666,-16428,979,7,-1,14
4,150,158621,659,-16387,957,6,-4,14
4,151,158626,663,-16384,920,4,-7,14
4,152,158631,665,-16389,930,4,-2,13
4,153,158636,686,-16385,859,6,2,15
4,154,158641,653,-16379,885,5,8,13
4,155,158646,589,-16421,897,2,14,13
4,156,158651,587,-16441,865,5,17,16
4,157,158656,533,-16453,881,3,24,14
4,158,158661,581,-16475,945,3,29,13
4,159,158666,534,-16471,948,4,31,14
4,160,158671,521,-16501,934,7,30,12
4,161,158676,549,-16532,985,5,30,13
4,162,158681,601,-16526,949,3,29,15
4,163,158686,554,-16484,938,5,23,13
4,164,158691,502,-16569,927,5,20,11
4,165,158696,434,-16564,903,6,16,14
4,166,158701,421,-16553,935,6,14,9
4,167,158706,433,-16587,885,8,11,12
4,168,158711,450,-16575,908,9,11,11
4,169,158716,438,-16550,940,7,12,10
4,170,158721,416,-16531,923,8,9,9
4,171,158726,417,-16456,951,6,4,5
4,172,158731,475,-16450,954,6,1,5
4,173,158736,478,-16434,984,8,-1,8
4,174,158741,440,-16408,1033,9,-1,6
4,175,158746,475,-16394,987,6,-2,5
4,176,158751,467,-16391,1021,6,-4,4
4,177,158756,461,-16427,1027,9,-5,5
4,178,158761,445,-16394,1015,10,-5,6
4,179,158766,498,-16372,1019,7,-8,4
4,180,158771,511,-16401,1009,6,-7,3
4,181,158776,475,-16400,948,7,-7,3
4,182,158781,459,-16442,897,7,-4,3
4,183,158786,454,-16430,896,8,-8,4
4,184,158791,491,-16432,943,9,-4,2
4,185,158796,560,-16474,922,7,-5,2
4,186,158801,531,-16473,963,12,-9,0
4,187,158806,462,-16458,1000,8,-11,1
4,188,158811,472,-16478,932,10,-12,2
4,189,158816,475,-16484,913,11,-10,-1
4,190,158821,484,-16498,956,8,-10,0
4,191,158826,511,-16430,1036,9,-12,1
4,192,158831,499,-16407,1037,9,-17,0
4,193,158836,512,-16408,1043,9,-14,-2
4,194,158841,483,-16374,1044,12,-11,-1
4,195,158846,473,-16384,979,9,-7,-3
4,196,158851,489,-16354,904,8,-9,-4
4,197,158856,510,-16378,918,8,-9,-7
4,198,158861,481,-16374,899,10,-12,-3
4,199,158866,479,-16365,895,12,-15,-2
4,200,158871,537,-16358,901,10,-17,-4
4,201,158876,543,-16339,936,8,-14,-6
4,202,158881,501,-16325,918,8,-10,-4
4,203,158886,538,-16363,957,9,-7,-4
4,204,158891,517,-16376,934,7,0,-6
4,205,158896,582,-16392,934,8,-3,-5
4,206,158901,613,-16451,965,12,-7,-5
4,207,158906,672,-16415,977,12,-13,-6
4,208,158911,701,-16346,958,9,-18,-6
4,209,158916,702,-16321,984,10,-22,-4
4,210,158921,643,-16293,1002,11,-26,-5
4,211,158926,679,-16252,986,12,-30,-3
4,212,158931,654,-16294,963,11,-28,-2
4,213,158936,613,-16314,958,11,-25,0
4,214,158941,571,-16364,906,12,-22,0
4,215,158946,572,-16392,911,11,-15,-2
4,216,158951,555,-16421,941,10,-10,0
4,217,158956,576,-16411,964,9,-8,-1
4,218,158961,566,-16440,967,7,-8,-5
4,219,158966,487,-16439,957,7,-7,-2
4,220,158971,449,-16484,941,8,-5,-4
4,221,158976,440,-16484,959,6,-1,-7
4,222,158981,455,-16498,949,7,0,-2
4,223,158986,469,-16476,928,7,-1,-2
4,224,158991,477,-16461,975,6,-1,-5
4,225,158996,518,-16449,991,6,-2,-6
4,226,159001,466,-16535,950,5,-5,-7
4,227,159006,443,-16531,902,6,0,-9
4,228,159011,457,-16510,874,6,9,-8
4,229,159016,490,-16526,922,2,15,-8
4,230,159021,450,-16521,951,6,11,-10
4,231,159026,483,-16539,991,7,2,-8
4,232,159031,541,-16512,1047,3,-3,-8
4,233,159036,554,-16484,1018,3,-5,-9
4,234,159041,549,-16516,993,6,-11,-9
4,235,159046,533,-16512,957,5,-13,-11
4,236,159051,537,-16526,917,5,-18,-10
4,237,159056,494,-16538,924,4,-23,-12
4,238,159061,473,-16510,945,4,-23,-11
4,239,159066,513,-16525,947,2,-25,-10
4,240,159071,499,-16516,948,4,-20,-10
4,241,159076,488,-16489,971,3,-14,-14
4,242,159081,487,-16474,998,2,-13,-12
4,243,159086,534,-16461,1012,-1,-10,-13
4,244,159091,529,-16464,999,-1,-9,-13
4,245,159096,519,-16471,1036,3,-11,-12
4,246,159101,509,-16469,1061,1,-11,-12
4,247,159106,524,-16421,1021,-3,-8,-16
4,248,159111,547,-16385,1010,0,-12,-15
4,249,159116,600,-16385,998,-1,-15,-15
4,250,159121,582,-16382,1016,2,-22,-14
4,251,159126,526,-16371,1036,3,-30,-13
4,252,159131,512,-16371,1002,0,-34,-13
4,253,159136,528,-16406,975,-2,-34,-13
4,254,159141,578,-16381,927,-2,-34,-9
4,255,159146,575,-16374,973,0,-33,-11
4,256,159151,587,-16335,965,0,-32,-16
4,257,159156,544,-16352,980,-3,-33,-15
4,258,159161,561,-16386,1021,-5,-32,-15
4,259,159166,562,-16412,1065,-6,-32,-14
4,260,159171,595,-16442,1084,-5,-29,-15
4,261,159176,604,-16497,1022,-8,-22,-16
4,262,159181,606,-16503,1062,-6,-19,-17
4,263,159186,615,-16468,1119,-6,-17,-15
4,264,159191,713,-16451,1110,-7,-23,-14
4,265,159196,656,-16460,1094,-6,-31,-11
4,266,159201,688,-16474,1061,-8,-34,-13
4,267,159206,698,-16448,982,-6,-38,-9
4,268,159211,699,-16434,954,-7,-43,-11
4,269,159216,662,-16467,926,-5,-45,-7
4,270,159221,682,-16467,904,-7,-47,-9
4,271,159226,736,-16447,901,-8,-44,-10
4,272,159231,707,-16461,887,-9,-41,-8
4,273,159236,719,-16437,862,-6,-31,-6
4,274,159241,737,-16404,889,-9,-22,-5
4,275,159246,729,-16339,904,-7,-17,-8
4,276,159251,799,-16331,953,-9,-11,-7
4,277,159256,763,-16314,990,-8,-8,-4
4,278,159261,757,-16315,1040,-9,-6,-4
4,279,159266,718,-16338,1002,-10,1,-5
4,280,159271,637,-16343,985,-11,6,-5
4,281,159276,613,-16369,951,-11,12,-5
4,282,159281,628,-16423,932,-10,16,-3
4,283,159286,608,-16387,992,-12,18,-3
4,284,159291,551,-16405,1006,-12,18,-4
4,285,159296,538,-16409,1016,-14,16,-3
4,286,159301,520,-16375,985,-12,12,-4
4,287,159306,553,-16391,944,-11,7,-4
4,288,159311,553,-16385,971,-7,4,-5
4,289,159316,563,-16368,1027,-7,-3,-5
4,290,159321,603,-16382,1024,-9,-4,-5
4,291,159326,586,-16381,935,-8,-5,-3
4,292,159331,523,-16350,927,-8,-1,-4
4,293,159336,544,-16395,903,-11,4,-8
4,294,159341,566,-16472,906,-15,9,-7
4,295,159346,523,-16462,943,-11,13,-7
4,296,159351,539,-16493,931,-12,20,-8
4,297,159356,511,-16515,875,-13,22,-9
4,298,159361,486,-16521,903,-13,27,-10
4,299,159366,487,-16491,965,-12,29,-9
4,300,159371,493,-16506,946,-11,30,-10
4,301,159376,467,-16513,913,-10,30,-10
4,302,159381,474,-16510,826,-10,28,-10
4,303,159386,477,-16490,812,-10,33,-12
4,304,159391,482,-16509,832,-10,36,-11
4,305,159396,496,-16519,836,-7,49,-11
4,306,159401,423,-16605,859,-9,58,-12
4,307,159406,399,-16601,875,-14,68,-16
4,308,159411,458,-16595,915,-12,73,-15
4,309,159416,482,-16579,935,-11,74,-19
4,310,159421,463,-16632,964,-11,75,-21
4,311,159426,406,-16615,971,-11,67,-17
4,312,159431,441,-16659,998,-10,61,-17
4,313,159436,466,-16605,1056,-9,50,-17
4,314,159441,499,-16604,1049,-8,42,-17
4,315,159446,493,-16614,1063,-9,33,-16
4,316,159451,403,-16669,1022,-10,21,-14
4,317,159456,393,-16709,928,-8,12,-19
4,318,159461,309,-16784,888,-8,5,-20
4,319,159466,333,-16835,912,-4,-7,-18
4,320,159471,378,-16772,1020,-4,-18,-18
4,321,159476,490,-16723,1023,-3,-33,-21
4,322,159481,482,-16611,1007,-3,-43,-22
4,323,159486,425,-16595,1049,-1,-55,-23
4,324,159491,400,-16558,1029,-1,-65,-19
4,325,159496,449,-16544,1027,0,-73,-18
4,326,159501,483,-16477,984,0,-74,-20
4,327,159506,524,-16483,1014,1,-74,-20
4,328,159511,474,-16455,990,-1,-71,-18
4,329,159516,511,-16435,974,-3,-70,-20
4,330,159521,540,-16397,841,-4,-68,-22
4,331,159526,591,-16435,852,-5,-58,-19
4,332,159531,563,-16383,868,-3,-52,-19
4,333,159536,557,-16391,817,-4,-47,-19
4,334,159541,539,-16439,726,-4,-34,-22
4,335,159546,558,-16467,694,-7,-22,-23
4,336,159551,547,-16464,742,-4,-11,-21
4,337,159556,561,-16495,796,-5,-9,-22
4,338,159561,621,-16508,915,-3,-10,-18
4,339,159566,629,-16482,999,-4,-11,-20
4,340,159571,635,-16460,1002,-5,-16,-15
4,341,159576,639,-16479,1054,-1,-21,-17
4,342,159581,632,-16494,1039,0,-30,-20
4,343,159586,655,-16534,995,0,-41,-16
4,344,159591,613,-16579,979,-2,-50,-16
4,345,159596,601,-16573,998,-2,-58,-15
4,346,159601,611,-16584,995,1,-63,-12
4,347,159606,604,-16532,973,2,-64,-12
4,348,159611,597,-16495,918,2,-60,-12
4,349,159616,674,-16477,864,5,-57,-9
4,350,159621,668,-16478,843,3,-60,-10
4,351,159626,653,-16494,845,2,-60,-11
4,352,159631,711,-16519,804,3,-58,-7
4,353,159636,685,-16467,764,3,-48,-7
4,354,159641,688,-16466,778,3,-36,-8
4,355,159646,645,-16443,754,2,-19,-7
4,356,159651,623,-16466,763,4,-6,-5
4,357,159656,662,-16463,754,1,6,-4
4,358,159661,627,-16510,847,2,28,-6
4,359,159666,614,-16511,883,2,31,-4
4,360,159671,571,-16512,920,0,37,-2
4,361,159676,554,-16436,1025,2,43,0
4,362,159681,496,-16433,1110,2,40,2
4,363,159686,513,-16388,1188,2,30,4
4,364,159691,502,-16397,1232,5,5,4
4,365,159696,458,-16276,1277,8,-22,8
4,366,159701,350,-16248,1342,11,-60,13
4,367,159706,244,-16316,1444,13,-109,16
4,368,159711,404,-16428,1471,17,-172,21
4,369,159716,602,-16405,1430,22,-237,29
4,370,159721,803,-16276,1322,28,-311,34
4,371,159726,623,-16128,1131,37,-391,37
4,372,159731,190,-16125,593,44,-455,47
4,373,159736,-187,-16123,-1,48,-467,54
4,374,159741,-246,-16149,-674,51,-429,60
4,375,159746,-112,-16232,-557,48,-348,64
4,376,159751,250,-16108,-280,35,-264,64
4,377,159756,226,-16174,-156,34,-170,70
4,378,159761,407,-16401,-656,37,-61,67
4,379,159766,559,-16473,-449,27,55,73
4,380,159771,1130,-16566,64,19,121,90
4,381,159776,1605,-16655,671,18,155,103
4,382,159781,1839,-16809,757,22,169,121
4,383,159786,1615,-17034,656,23,184,139
4,384,159791,1184,-17048,488,26,186,154
4,385,159796,903,-16963,439,27,175,178
4,386,159801,853,-16814,620,26,158,203
4,387,159806,1000,-16602,984,27,152,229
4,388,159811,886,-16381,1197,30,155,249
4,389,159816,487,-16124,1160,27,159,262
4,390,159821,-37,-16007,918,25,167,284
4,391,159826,-311,-15902,802,16,200,307
4,392,159831,-399,-15740,1006,9,250,322
4,393,159836,-522,-15777,1229,3,296,340
4,394,159841,-691,-15785,1247,-4,330,354
4,395,159846,-1117,-15771,1352,-13,355,369
4,396,159851,-1428,-15660,1514,-16,358,388
4,397,159856,-1527,-15504,1818,-23,346,408
4,398,159861,-1318,-15442,2125,-23,305,431
4,399,159866,-1074,-15434,2287,-24,240,450
4,400,159871,-1160,-15444,2350,-25,155,467
4,401,159876,-1385,-15498,2214,-22,56,488
4,402,159881,-1717,-15614,1885,-21,-31,507
4,403,159886,-1681,-15635,1505,-19,-92,530
4,404,159891,-1622,-15678,1374,-22,-116,548
4,405,159896,-1613,-15761,1311,-26,-137,566
4,406,159901,-1689,-15799,1172,-23,-153,582
4,407,159906,-1643,-15808,969,-24,-173,602
4,408,159911,-1418,-15835,1025,-27,-181,622
4,409,159916,-1437,-15798,1105,-26,-188,639
4,410,159921,-1435,-16039,952,-22,-206,655
4,411,159926,-1502,-16142,815,-23,-221,676
4,412,159931,-1611,-16085,991,-21,-225,689
4,413,159936,-1632,-16072,972,-20,-245,707
4,414,159941,-1678,-16107,984,-18,-257,724
4,415,159946,-1784,-16084,973,-19,-269,737
4,416,159951,-1881,-16138,990,-19,-289,755
4,417,159956,-1982,-16181,962,-14,-309,771
4,418,159961,-2048,-16189,1046,-10,-317,782
4,419,159966,-2065,-16265,1015,-10,-326,792
4,420,159971,-2137,-16284,917,-11,-335,801
4,421,159976,-2220,-16322,852,-10,-346,810
4,422,159981,-2320,-16391,760,-7,-347,820
4,423,159986,-2387,-16407,726,-6,-335,828
4,424,159991,-2372,-16426,687,-7,-315,833
4,425,159996,-2409,-16485,642,-7,-285,841
4,426,160001,-2550,-16592,602,-13,-243,840
4,427,160006,-2633,-16676,530,-12,-204,841
4,428,160011,-2778,-16692,617,-12,-170,844
4,429,160016,-2773,-16704,728,-16,-143,845
4,430,160021,-2829,-16773,1008,-17,-122,843
4,431,160026,-2731,-16757,1535,-8,-171,848
4,432,160031,-2609,-16806,1689,1,-238,854
4,433,160036,-2656,-16735,1891,5,-322,851
4,434,160041,-2756,-16793,1933,19,-436,857
4,435,160046,-2643,-16737,1837,28,-544,859
4,436,160051,-2738,-16713,1611,38,-628,858
4,437,160056,-2823,-16749,1328,47,-701,861
4,438,160061,-2777,-16718,1183,54,-753,860
4,439,160066,-2635,-16797,886,60,-789,863
4,440,160071,-2585,-16852,715,65,-787,855
4,441,160076,-2748,-16870,442,65,-761,844
4,442,160081,-2969,-16953,152,65,-707,835
4,443,160086,-3046,-16959,74,62,-626,829
4,444,160091,-2903,-16955,210,61,-532,824
4,445,160096,-2757,-16928,347,57,-436,814
4,446,160101,-2776,-16913,525,56,-355,801
4,447,160106,-2872,-16909,595,52,-298,793
4,448,160111,-2978,-16863,720,47,-255,783
4,449,160116,-2938,-16812,877,46,-224,777
4,450,160121,-2829,-16818,1056,49,-199,771
4,451,160126,-2843,-16873,1043,50,-182,763
4,452,160131,-3015,-16891,1140,54,-166,750
4,453,160136,-3120,-16919,1202,53,-170,745
4,454,160141,-3086,-16801,1158,51,-184,735
4,455,160146,-2975,-16771,1215,52,-192,727
4,456,160151,-3059,-16770,1323,53,-191,716
4,457,160156,-3183,-16730,1439,59,-198,704
4,458,160161,-3243,-16760,1278,60,-214,694
4,459,160166,-3314,-16634,1265,57,-218,684
4,460,160171,-3402,-16554,1386,57,-218,670
4,461,160176,-3507,-16474,1484,57,-228,655
4,462,160181,-3556,-16389,1333,58,-245,641
4,463,160186,-3642,-16401,1206,56,-254,629
4,464,160191,-3694,-16401,1236,59,-249,613
4,465,160196,-3747,-16327,1279,59,-243,595
4,466,160201,-3812,-16285,1338,58,-239,581
4,467,160206,-3839,-16161,1309,57,-232,566
4,468,160211,-3815,-16098,1414,56,-227,552
4,469,160216,-3601,-16043,1571,58,-235,538
4,470,160221,-3307,-15998,1677,58,-252,519
4,471,160226,-3201,-15997,1718,60,-279,508
4,472,160231,-3219,-16027,1650,60,-312,494
4,473,160236,-3307,-16048,1434,62,-334,479
4,474,160241,-3338,-16116,1134,61,-339,464
4,475,160246,-3321,-16152,969,59,-328,450
4,476,160251,-3325,-16218,863,60,-302,432
4,477,160256,-3367,-16292,801,56,-264,413
4,478,160261,-3383,-16302,783,53,-217,395
4,479,160266,-3553,-16319,837,49,-166,379
4,480,160271,-3413,-16303,790,47,-119,361
4,481,160276,-3408,-16251,911,44,-74,344
4,482,160281,-3435,-16213,1083,39,-41,326
4,483,160286,-3488,-16131,1306,40,-26,311
4,484,160291,-3500,-16071,1347,39,-14,295
4,485,160296,-3408,-16014,1413,35,2,277
4,486,160301,-3461,-15983,1541,31,13,264
4,487,160306,-3484,-15960,1595,31,4,247
4,488,160311,-3567,-15886,1663,31,-23,227
4,489,160316,-3560,-15829,1669,32,-51,210
4,490,160321,-3555,-15781,1690,33,-72,192
4,491,160326,-3530,-15789,1698,34,-92,178
4,492,160331,-3554,-15760,1677,33,-123,163
4,493,160336,-3646,-15775,1647,34,-142,147
4,494,160341,-3670,-15800,1504,35,-157,127
4,495,160346,-3717,-15860,1491,32,-162,109
4,496,160351,-3748,-15864,1368,28,-158,88
4,497,160356,-3775,-15860,1293,24,-146,69
4,498,160361,-3827,-15858,1251,21,-129,49
4,499,160366,-3807,-15850,1250,19,-107,28
4,500,160371,-3833,-15801,1308,18,-90,11
4,501,160376,-3829,-15807,1331,16,-81,-10
4,502,160381,-3748,-15825,1319,14,-67,-32
4,503,160386,-3665,-15804,1298,13,-57,-51
4,504,160391,-3679,-15823,1345,14,-50,-70
4,505,160396,-3647,-15798,1428,7,-43,-110
4,506,160401,-3619,-15802,1460,8,-45,-128
4,507,160406,-3552,-15852,1501,8,-53,-152
4,508,160411,-3544,-15779,1542,8,-65,-166
4,509,160416,-3499,-15739,1555,8,-79,-186
4,510,160421,-3512,-15709,1608,5,-95,-205
4,511,160426,-3432,-15669,1678,7,-116,-224
4,512,160431,-3345,-15649,1685,9,-135,-240
4,513,160436,-3334,-15662,1654,9,-151,-260
4,514,160441,-3364,-15656,1640,8,-161,-282
4,515,160446,-3360,-15641,1654,3,-176,-295
4,516,160451,-3353,-15660,1643,3,-188,-315
4,517,160456,-3332,-15687,1606,0,-196,-332
4,518,160461,-3347,-15700,1564,2,-201,-350
4,519,160466,-3339,-15776,1451,1,-203,-370
4,520,160471,-3280,-15759,1444,-3,-204,-389
4,521,160476,-3120,-15706,1463,-6,-208,-408
4,522,160481,-3069,-15689,1518,-6,-211,-426
4,523,160486,-3083,-15736,1465,-7,-217,-446
4,524,160491,-3088,-15759,1435,-8,-217,-460
4,525,160496,-2949,-15785,1389,-11,-213,-478
4,526,160501,-2838,-15774,1474,-11,-202,-496
4,527,160506,-2916,-15845,1468,-15,-193,-515
4,528,160511,-3002,-15855,1393,-14,-186,-535
4,529,160516,-2952,-15885,1331,-15,-182,-549
4,530,160521,-2894,-15852,1514,-18,-182,-566
4,531,160526,-2881,-15858,1576,-18,-190,-581
4,532,160531,-2842,-15977,1519,-17,-201,-595
4,533,160536,-2665,-15997,1449,-18,-205,-613
4,534,160541,-2575,-16029,1535,-21,-206,-630
4,535,160546,-2792,-15937,1677,-21,-218,-650
4,536,160551,-2829,-15983,1597,-18,-239,-658
4,537,160556,-2730,-15974,1456,-21,-244,-674
4,538,160561,-2487,-16042,1402,-22,-239,-687
4,539,160566,-2429,-16089,1507,-25,-236,-705
4,540,160571,-2538,-16115,1465,-24,-238,-722
4,541,160576,-2656,-16204,1275,-21,-239,-735
4,542,160581,-2543,-16221,1243,-25,-229,-749
4,543,160586,-2359,-16272,1437,-28,-219,-763
4,544,160591,-2248,-16283,1601,-29,-229,-775
4,545,160596,-2158,-16233,1670,-26,-247,-788
4,546,160601,-2133,-16176,1749,-26,-265,-799
4,547,160606,-2111,-16165,1817,-26,-294,-811
4,548,160611,-1931,-16157,1812,-25,-329,-820
4,549,160616,-1710,-16140,1743,-23,-364,-829
4,550,160621,-1571,-16147,1755,-25,-394,-837
4,551,160626,-1558,-16210,1757,-26,-419,-848
4,552,160631,-1637,-16279,1612,-26,-439,-857
4,553,160636,-1664,-16357,1360,-27,-436,-866
4,554,160641,-1692,-16418,1163,-31,-415,-879
4,555,160646,-1679,-16461,1106,-34,-387,-888
4,556,160651,-1618,-16456,1075,-37,-361,-898
4,557,160656,-1595,-16467,1047,-43,-329,-909
4,558,160661,-1494,-16488,1062,-44,-281,-918
4,559,160666,-1474,-16470,1158,-51,-224,-934
4,560,160671,-1451,-16465,1223,-56,-172,-945
4,561,160676,-1545,-16455,1309,-61,-127,-955
4,562,160681,-1484,-16529,1403,-63,-96,-966
4,563,160686,-1321,-16558,1466,-65,-74,-972
4,564,160691,-1206,-16615,1604,-66,-69,-982
4,565,160696,-1181,-16674,1722,-67,-77,-990
4,566,160701,-1030,-16680,1845,-67,-97,-999
4,567,160706,-901,-16610,2005,-68,-121,-1004
4,568,160711,-907,-16599,2001,-67,-149,-1011
4,569,160716,-971,-16631,1949,-67,-179,-1016
4,570,160721,-999,-16617,1803,-64,-211,-1021
4,571,160726,-851,-16602,1650,-62,-240,-1021
4,572,160731,-593,-16530,1580,-66,-249,-1030
4,573,160736,-493,-16641,1526,-69,-245,-1036
4,574,160741,-550,-16721,1407,-72,-229,-1044
4,575,160746,-624,-16771,1123,-75,-198,-1051
4,576,160751,-707,-16816,941,-80,-141,-1060
4,577,160756,-634,-16821,966,-88,-75,-1066
4,578,160761,-245,-16804,1182,-92,29,-1079
4,579,160766,-219,-16883,1133,-96,70,-1088
4,580,160771,-319,-16902,1233,-100,107,-1093
4,581,160776,-318,-16920,1435,-101,137,-1099
4,582,160781,-245,-16892,1606,-103,154,-1101
4,583,160786,-164,-16935,1720,-102,167,-1104
4,584,160791,-167,-16902,1874,-102,170,-1108
4,585,160796,-214,-16956,1970,-100,153,-1110
4,586,160801,-25,-16938,2040,-95,113,-1111
4,587,160806,259,-16897,2166,-93,63,-1111
4,588,160811,471,-16950,2222,-89,3,-1112
4,589,160816,467,-16953,2190,-83,-60,-1114
4,590,160821,440,-16870,1959,-81,-116,-1110
4,591,160826,543,-16798,1705,-82,-157,-1106
4,592,160831,792,-16799,1557,-80,-177,-1103
4,593,160836,934,-16819,1367,-80,-177,-1102
4,594,160841,981,-16825,1206,-85,-156,-1103
4,595,160846,912,-16885,969,-89,-119,-1100
4,596,160851,979,-16882,847,-93,-64,-1099
4,597,160856,924,-16641,842,-99,2,-1099
4,598,160861,-3723,-17305,-2769,-86,121,-1094
4,599,160866,-14557,-27474,-30423,56,1072,-1277
4,600,160871,-32768,-25901,-28833,-609,5621,-1487
4,601,160876,-25054,-20134,3795,-902,13818,-611
4,602,160881,4299,-5886,32767,-638,16329,-520
4,603,160886,32767,-11733,32767,-435,13342,-663
4,604,160891,21505,-9879,32181,-173,8445,-1077
4,605,160896,-10921,-21242,28800,402,1399,-270
4,606,160901,-25995,-12573,15330,703,-4627,217
4,607,160906,-9027,-16478,-18309,818,-6138,934
4,608,160911,3279,-15140,-19638,521,-1944,541
4,609,160916,8399,-16451,1708,227,1774,111
4,610,160921,-463,-16199,23523,130,2060,-141
4,611,160926,-12354,-14358,31520,353,-1016,72
4,612,160931,-4774,-13031,7130,776,-5677,673
4,613,160936,3493,-16847,-11635,791,-6110,849
4,614,160941,-493,-16887,-4014,580,-3515,390
4,615,160946,-4556,-16003,6082,469,-2393,231
4,616,160951,-6502,-18066,9347,479,-2794,386
4,617,160956,-1821,-17158,-837,519,-3681,399
4,618,160961,996,-16620,-6237,522,-3335,333
4,619,160966,-1302,-17323,-4714,457,-2354,258
4,620,160971,-4493,-17368,-299,393,-1569,202
4,621,160976,-3392,-17500,-3166,368,-1281,217
4,622,160981,114,-17313,-6711,321,-767,192
4,623,160986,2297,-17089,-5170,246,46,127
4,624,160991,1100,-17254,362,204,677,88
4,625,160996,-203,-16967,2747,206,781,73
4,626,161001,554,-16562,344,220,669,108
4,627,161006,2251,-16509,-643,201,822,138
4,628,161011,3124,-16209,2464,168,1032,118
4,629,161016,2474,-16389,6077,177,860,127
4,630,161021,1940,-15809,2967,174,401,107
4,631,161026,1449,-15761,2235,227,321,153
4,632,161031,984,-16214,2235,214,311,188
4,633,161036,1479,-15557,2965,206,255,154
4,634,161041,1341,-16001,2640,202,87,185
4,635,161046,1509,-16111,1778,195,-59,167
4,636,161051,711,-16013,1721,183,-64,159
4,637,161056,497,-16073,1829,180,-24,167
4,638,161061,580,-16149,2008,180,10,175
4,639,161066,1065,-16240,1585,174,1,173
4,640,161071,1029,-16391,1903,163,6,161
4,641,161076,625,-16214,2126,152,-41,154
4,642,161081,272,-16342,2124,156,-84,168
4,643,161086,432,-16468,2021,148,-107,173
4,644,161091,938,-16357,1773,135,-84,167
4,645,161096,1095,-16655,1901,125,-60,171
4,646,161101,892,-16565,2242,114,-80,152
4,647,161106,557,-16581,2152,114,-134,150
4,648,161111,493,-16643,1579,111,-169,156
4,649,161116,705,-16662,1557,103,-138,157
4,650,161121,1072,-16627,1821,90,-84,153
4,651,161126,888,-16700,1893,69,-65,144
4,652,161131,704,-16638,1676,64,-59,145
4,653,161136,756,-16648,1707,50,-35,149
4,654,161141,613,-16538,2793,41,2,146
4,655,161146,1292,-16762,1073,42,-14,150
4,656,161151,1318,-16917,728,24,53,140
4,657,161156,478,-16637,2499,4,94,127
4,658,161161,256,-16645,2580,4,16,142
4,659,161166,751,-16561,1692,5,10,141
4,660,161171,1005,-16601,1345,-8,109,135
4,661,161176,985,-16549,2172,-18,154,129
4,662,161181,631,-16568,2637,-28,82,128
4,663,161186,423,-16240,2264,-31,-17,118
4,664,161191,441,-16280,1861,-33,-22,130
4,665,161196,629,-16301,1819,-39,24,135
4,666,161201,767,-16227,2237,-48,59,128
4,667,161206,702,-16266,2322,-55,35,126
4,668,161211,606,-16250,2180,-61,-3,118
4,669,161216,580,-16236,1882,-67,-11,115
4,670,161221,566,-16253,1944,-77,21,113
4,671,161226,711,-16250,2149,-84,50,114
4,672,161231,800,-16302,2163,-89,43,116
4,673,161236,863,-16354,2011,-97,31,111
4,674,161241,687,-16410,1927,-102,38,103
4,675,161246,527,-16463,2023,-107,55,98
4,676,161251,572,-16444,2120,-114,58,100
4,677,161256,590,-16419,2132,-117,53,98
4,678,161261,690,-16377,2145,-123,39,95
4,679,161266,705,-16316,2211,-129,23,92
4,680,161271,725,-16318,2237,-130,5,93
4,681,161276,813,-16243,2356,-134,-10,88
4,682,161281,476,-16186,2233,-135,-30,85
4,683,161286,359,-16128,1921,-139,-51,92
4,684,161291,621,-16147,1686,-143,-57,88
4,685,161296,583,-16100,2005,-147,-42,77
4,686,161301,589,-16221,2023,-150,-35,77
4,687,161306,507,-16141,1781,-157,-17,71
4,688,161311,566,-16122,1862,-164,15,75
4,689,161316,575,-16096,1886,-165,23,70
4,690,161321,645,-16042,1906,-168,21,65
4,691,161326,574,-16077,1893,-173,32,64
4,692,161331,585,-16189,1880,-182,61,55
4,693,161336,570,-16219,1954,-186,84,47
4,694,161341,571,-16287,1979,-189,89,47
4,695,161346,666,-16291,1979,-191,87,45
4,696,161351,721,-16299,2044,-196,84,43
4,697,161356,618,-16351,2146,-195,74,38
4,698,161361,524,-16374,2107,-195,56,37
4,699,161366,569,-16369,2035,-195,43,38
4,700,161371,617,-16315,2044,-198,23,34
4,701,161376,577,-16194,2127,-197,-5,32
4,702,161381,542,-16161,2130,-198,-27,33
4,703,161386,507,-16194,2018,-202,-30,31
4,704,161391,516,-16233,1930,-201,-31,28
4,705,161396,560,-16202,1926,-201,-28,26
4,706,161401,583,-16193,1906,-203,-27,21
4,707,161406,549,-16212,1896,-204,-28,18
4,708,161411,584,-16175,1890,-206,-28,14
4,709,161416,690,-16152,1824,-207,-27,11
4,710,161421,708,-16169,1800,-209,-18,10
4,711,161426,696,-16211,1683,-209,-7,6
4,712,161431,675,-16224,1609,-210,4,3
4,713,161436,642,-16242,1553,-211,22,-2
4,714,161441,648,-16255,1739,-211,33,-5
4,715,161446,711,-16254,1608,-210,40,-5
4,716,161451,688,-16240,1621,-211,48,-7
4,717,161456,728,-16227,1783,-210,51,-13
4,718,161461,709,-16262,1737,-212,43,-12
4,719,161466,741,-16276,1680,-210,47,-14
4,720,161471,748,-16345,1755,-203,55,-17
4,721,161476,649,-16291,1745,-203,53,-19
4,722,161481,550,-16351,1758,-200,46,-19
4,723,161486,537,-16314,1740,-199,35,-21
4,724,161491,772,-16229,1930,-200,9,-25
4,725,161496,702,-16190,1990,-194,-13,-29
4,726,161501,642,-16234,1876,-190,-33,-29
4,727,161506,627,-16211,1780,-189,-49,-29
4,728,161511,617,-16231,1799,-187,-58,-29
4,729,161516,707,-16173,1759,-184,-69,-31
4,730,161521,749,-16155,1754,-184,-71,-32
4,731,161526,685,-16184,1592,-181,-72,-34
4,732,161531,596,-16165,1577,-178,-60,-39
4,733,161536,646,-16181,1389,-177,-46,-36
4,734,161541,678,-16216,1301,-178,-20,-38
4,735,161546,721,-16275,1364,-178,15,-42
4,736,161551,687,-16296,1398,-175,44,-43
4,737,161556,615,-16335,1270,-176,72,-46
4,738,161561,641,-16392,1300,-177,100,-47
4,739,161566,616,-16436,1405,-172,124,-51
4,740,161571,641,-16447,1488,-171,130,-50
4,741,161576,655,-16385,1519,-168,131,-52
4,742,161581,614,-16419,1559,-164,132,-54
4,743,161586,525,-16469,1597,-159,125,-55
4,744,161591,403,-16524,1623,-158,114,-55
4,745,161596,405,-16527,1698,-156,104,-54
4,746,161601,428,-16542,1775,-149,90,-55
4,747,161606,475,-16513,1818,-141,69,-56
4,748,161611,463,-16480,1768,-139,50,-58
4,749,161616,377,-16455,1691,-135,26,-60
4,750,161621,339,-16419,1626,-131,3,-59
4,751,161626,424,-16413,1577,-127,-7,-57
4,752,161631,474,-16406,1568,-125,-12,-59
4,753,161636,539,-16348,1554,-121,-13,-59
4,754,161641,542,-16293,1523,-117,-16,-62
4,755,161646,505,-16288,1492,-117,-15,-61
4,756,161651,501,-16241,1459,-116,-10,-59
4,757,161656,594,-16197,1443,-113,-3,-58
4,758,161661,714,-16168,1459,-109,1,-58
4,759,161666,798,-16186,1364,-107,9,-55
4,760,161671,801,-16164,1352,-108,18,-54
4,761,161676,833,-16200,1232,-103,28,-53
4,762,161681,773,-16287,1048,-98,48,-52
4,763,161686,799,-16421,947,-98,79,-50
4,764,161691,776,-16570,853,-99,120,-50
4,765,161696,723,-16618,781,-98,157,-51
4,766,161701,658,-16696,806,-99,193,-51
4,767,161706,646,-16679,867,-97,224,-50
4,768,161711,675,-16697,1014,-94,247,-47
4,769,161716,640,-16698,1164,-89,262,-45
4,770,161721,630,-16689,1368,-87,266,-43
4,771,161726,589,-16670,1457,-83,254,-42
4,772,161731,550,-16661,1621,-82,228,-40
4,773,161736,525,-16701,1646,-75,199,-36
4,774,161741,481,-16672,1708,-67,165,-34
4,775,161746,478,-16629,1745,-64,122,-30
4,776,161751,492,-16613,1729,-57,78,-25
4,777,161756,501,-16593,1648,-53,35,-22
4,778,161761,487,-16575,1602,-49,2,-19
4,779,161766,507,-16601,1473,-44,-25,-16
4,780,161771,512,-16599,1303,-38,-38,-10
4,781,161776,481,-16558,1202,-38,-38,-12
4,782,161781,488,-16579,1182,-38,-30,-11
4,783,161786,522,-16633,1114,-39,-14,-9
4,784,161791,549,-16620,995,-37,10,-9
4,785,161796,596,-16577,952,-36,33,-7
4,786,161801,604,-16632,958,-35,55,-6
4,787,161806,624,-16635,933,-31,71,-4
4,788,161811,632,-16657,988,-28,87,-6
4,789,161816,660,-16719,1040,-28,101,-5
4,790,161821,609,-16693,1089,-28,113,-3
4,791,161826,545,-16654,1140,-24,118,1
4,792,161831,559,-16619,1193,-20,117,6
4,793,161836,566,-16575,1234,-16,115,6
4,794,161841,532,-16530,1233,-13,111,6
4,795,161846,538,-16547,1333,-12,104,6
4,796,161851,504,-16514,1318,-11,95,11
4,797,161856,419,-16570,1342,-4,88,13
4,798,161861,420,-16601,1339,-1,86,12
4,799,161866,467,-16591,1314,-2,86,14
4,800,161871,410,-16580,1321,2,81,16
4,801,161876,400,-16553,1334,2,76,15
4,802,161881,372,-16520,1267,3,70,17
4,803,161886,344,-16524,1162,6,69,16
4,804,161891,396,-16544,1117,7,74,15
4,805,161896,372,-16531,1130,8,77,19
4,806,161901,373,-16558,1089,11,78,15
4,807,161906,367,-16561,1126,13,78,15
4,808,161911,396,-16541,1086,14,76,17
4,809,161916,409,-16514,1140,16,75,16
4,810,161921,456,-16525,1194,20,78,13
4,811,161926,487,-16549,1229,20,76,13
4,812,161931,436,-16605,1236,24,74,13
4,813,161936,409,-16599,1257,25,75,14
4,814,161941,456,-16628,1199,26,73,13
4,815,161946,468,-16592,1250,29,67,14
4,816,161951,483,-16571,1257,30,57,12
4,817,161956,502,-16569,1285,32,46,12
4,818,161961,465,-16522,1246,34,36,13
4,819,161966,458,-16514,1211,35,30,14
4,820,161971,474,-16478,1234,36,29,13
4,821,161976,454,-16455,1195,37,26,12
4,822,161981,483,-16444,1141,41,19,15
4,823,161986,499,-16437,1145,44,17,14
4,824,161991,538,-16447,1140,42,19,12
4,825,161996,529,-16481,1093,44,19,13
4,826,162001,619,-16476,1063,44,21,13
4,827,162006,648,-16471,1054,44,27,13
4,828,162011,634,-16476,1061,46,35,10
4,829,162016,627,-16489,1079,48,45,9
4,830,162021,702,-16449,1038,47,53,13
4,831,162026,681,-16448,1013,47,66,14
4,832,162031,705,-16453,1014,47,81,17
4,833,162036,756,-16449,1051,48,92,16
4,834,162041,706,-16469,980,46,108,13
4,835,162046,659,-16468,920,47,121,13
4,836,162051,666,-16455,922,46,136,13
4,837,162056,629,-16473,1009,47,143,16
4,838,162061,576,-16489,1054,47,149,16
4,839,162066,537,-16548,1091,49,150,14
4,840,162071,517,-16552,1097,51,146,14
4,841,162076,443,-16527,1207,48,142,13
4,842,162081,436,-16524,1333,49,130,14
4,843,162086,470,-16514,1397,52,106,13
4,844,162091,442,-16511,1411,55,85,12
4,845,162096,450,-16465,1468,53,61,12
4,846,162101,474,-16432,1509,56,35,17
4,847,162106,461,-16426,1444,60,7,16
4,848,162111,438,-16383,1347,61,-17,15
4,849,162116,446,-16376,1266,62,-35,17
4,850,162121,511,-16378,1174,62,-44,17
4,851,162126,494,-16370,1089,61,-48,17
4,852,162131,504,-16380,1038,61,-46,17
4,853,162136,512,-16360,973,59,-33,15
4,854,162141,486,-16385,946,61,-17,14
4,855,162146,435,-16448,917,59,4,12
4,856,162151,431,-16449,931,56,17,12
4,857,162156,491,-16437,1065,56,23,12
4,858,162161,598,-16430,1167,55,27,11
4,859,162166,653,-16425,1239,56,25,13
4,860,162171,672,-16418,1294,58,20,13
4,861,162176,628,-16384,1320,58,11,16
4,862,162181,588,-16355,1258,57,5,17
4,863,162186,599,-16371,1244,57,-5,14
4,864,162191,621,-16393,1321,59,-14,15
4,865,162196,637,-16385,1306,56,-19,18
4,866,162201,619,-16382,1179,58,-20,18
4,867,162206,569,-16416,1084,56,-19,18
4,868,162211,524,-16384,1106,51,-15,16
4,869,162216,526,-16348,1071,53,-13,18
4,870,162221,448,-16427,1090,51,-2,21
4,871,162226,327,-16509,1042,51,11,15
4,872,162231,281,-16564,1013,49,20,16
4,873,162236,368,-16556,1054,50,30,15
4,874,162241,435,-16503,1252,46,33,14
4,875,162246,510,-16466,1312,45,29,13
4,876,162251,439,-16458,1395,44,20,13
4,877,162256,431,-16466,1310,48,11,14
4,878,162261,391,-16436,1281,46,11,14
4,879,162266,385,-16436,1280,47,6,14
4,880,162271,422,-16428,1255,46,-6,14
4,881,162276,436,-16400,1276,46,-14,14
4,882,162281,455,-16385,1321,47,-19,13
4,883,162286,434,-16352,1312,44,-24,16
4,884,162291,487,-16307,1289,43,-22,16
4,885,162296,519,-16299,1248,43,-19,14
4,886,162301,510,-16312,1251,40,-15,14
4,887,162306,514,-16331,1238,36,-12,13
4,888,162311,434,-16447,1113,36,-12,14
4,889,162316,447,-16556,1115,37,0,13
4,890,162321,536,-16499,1177,33,10,12
4,891,162326,572,-16454,1325,32,13,13
4,892,162331,563,-16445,1336,31,14,12
4,893,162336,535,-16419,1296,29,18,14
4,894,162341,466,-16395,1296,26,20,18
4,895,162346,480,-16427,1276,27,16,19
4,896,162351,538,-16391,1245,27,10,16
4,897,162356,522,-16408,1134,24,8,17
4,898,162361,561,-16462,1079,25,9,19
4,899,162366,572,-16465,1141,25,13,18
4,900,162371,591,-16406,1192,21,19,17
4,901,162376,645,-16413,1151,22,24,18
4,902,162381,656,-16370,1149,21,39,19
4,903,162386,653,-16276,1164,18,47,19
4,904,162391,675,-16274,1212,15,51,22
4,905,162396,720,-16243,1265,13,49,22
4,906,162401,717,-16243,1277,14,51,24
4,907,162406,670,-16225,1285,14,54,23
4,908,162411,668,-16204,1231,11,58,25
4,909,162416,669,-16195,1247,8,63,29
4,910,162421,583,-16257,1242,9,64,29
4,911,162426,516,-16275,1191,4,71,28
4,912,162431,475,-16278,1219,0,84,26
4,913,162436,425,-16356,1222,1,95,27
4,914,162441,353,-16355,1230,-2,104,27
4,915,162446,297,-16368,1337,-4,107,26
4,916,162451,254,-16366,1438,-6,106,25
4,917,162456,268,-16376,1424,-8,99,22
4,918,162461,265,-16401,1435,-12,88,23
4,919,162466,278,-16396,1415,-10,71,26
4,920,162471,205,-16449,1365,-9,55,24
4,921,162476,207,-16475,1339,-13,46,21
4,922,162481,299,-16458,1325,-11,31,22
4,923,162486,241,-16459,1322,-10,28,21
4,924,162491,200,-16467,1261,-15,28,24
4,925,162496,212,-16535,1268,-12,30,22
4,926,162501,212,-16514,1241,-15,25,19
4,927,162506,261,-16535,1272,-19,21,18
4,928,162511,320,-16538,1336,-17,16,17
4,929,162516,315,-16491,1314,-20,11,15
4,930,162521,311,-16572,1251,-20,10,16
4,931,162526,334,-16522,1283,-20,11,17
4,932,162531,305,-16488,1256,-22,8,15
4,933,162536,327,-16506,1250,-20,3,14
4,934,162541,357,-16509,1281,-24,-2,14
4,935,162546,379,-16520,1295,-25,-8,15
4,936,162551,361,-16547,1263,-26,-8,17
4,937,162556,299,-16536,1224,-24,-9,15
4,938,162561,302,-16579,1143,-23,-10,10
4,939,162566,370,-16516,1150,-26,-10,9
4,940,162571,451,-16472,1267,-29,-12,12
4,941,162576,483,-16443,1340,-27,-18,13
4,942,162581,445,-16397,1323,-30,-18,13
4,943,162586,379,-16391,1237,-28,-18,14
4,944,162591,341,-16442,1160,-31,-5,11
4,945,162596,331,-16439,1162,-33,-2,8
4,946,162601,315,-16423,1205,-33,-4,10
4,947,162606,328,-16386,1303,-36,-4,10
4,948,162611,307,-16355,1341,-35,-3,11
4,949,162616,346,-16346,1339,-36,-6,12
4,950,162621,317,-16349,1296,-37,-9,8
4,951,162626,279,-16360,1314,-37,-12,8
4,952,162631,278,-16398,1283,-40,-19,9
4,953,162636,280,-16385,1213,-36,-28,7
4,954,162641,317,-16347,1219,-37,-35,5
4,955,162646,352,-16340,1333,-40,-37,7
4,956,162651,402,-16318,1322,-38,-36,7
4,957,162656,378,-16324,1283,-39,-36,6
4,958,162661,322,-16351,1201,-42,-30,5
4,959,162666,342,-16364,1158,-42,-20,2
4,960,162671,350,-16397,1155,-42,-10,3
4,961,162676,357,-16453,1166,-47,-3,2
4,962,162681,408,-16444,1192,-47,-2,2
4,963,162686,384,-16389,1185,-44,-3,4
4,964,162691,379,-16382,1260,-42,-2,1
4,965,162696,375,-16391,1245,-45,-6,1
4,966,162701,318,-16417,1192,-44,-11,0
4,967,162706,252,-16436,1230,-43,-17,1
4,968,162711,288,-16468,1206,-42,-20,-1
4,969,162716,285,-16443,1236,-44,-24,-1
4,970,162721,289,-16414,1319,-45,-31,-1
4,971,162726,347,-16404,1373,-42,-35,-1
4,972,162731,346,-16373,1317,-40,-40,-1
4,973,162736,342,-16411,1229,-43,-39,-3
4,974,162741,329,-16416,1165,-41,-40,-3
4,975,162746,302,-16414,1149,-42,-38,-4
4,976,162751,308,-16429,1117,-44,-36,-2
4,977,162756,358,-16397,1116,-43,-33,-5
4,978,162761,351,-16400,1128,-43,-29,-6
4,979,162766,369,-16403,1038,-42,-20,-6
4,980,162771,342,-16434,974,-43,-8,-7
4,981,162776,272,-16486,913,-43,2,-8
4,982,162781,270,-16528,901,-42,16,-7
4,983,162786,306,-16508,993,-44,32,-8
4,984,162791,354,-16507,1135,-44,40,-8
4,985,162796,394,-16499,1203,-43,42,-9
4,986,162801,419,-16496,1292,-42,39,-10
4,987,162806,460,-16456,1288,-42,34,-10
4,988,162811,388,-16494,1305,-39,28,-10
4,989,162816,330,-16549,1320,-39,20,-10
4,990,162821,289,-16558,1306,-36,5,-11
4,991,162826,285,-16576,1287,-38,-14,-9
4,992,162831,288,-16577,1359,-34,-32,-11
4,993,162836,276,-16602,1391,-32,-52,-9
4,994,162841,323,-16555,1277,-31,-63,-8
4,995,162846,295,-16538,1176,-32,-72,-9
4,996,162851,263,-16510,1105,-30,-81,-8
4,997,162856,236,-16486,1040,-31,-82,-10
4,998,162861,268,-16530,992,-30,-79,-10
4,999,162866,326,-16523,1009,-26,-66,-9
