event_id,seq,ts_us,ax,ay,az,gx,gy,gz
1,0,27249,848,-15837,-4340,-46,-32,38
1,1,27254,1048,-15838,-4578,-37,-35,25
1,2,27259,973,-15833,-4703,-34,-32,19
1,3,27264,749,-15730,-4476,-33,-44,18
1,4,27269,724,-15736,-4311,-37,-79,30
1,5,27274,728,-15862,-4294,-40,-88,33
1,6,27279,708,-15884,-4354,-35,-89,32
1,7,27284,738,-15940,-4384,-31,-97,32
1,8,27289,562,-15889,-4475,-30,-98,25
1,9,27294,587,-15960,-4614,-30,-98,25
1,10,27299,703,-15788,-4682,-24,-83,22
1,11,27304,880,-15704,-4738,-26,-56,27
1,12,27309,892,-15789,-4771,-27,-28,29
1,13,27314,696,-15732,-4682,-28,-1,20
1,14,27319,559,-15717,-4594,-27,9,20
1,15,27324,577,-15705,-4580,-26,5,21
1,16,27329,654,-15712,-4589,-24,5,24
1,17,27334,643,-15741,-4553,-23,8,19
1,18,27339,580,-15767,-4395,-22,5,15
1,19,27344,615,-15763,-4414,-18,-10,12
1,20,27349,640,-15719,-4471,-17,-25,12
1,21,27354,716,-15748,-4544,-15,-28,14
1,22,27359,756,-15794,-4547,-13,-28,12
1,23,27364,741,-15777,-4479,-14,-29,10
1,24,27369,791,-15794,-4419,-16,-26,9
1,25,27374,786,-15802,-4513,-14,-20,5
1,26,27379,843,-15841,-4548,-12,-6,6
1,27,27384,808,-15853,-4479,-11,16,5
1,28,27389,763,-15827,-4399,-14,31,2
1,29,27394,799,-15888,-4369,-15,36,0
1,30,27399,741,-15893,-4348,-14,40,-2
1,31,27404,710,-15793,-4332,-14,38,-4
1,32,27409,633,-15736,-4352,-13,30,-5
1,33,27414,628,-15785,-4446,-13,18,0
1,34,27419,739,-15844,-4417,-14,3,0
1,35,27424,851,-15816,-4426,-12,-3,3
1,36,27429,941,-15871,-4534,-12,2,4
1,37,27434,937,-15856,-4621,-14,19,-1
1,38,27439,904,-15798,-4660,-13,37,-5
1,39,27444,864,-15711,-4671,-10,54,-5
1,40,27449,882,-15738,-4631,-9,68,-1
1,41,27454,827,-15767,-4526,-11,78,-2
1,42,27459,740,-15771,-4419,-10,80,-8
1,43,27464,652,-15743,-4362,-9,63,-8
1,44,27469,629,-15687,-4360,-6,40,-9
1,45,27474,666,-15653,-4381,-4,14,-11
1,46,27479,713,-15685,-4434,-3,-12,-8
1,47,27484,776,-15697,-4382,-1,-38,-6
1,48,27489,790,-15787,-4388,-2,-63,-6
1,49,27494,842,-15859,-4542,-2,-77,-9
1,50,27499,898,-15854,-4621,-1,-79,-11
1,51,27504,997,-15820,-4689,-1,-70,-14
1,52,27509,1030,-15855,-4748,-1,-49,-9
1,53,27514,972,-15865,-4744,-1,-25,-8
1,54,27519,820,-15855,-4677,-2,4,-13
1,55,27524,795,-15823,-4658,-3,25,-17
1,56,27529,603,-15661,-4650,-3,35,-5
1,57,27534,916,-15873,-4706,-8,25,6
1,58,27539,902,-15709,-4684,1,46,-17
1,59,27544,666,-15634,-4430,-1,60,-25
1,60,27549,814,-15595,-4559,-1,44,-21
1,61,27554,795,-15615,-4644,-6,41,-17
1,62,27559,659,-15604,-4413,-9,34,-20
1,63,27564,716,-15663,-4334,-10,3,-18
1,64,27569,798,-15621,-4399,-8,-24,-15
1,65,27574,791,-15606,-4443,-4,-36,-19
1,66,27579,735,-15608,-4540,-3,-47,-25
1,67,27584,731,-15606,-4611,-3,-59,-27
1,68,27589,780,-15632,-4578,-3,-67,-26
1,69,27594,934,-15680,-4556,-7,-67,-23
1,70,27599,1034,-15750,-4645,-9,-56,-21
1,71,27604,980,-15769,-4735,-6,-29,-24
1,72,27609,906,-15781,-4707,-9,-8,-26
1,73,27614,818,-15737,-4651,-13,8,-27
1,74,27619,721,-15746,-4645,-15,22,-28
1,75,27624,753,-15797,-4645,-17,36,-28
1,76,27629,844,-15783,-4599,-16,51,-27
1,77,27634,892,-15747,-4603,-20,59,-25
1,78,27639,858,-15735,-4610,-22,62,-27
1,79,27644,782,-15689,-4553,-22,63,-32
1,80,27649,708,-15664,-4522,-20,62,-34
1,81,27654,692,-15584,-4486,-21,54,-34
1,82,27659,673,-15589,-4452,-20,36,-31
1,83,27664,689,-15590,-4391,-19,9,-32
1,84,27669,706,-15595,-4340,-20,-24,-30
1,85,27674,781,-15599,-4400,-19,-54,-28
1,86,27679,810,-15632,-4542,-16,-77,-28
1,87,27684,854,-15640,-4603,-15,-93,-28
1,88,27689,818,-15678,-4558,-16,-108,-27
1,89,27694,813,-15777,-4567,-18,-123,-25
1,90,27699,840,-15832,-4659,-18,-133,-24
1,91,27704,863,-15862,-4722,-18,-128,-23
1,92,27709,933,-15897,-4766,-20,-106,-22
1,93,27714,994,-15854,-4834,-20,-78,-19
1,94,27719,988,-15812,-4847,-22,-48,-19
1,95,27724,876,-15817,-4764,-22,-16,-22
1,96,27729,774,-15804,-4703,-25,7,-22
1,97,27734,755,-15820,-4599,-27,23,-18
1,98,27739,736,-15778,-4632,-25,38,-17
1,99,27744,716,-15760,-4627,-25,48,-16
1,100,27749,705,-15787,-4655,-26,51,-15
1,101,27754,623,-15859,-4591,-26,47,-17
1,102,27759,555,-15929,-4517,-23,38,-17
1,103,27764,592,-15924,-4485,-23,28,-16
1,104,27769,617,-15995,-4449,-19,11,-15
1,105,27774,582,-16004,-4498,-19,-11,-14
1,106,27779,495,-15946,-4523,-18,-37,-15
1,107,27784,480,-15925,-4517,-17,-66,-15
1,108,27789,557,-15937,-4572,-14,-89,-12
1,109,27794,617,-15960,-4660,-15,-97,-12
1,110,27799,684,-15951,-4769,-14,-95,-12
1,111,27804,790,-15915,-4905,-14,-81,-11
1,112,27809,942,-15784,-4938,-16,-53,-7
1,113,27814,975,-15734,-4915,-14,-18,-4
1,114,27819,878,-15675,-4840,-16,23,-6
1,115,27824,646,-15674,-4740,-16,57,-13
1,116,27829,465,-15659,-4590,-15,66,-14
1,117,27834,537,-15667,-4566,-15,55,-8
1,118,27839,602,-15627,-4589,-13,41,-4
1,119,27844,722,-15578,-4579,-15,32,-5
1,120,27849,719,-15539,-4579,-11,22,-4
1,121,27854,721,-15547,-4624,-9,15,-4
1,122,27859,722,-15497,-4649,-11,16,-5
1,123,27864,794,-15497,-4600,-13,17,-5
1,124,27869,824,-15519,-4488,-12,16,-1
1,125,27874,761,-15596,-4443,-13,8,-1
1,126,27879,713,-15619,-4449,-10,-4,-2
1,127,27884,729,-15607,-4504,-7,-22,-1
1,128,27889,780,-15608,-4581,-8,-35,1
1,129,27894,858,-15611,-4643,-10,-39,4
1,130,27899,974,-15538,-4608,-9,-36,6
1,131,27904,981,-15499,-4567,-7,-31,7
1,132,27909,922,-15499,-4645,-7,-21,7
1,133,27914,841,-15527,-4693,-5,-6,7
1,134,27919,851,-15534,-4646,-7,5,8
1,135,27924,807,-15559,-4611,-11,10,10
1,136,27929,841,-15576,-4612,-12,11,10
1,137,27934,897,-15562,-4615,-11,20,13
1,138,27939,965,-15540,-4664,-14,34,14
1,139,27944,940,-15524,-4615,-13,47,14
1,140,27949,820,-15537,-4600,-14,56,13
1,141,27954,682,-15510,-4527,-14,55,12
1,142,27959,678,-15518,-4489,-15,44,12
1,143,27964,750,-15526,-4533,-15,30,14
1,144,27969,825,-15553,-4675,-12,20,17
1,145,27974,809,-15514,-4658,-13,15,16
1,146,27979,838,-15485,-4655,-13,7,16
1,147,27984,819,-15536,-4662,-11,-2,15
1,148,27989,755,-15568,-4638,-10,-4,14
1,149,27994,787,-15551,-4626,-11,-12,15
1,150,27999,872,-15531,-4657,-10,-19,19
1,151,28004,899,-15509,-4682,-9,-24,21
1,152,28009,898,-15501,-4654,-8,-25,18
1,153,28014,821,-15547,-4644,-10,-29,18
1,154,28019,783,-15555,-4627,-9,-36,17
1,155,28024,703,-15616,-4584,-7,-45,13
1,156,28029,670,-15646,-4602,-7,-52,14
1,157,28034,769,-15678,-4725,-10,-49,18
1,158,28039,906,-15602,-4834,-9,-37,20
1,159,28044,967,-15563,-4838,-9,-16,20
1,160,28049,922,-15591,-4884,-9,15,17
1,161,28054,807,-15635,-4844,-8,42,14
1,162,28059,761,-15585,-4751,-10,60,14
1,163,28064,778,-15596,-4673,-12,69,15
1,164,28069,770,-15593,-4608,-11,78,16
1,165,28074,689,-15653,-4608,-12,80,13
1,166,28079,598,-15692,-4617,-10,74,10
1,167,28084,576,-15686,-4571,-9,58,9
1,168,28089,660,-15619,-4516,-9,39,10
1,169,28094,723,-15632,-4437,-9,20,11
1,170,28099,700,-15666,-4440,-6,-1,9
1,171,28104,683,-15637,-4570,-4,-22,8
1,172,28109,748,-15640,-4680,-3,-40,8
1,173,28114,824,-15605,-4771,-5,-57,8
1,174,28119,926,-15593,-4746,-6,-63,9
1,175,28124,961,-15565,-4809,-5,-55,10
1,176,28129,952,-15643,-4905,-5,-45,10
1,177,28134,920,-15618,-4883,-2,-33,9
1,178,28139,902,-15608,-4855,-4,-19,8
1,179,28144,891,-15570,-4837,-4,2,8
1,180,28149,925,-15619,-4858,-4,25,8
1,181,28154,1007,-15705,-4846,-6,51,8
1,182,28159,890,-15690,-4708,-8,74,4
1,183,28164,770,-15705,-4637,-9,87,2
1,184,28169,708,-15705,-4601,-8,90,2
1,185,28174,708,-15674,-4589,-6,89,3
1,186,28179,735,-15603,-4572,-6,84,2
1,187,28184,747,-15619,-4491,-7,67,2
1,188,28189,799,-15699,-4446,-7,43,3
1,189,28194,830,-15713,-4488,-6,20,3
1,190,28199,841,-15672,-4504,-3,-5,1
1,191,28204,829,-15644,-4514,-3,-24,1
1,192,28209,903,-15665,-4551,-2,-38,2
1,193,28214,998,-15688,-4583,-2,-48,6
1,194,28219,1068,-15723,-4612,-4,-57,7
1,195,28224,1083,-15725,-4629,-3,-61,5
1,196,28229,1005,-15722,-4649,-3,-55,5
1,197,28234,875,-15730,-4709,-3,-46,5
1,198,28239,846,-15761,-4758,-3,-34,3
1,199,28244,873,-15749,-4795,-5,-22,3
1,200,28249,957,-15728,-4750,-7,-5,3
1,201,28254,899,-15733,-4707,-6,15,2
1,202,28259,800,-15742,-4723,-7,31,6
1,203,28264,744,-15730,-4800,-4,45,7
1,204,28269,670,-15743,-4715,-7,52,3
1,205,28274,704,-15708,-4596,-7,49,0
1,206,28279,781,-15702,-4524,-6,39,-1
1,207,28284,746,-15684,-4537,-4,33,0
1,208,28289,710,-15725,-4627,-3,28,-2
1,209,28294,668,-15746,-4706,-4,17,-3
1,210,28299,701,-15723,-4616,-5,4,-1
1,211,28304,797,-15694,-4556,-4,-9,3
1,212,28309,914,-15719,-4625,-1,-13,3
1,213,28314,921,-15684,-4737,2,-9,0
1,214,28319,772,-15678,-4776,2,-10,-3
1,215,28324,738,-15640,-4678,1,-21,2
1,216,28329,835,-15739,-4657,2,-26,2
1,217,28334,823,-15731,-4698,3,-26,-2
1,218,28339,743,-15748,-4734,2,-24,-4
1,219,28344,736,-15695,-4767,3,-20,-4
1,220,28349,813,-15696,-4862,2,-9,-6
1,221,28354,802,-15680,-4812,2,9,-5
1,222,28359,808,-15711,-4754,3,24,-5
1,223,28364,759,-15714,-4700,3,38,-7
1,224,28369,716,-15730,-4702,3,48,-8
1,225,28374,646,-15722,-4703,2,57,-10
1,226,28379,644,-15709,-4699,1,64,-12
1,227,28384,687,-15656,-4654,1,67,-9
1,228,28389,756,-15641,-4651,1,66,-6
1,229,28394,722,-15659,-4605,1,67,-8
1,230,28399,714,-15650,-4606,2,61,-12
1,231,28404,689,-15661,-4613,4,52,-13
1,232,28409,703,-15646,-4597,3,38,-12
1,233,28414,783,-15651,-4552,5,21,-13
1,234,28419,861,-15661,-4532,5,6,-10
1,235,28424,870,-15689,-4561,4,-3,-8
1,236,28429,851,-15738,-4562,6,-9,-9
1,237,28434,854,-15707,-4589,7,-14,-10
1,238,28439,835,-15677,-4573,5,-10,-11
1,239,28444,801,-15720,-4604,6,-13,-10
1,240,28449,787,-15739,-4563,6,-15,-9
1,241,28454,755,-15864,-4645,4,-16,-8
1,242,28459,864,-15893,-4737,5,-12,-8
1,243,28464,1075,-15821,-4836,2,6,-5
1,244,28469,1152,-15697,-4768,0,33,-4
1,245,28474,1014,-15722,-4738,-2,60,-8
1,246,28479,741,-15722,-4645,-3,76,-13
1,247,28484,548,-15674,-4542,-2,71,-14
1,248,28489,553,-15645,-4465,0,46,-8
1,249,28494,693,-15636,-4541,2,18,-4
1,250,28499,850,-15628,-4617,5,-4,-1
1,251,28504,927,-15614,-4725,5,-20,-1
1,252,28509,916,-15732,-4792,5,-27,-2
1,253,28514,867,-15811,-4788,1,-24,-7
1,254,28519,977,-15797,-4699,0,-12,-5
1,255,28524,1107,-15733,-4606,0,8,2
1,256,28529,1065,-15688,-4651,-1,30,3
1,257,28534,882,-15674,-4636,-1,47,0
1,258,28539,708,-15688,-4551,-3,43,-3
1,259,28544,650,-15692,-4459,-3,22,-3
1,260,28549,683,-15652,-4442,-2,-5,-2
1,261,28554,877,-15638,-4518,1,-23,2
1,262,28559,960,-15664,-4671,0,-30,5
1,263,28564,947,-15684,-4762,1,-30,4
1,264,28569,923,-15677,-4770,0,-25,0
1,265,28574,895,-15663,-4753,-1,-16,-2
1,266,28579,829,-15664,-4752,-2,-10,1
1,267,28584,826,-15634,-4759,-3,-2,4
1,268,28589,810,-15665,-4818,-3,4,3
1,269,28594,854,-15676,-4820,-4,7,5
1,270,28599,891,-15674,-4754,-7,7,4
1,271,28604,848,-15645,-4683,-4,6,5
1,272,28609,798,-15676,-4722,-3,10,3
1,273,28614,739,-15700,-4766,-3,19,3
1,274,28619,776,-15715,-4780,-3,25,4
1,275,28624,806,-15671,-4669,-6,34,2
1,276,28629,885,-15669,-4565,-8,41,1
1,277,28634,761,-15723,-4556,-8,42,0
1,278,28639,653,-15763,-4505,-6,41,-1
1,279,28644,628,-15700,-4499,-5,32,-3
1,280,28649,667,-15693,-4545,-5,13,-1
1,281,28654,713,-15692,-4580,-6,-7,1
1,282,28659,772,-15742,-4643,-5,-23,2
1,283,28664,854,-15743,-4675,-5,-32,0
1,284,28669,935,-15725,-4719,-6,-31,0
1,285,28674,951,-15722,-4770,-7,-21,-3
1,286,28679,892,-15700,-4825,-7,-5,-3
1,287,28684,808,-15645,-4797,-8,5,-1
1,288,28689,786,-15602,-4717,-8,11,0
1,289,28694,804,-15619,-4622,-7,9,-1
1,290,28699,819,-15651,-4631,-6,8,-2
1,291,28704,790,-15689,-4683,-9,4,-4
1,292,28709,778,-15626,-4668,-8,-7,-6
1,293,28714,806,-15637,-4659,-7,-13,-6
1,294,28719,837,-15688,-4695,-7,-11,-6
1,295,28724,904,-15663,-4780,-8,-2,-5
1,296,28729,969,-15572,-4829,-9,11,-3
1,297,28734,985,-15545,-4794,-9,28,-4
1,298,28739,908,-15552,-4751,-9,42,-5
1,299,28744,815,-15493,-4644,-10,49,-5
1,300,28749,804,-15551,-4541,-9,46,-5
1,301,28754,758,-15594,-4474,-11,34,-5
1,302,28759,722,-15609,-4444,-10,13,-6
1,303,28764,748,-15665,-4512,-8,-11,-7
1,304,28769,813,-15645,-4606,-7,-31,-8
1,305,28774,909,-15659,-4713,-8,-38,-6
1,306,28779,984,-15684,-4799,-8,-34,-5
1,307,28784,1040,-15712,-4836,-8,-19,-4
1,308,28789,1012,-15679,-4852,-10,-2,-6
1,309,28794,995,-15679,-4768,-9,14,-6
1,310,28799,949,-15699,-4772,-9,30,-6
1,311,28804,918,-15727,-4799,-10,42,-5
1,312,28809,899,-15687,-4745,-10,50,-5
1,313,28814,854,-15697,-4671,-10,53,-5
1,314,28819,840,-15692,-4631,-9,51,-7
1,315,28824,824,-15701,-4616,-10,51,-6
1,316,28829,810,-15749,-4672,-10,50,-10
1,317,28834,781,-15717,-4602,-9,45,-8
1,318,28839,891,-15696,-4607,-9,42,-6
1,319,28844,951,-15706,-4644,-9,39,-5
1,320,28849,925,-15698,-4645,-9,34,-5
1,321,28854,959,-15716,-4667,-7,28,-4
1,322,28859,922,-15736,-4620,-8,26,-8
1,323,28864,915,-15691,-4554,-9,24,-8
1,324,28869,852,-15707,-4524,-9,15,-3
1,325,28874,802,-15703,-4528,-10,-4,0
1,326,28879,882,-15691,-4543,-6,-22,0
1,327,28884,889,-15647,-4601,-4,-34,-2
1,328,28889,961,-15602,-4677,-3,-37,-3
1,329,28894,960,-15615,-4762,-3,-35,-3
1,330,28899,936,-15652,-4768,-6,-31,-4
1,331,28904,917,-15619,-4709,-6,-26,-3
1,332,28909,912,-15640,-4653,-7,-17,-3
1,333,28914,937,-15623,-4726,-6,-3,-3
1,334,28919,889,-15620,-4724,-7,12,-6
1,335,28924,857,-15591,-4657,-6,20,-7
1,336,28929,808,-15579,-4651,-6,19,-6
1,337,28934,835,-15571,-4642,-7,20,-7
1,338,28939,858,-15572,-4661,-6,23,-6
1,339,28944,892,-15511,-4643,-6,26,-2
1,340,28949,878,-15487,-4608,-6,30,-4
1,341,28954,753,-15516,-4624,-5,23,-7
1,342,28959,706,-15509,-4574,-3,3,-8
1,343,28964,752,-15482,-4551,-3,-13,-6
1,344,28969,847,-15522,-4621,-2,-27,-4
1,345,28974,885,-15549,-4680,-2,-31,-4
1,346,28979,877,-15565,-4598,-2,-35,-7
1,347,28984,862,-15597,-4593,-2,-41,-7
1,348,28989,912,-15585,-4597,-1,-43,-9
1,349,28994,942,-15629,-4649,-2,-39,-7
1,350,28999,907,-15644,-4704,-1,-28,-6
1,351,29004,849,-15702,-4755,-1,-19,-8
1,352,29009,863,-15666,-4751,-2,-12,-9
1,353,29014,903,-15666,-4740,-2,-6,-7
1,354,29019,920,-15651,-4703,-1,1,-9
1,355,29024,881,-15643,-4759,-2,7,-9
1,356,29029,832,-15657,-4757,-1,8,-8
1,357,29034,832,-15700,-4696,-1,7,-9
1,358,29039,877,-15698,-4672,-1,3,-8
1,359,29044,943,-15713,-4660,0,7,-6
1,360,29049,940,-15705,-4677,0,10,-8
1,361,29054,917,-15721,-4688,2,13,-8
1,362,29059,888,-15698,-4637,1,17,-8
1,363,29064,879,-15739,-4649,1,18,-7
1,364,29069,892,-15797,-4667,4,16,-7
1,365,29074,887,-15756,-4639,1,11,-7
1,366,29079,886,-15694,-4588,0,4,-7
1,367,29084,895,-15699,-4695,4,-4,-7
1,368,29089,879,-15735,-4746,5,-8,-8
1,369,29094,886,-15702,-4723,4,-15,-5
1,370,29099,1091,-15700,-4761,5,-30,-4
1,371,29104,1067,-15718,-4847,8,-24,-2
1,372,29109,993,-15732,-4827,5,-9,-3
1,373,29114,923,-15731,-4726,3,3,-5
1,374,29119,903,-15695,-4637,4,12,-2
1,375,29124,906,-15691,-4682,6,16,-2
1,376,29129,868,-15714,-4699,6,19,-4
1,377,29134,805,-15695,-4732,5,20,-8
1,378,29139,840,-15645,-4658,4,22,-7
1,379,29144,875,-15629,-4626,3,28,-3
1,380,29149,863,-15619,-4649,5,32,-4
1,381,29154,877,-15565,-4663,4,32,-5
1,382,29159,858,-15516,-4657,3,30,-8
1,383,29164,868,-15535,-4654,3,27,-6
1,384,29169,872,-15484,-4715,4,27,-5
1,385,29174,884,-15452,-4766,4,30,-7
1,386,29179,817,-15478,-4695,1,26,-6
1,387,29184,795,-15463,-4608,0,19,-6
1,388,29189,747,-15481,-4595,1,14,-6
1,389,29194,697,-15433,-4600,4,8,-7
1,390,29199,678,-15399,-4568,3,-2,-4
1,391,29204,775,-15423,-4540,-1,-15,-2
1,392,29209,889,-15480,-4435,-1,-33,2
1,393,29214,840,-15554,-4525,-1,-46,4
1,394,29219,766,-15619,-4567,-4,-48,1
1,395,29224,856,-15557,-4509,-7,-47,7
1,396,29229,1042,-15604,-4421,-12,-41,17
1,397,29234,1082,-15677,-4444,-15,-28,21
1,398,29239,996,-15741,-4421,-19,-12,22
1,399,29244,872,-15693,-4355,-25,-10,27
1,400,29249,732,-15738,-4391,-30,-15,34
1,401,29254,599,-15705,-4442,-32,-19,40
1,402,29259,548,-15578,-4375,-36,-36,48
1,403,29264,360,-15514,-4370,-35,-71,55
1,404,29269,162,-15436,-4576,-35,-115,59
1,405,29274,108,-15309,-4730,-39,-152,67
1,406,29279,209,-15195,-4884,-40,-183,80
1,407,29284,204,-15173,-4945,-42,-208,91
1,408,29289,15,-15231,-5117,-40,-225,94
1,409,29294,-119,-15290,-5308,-39,-235,101
1,410,29299,-9,-15329,-5555,-41,-236,115
1,411,29304,182,-15490,-5650,-48,-218,132
1,412,29309,308,-15552,-5527,-55,-174,147
1,413,29314,294,-15546,-5389,-57,-123,156
1,414,29319,109,-15535,-5374,-56,-84,166
1,415,29324,-275,-15607,-5426,-59,-61,172
1,416,29329,-658,-15618,-5313,-64,-49,179
1,417,29334,-758,-15629,-5052,-71,-55,196
1,418,29339,-620,-15582,-4869,-75,-73,218
1,419,29344,-393,-15589,-4944,-73,-85,235
1,420,29349,-336,-15608,-5130,-72,-92,245
1,421,29354,-565,-15521,-5141,-74,-100,251
1,422,29359,-789,-15484,-5062,-80,-118,265
1,423,29364,-753,-15548,-4989,-85,-142,286
1,424,29369,-517,-15614,-5048,-87,-154,306
1,425,29374,-447,-15640,-5312,-91,-149,320
1,426,29379,-454,-15638,-5542,-95,-123,328
1,427,29384,-399,-15511,-5599,-100,-83,345
1,428,29389,-268,-15408,-5721,-106,-34,370
1,429,29394,-24,-15367,-5762,-112,26,389
1,430,29399,-247,-15520,-5673,-117,100,406
1,431,29404,-695,-15442,-5433,-121,161,398
1,432,29409,-1052,-15434,-5238,-128,172,412
1,433,29414,-946,-15447,-5269,-132,160,440
1,434,29419,-618,-15337,-5302,-133,179,462
1,435,29424,-417,-15254,-5168,-141,216,468
1,436,29429,-658,-15212,-5024,-143,231,471
1,437,29434,-989,-15273,-4927,-148,207,476
1,438,29439,-1052,-15365,-5025,-149,169,484
1,439,29444,-765,-15401,-5216,-155,172,474
1,440,29449,-897,-15290,-5047,-160,206,485
1,441,29454,-698,-15324,-4929,-166,200,506
1,442,29459,-369,-15348,-5277,-170,183,527
1,443,29464,-69,-15724,-5899,-171,219,538
1,444,29469,-409,-15250,-5418,-156,326,532
1,445,29474,-1112,-15221,-5053,-176,398,509
1,446,29479,-1488,-15166,-4779,-213,368,488
1,447,29484,-1952,-15013,-4740,-223,268,535
1,448,29489,-2130,-14987,-4953,-233,101,623
1,449,29494,-1903,-15106,-5032,-245,-69,724
1,450,29499,-944,-15288,-5224,-255,-166,781
1,451,29504,-12,-15439,-5404,-256,-133,788
1,452,29509,-312,-15355,-5361,-250,-11,746
1,453,29514,-737,-15377,-5406,-254,59,719
1,454,29519,-1262,-15386,-5432,-259,61,728
1,455,29524,-1432,-15429,-5496,-270,36,740
1,456,29529,-1395,-15455,-5382,-279,28,746
1,457,29534,-1221,-15503,-5216,-286,29,758
1,458,29539,-1262,-15416,-5046,-291,11,772
1,459,29544,291,-15875,-5780,-289,0,800
1,460,29549,-735,-15553,-5668,-278,128,758
1,461,29554,-123,-16085,-6055,-308,226,681
1,462,29559,-977,-15390,-5408,-284,385,652
1,463,29564,-1736,-15659,-5226,-328,462,586
1,464,29569,-2099,-15801,-5460,-339,394,600
1,465,29574,-1634,-15455,-5591,-309,284,685
1,466,29579,-1498,-15670,-5678,-329,227,733
1,467,29584,-1446,-15807,-5717,-345,224,726
1,468,29589,-1700,-15821,-5599,-348,218,727
1,469,29594,-1922,-15927,-5628,-357,198,737
1,470,29599,-1849,-15948,-5684,-354,158,774
1,471,29604,-2677,-15740,-5202,-355,93,795
1,472,29609,-2775,-16094,-5309,-374,-49,819
1,473,29614,-1909,-16160,-5606,-350,-186,885
1,474,29619,-670,-16127,-5931,-341,-192,887
1,475,29624,145,-16302,-6190,-351,-53,829
1,476,29629,-117,-16181,-6107,-354,141,750
1,477,29634,-1124,-16188,-6032,-362,275,694
1,478,29639,-2004,-16121,-6067,-364,314,679
1,479,29644,-2069,-15978,-6192,-368,300,662
1,480,29649,-1978,-15963,-6098,-383,262,664
1,481,29654,-1623,-15923,-5680,-381,209,696
1,482,29659,-1490,-15823,-5468,-374,175,706
1,483,29664,-1848,-15816,-5580,-371,150,691
1,484,29669,-1973,-15755,-5929,-366,94,677
1,485,29674,-2120,-15545,-5747,-360,23,682
1,486,29679,-1949,-15660,-5560,-365,-74,687
1,487,29684,-1737,-15691,-5584,-351,-160,698
1,488,29689,-1364,-15534,-5913,-339,-188,687
1,489,29694,-1395,-15403,-6224,-336,-159,657
1,490,29699,-1399,-15357,-6360,-333,-130,632
1,491,29704,-1715,-15282,-6250,-331,-108,613
1,492,29709,-2094,-15293,-5957,-338,-103,593
1,493,29714,-2085,-15324,-5943,-340,-134,582
1,494,29719,-1800,-15217,-6055,-323,-176,603
1,495,29724,-1576,-15235,-6056,-315,-181,594
1,496,29729,-1787,-15146,-6065,-314,-178,556
1,497,29734,-2048,-15032,-6047,-305,-225,532
1,498,29739,-1941,-15019,-6246,-302,-298,526
1,499,29744,-1439,-15037,-6544,-292,-314,523
1,500,29749,-1235,-14838,-6642,-285,-245,488
1,501,29754,-1547,-14790,-6460,-289,-173,442
1,502,29759,-1900,-14737,-6339,-285,-172,417
1,503,29764,-1713,-14757,-6433,-279,-218,406
1,504,29769,-1302,-14638,-6452,-262,-224,389
1,505,29774,-1383,-14578,-6325,-255,-171,337
1,506,29779,-1843,-14586,-6138,-251,-124,285
1,507,29784,-2225,-14512,-5980,-237,-133,245
1,508,29789,-2472,-14523,-5959,-227,-187,221
1,509,29794,-2583,-14533,-6067,-215,-257,198
1,510,29799,-2539,-14553,-6402,-202,-303,180
1,511,29804,-2216,-14569,-6629,-197,-296,163
1,512,29809,-1646,-14541,-6663,-193,-263,154
1,513,29814,-1227,-14532,-6535,-181,-218,145
1,514,29819,-1150,-14634,-6587,-174,-157,109
1,515,29824,-1725,-14725,-6608,-165,-79,65
1,516,29829,-2353,-14632,-6406,-158,-10,25
1,517,29834,-2703,-14551,-6165,-149,23,-2
1,518,29839,-2643,-14540,-6017,-138,5,-15
1,519,29844,-2535,-14565,-5988,-124,-49,-26
1,520,29849,-2434,-14542,-6065,-113,-117,-39
1,521,29854,-2447,-14422,-6158,-98,-185,-41
1,522,29859,-2456,-14412,-6144,-83,-224,-47
1,523,29864,-2360,-14373,-6095,-69,-242,-59
1,524,29869,-2429,-14368,-6111,-52,-261,-83
1,525,29874,-2443,-14364,-6196,-40,-289,-110
1,526,29879,-2161,-14099,-6025,-16,-379,-137
1,527,29884,-2102,-14427,-6301,-17,-396,-149
1,528,29889,-2018,-14400,-6394,-4,-381,-175
1,529,29894,-1973,-14297,-6210,8,-359,-199
1,530,29899,-1867,-14353,-6181,21,-357,-221
1,531,29904,-1914,-14508,-6212,34,-353,-249
1,532,29909,-1942,-14560,-6265,47,-329,-285
1,533,29914,-1831,-14525,-6193,59,-289,-325
1,534,29919,-1632,-14530,-6202,66,-252,-359
1,535,29924,-1308,-14511,-6107,79,-215,-384
1,536,29929,-1256,-14468,-6024,95,-180,-408
1,537,29934,-1392,-14462,-5953,111,-149,-440
1,538,29939,-1732,-14453,-5872,129,-119,-485
1,539,29944,-2128,-14485,-5823,144,-102,-524
1,540,29949,-2255,-14457,-5664,158,-110,-553
1,541,29954,-2023,-14466,-5513,167,-139,-566
1,542,29959,-1481,-14500,-5652,178,-163,-569
1,543,29964,-959,-14545,-5859,190,-162,-563
1,544,29969,-773,-14599,-6079,201,-138,-569
1,545,29974,-890,-14610,-6135,211,-86,-588
1,546,29979,-1076,-14828,-6056,220,-20,-618
1,547,29984,-1017,-14871,-5949,228,50,-666
1,548,29989,-838,-14776,-5781,239,120,-715
1,549,29994,-795,-14668,-5635,255,171,-750
1,550,29999,-990,-14632,-5705,269,203,-790
1,551,30004,-1190,-14646,-5729,278,215,-822
1,552,30009,-1389,-14653,-5406,288,199,-848
1,553,30014,-1464,-14725,-5072,298,151,-864
1,554,30019,-1513,-15021,-4983,309,89,-882
1,555,30024,-1502,-15333,-5152,323,38,-905
1,556,30029,-1203,-15508,-5245,331,-2,-926
1,557,30034,-862,-15682,-5230,337,-34,-938
1,558,30039,-818,-15872,-5297,344,-45,-961
1,559,30044,-826,-16027,-5449,346,-22,-992
1,560,30049,-816,-16016,-5469,350,4,-1016
1,561,30054,-653,-16150,-5461,356,20,-1030
1,562,30059,-667,-16259,-5469,357,30,-1051
1,563,30064,-832,-16283,-5405,358,39,-1079
1,564,30069,-913,-16147,-5307,361,51,-1098
1,565,30074,-723,-16090,-5404,363,63,-1102
1,566,30079,-419,-16079,-5435,363,72,-1108
1,567,30084,-380,-16121,-5315,362,67,-1122
1,568,30089,-614,-16246,-4975,364,33,-1147
1,569,30094,-837,-16323,-5009,368,-18,-1168
1,570,30099,-987,-16246,-5350,372,-68,-1181
1,571,30104,-874,-16194,-5754,376,-102,-1188
1,572,30109,-465,-16212,-5857,370,-120,-1188
1,573,30114,-75,-16277,-5796,364,-132,-1188
1,574,30119,77,-16412,-5833,363,-129,-1197
1,575,30124,-157,-16443,-6049,363,-96,-1218
1,576,30129,-404,-16290,-6136,362,-43,-1234
1,577,30134,-410,-16212,-6022,357,0,-1230
1,578,30139,-164,-16297,-5750,351,20,-1222
1,579,30144,-92,-16477,-5397,348,12,-1222
1,580,30149,-242,-16579,-5264,348,-15,-1230
1,581,30154,-386,-16574,-5562,351,-33,-1241
1,582,30159,-357,-16513,-5815,346,-27,-1241
1,583,30164,-208,-16503,-5770,336,-14,-1230
1,584,30169,55,-16508,-5649,328,-5,-1217
1,585,30174,325,-16551,-5544,323,10,-1206
1,586,30179,524,-16556,-5563,322,32,-1198
1,587,30184,301,-16466,-5647,321,60,-1198
1,588,30189,-13,-16704,-5798,312,65,-1179
1,589,30194,-23,-16207,-5366,352,68,-1162
1,590,30199,-97,-15988,-5201,320,58,-1138
1,591,30204,358,-16323,-5445,283,4,-1092
1,592,30209,741,-16328,-5535,290,-14,-1098
1,593,30214,668,-16113,-5296,298,22,-1126
1,594,30219,112,-16116,-5063,291,45,-1136
1,595,30224,386,-16112,-5292,297,17,-1107
1,596,30229,737,-15775,-5601,305,8,-1086
1,597,30234,249,-15918,-5433,304,9,-1039
1,598,30239,905,-16101,-5588,318,-26,-1008
1,599,30244,7024,-11049,-4102,336,36,-1032
1,600,30249,32198,-19988,-5502,153,502,-426
1,601,30254,376,-18469,-28305,736,6223,532
1,602,30259,-32768,-2480,4336,24,11750,-2523
1,603,30264,-32768,-9791,28956,-1821,7366,-3869
1,604,30269,-4736,-25505,32767,-1144,-412,-1209
1,605,30274,24816,-12973,9046,1346,-7302,2795
1,606,30279,17224,-22748,-32768,1631,-6841,3587
1,607,30284,-11416,-13279,-32768,130,-3460,-363
1,608,30289,-19432,-6630,-604,-762,-966,-1789
1,609,30294,-3827,-14265,32767,-862,-1938,247
1,610,30299,32767,-21381,12154,-274,-4148,2090
1,611,30304,30885,-27233,-30069,398,-1381,1669
1,612,30309,224,-12929,-32768,642,2020,-967
1,613,30314,-30941,-7986,-15136,-61,3098,-1614
1,614,30319,-19874,-10765,14323,-601,1273,-460
1,615,30324,12271,-18433,19091,-597,-920,1216
1,616,30329,24305,-23431,-2025,-69,-567,1458
1,617,30334,6842,-18305,-20340,456,1345,85
1,618,30339,-17575,-11978,-17988,267,1922,-1065
1,619,30344,-20704,-11068,-747,-179,627,-820
1,620,30349,-3735,-14866,10575,-366,-1154,349
1,621,30354,14722,-17611,4159,-160,-1736,1165
1,622,30359,16847,-19050,-11506,116,-1043,1153
1,623,30364,5651,-16879,-19043,235,157,201
1,624,30369,-8230,-13040,-11083,87,706,-493
1,625,30374,-7756,-14166,1393,-149,225,-228
1,626,30379,1158,-16563,4186,-158,-400,351
1,627,30384,10064,-17837,-3441,19,-445,596
1,628,30389,6826,-17577,-10856,137,69,296
1,629,30394,-514,-15261,-10595,143,400,-179
1,630,30399,-4048,-14320,-5009,14,290,-237
1,631,30404,-1287,-15017,-180,-82,54,59
1,632,30409,4267,-16452,-1552,-33,1,389
1,633,30414,6216,-16642,-6021,69,243,332
1,634,30419,3229,-15697,-7893,129,488,49
1,635,30424,-1764,-14614,-5355,65,463,-143
1,636,30429,-2476,-14838,-2508,-15,149,-17
1,637,30434,1853,-15859,-2811,-11,-34,203
1,638,30439,4862,-15881,-4458,57,204,189
1,639,30444,3617,-15358,-5361,105,456,49
1,640,30449,660,-14914,-5068,98,362,-30
1,641,30454,-328,-14973,-4597,64,69,7
1,642,30459,1078,-15322,-4337,47,-34,80
1,643,30464,2646,-15384,-4153,64,123,98
1,644,30469,3149,-15345,-4471,95,278,75
1,645,30474,2288,-15189,-4867,111,271,25
1,646,30479,1011,-14989,-4877,98,123,-4
1,647,30484,834,-15123,-4713,80,-11,16
1,648,30489,1479,-15159,-4602,81,8,42
1,649,30494,2193,-15328,-4668,91,130,60
1,650,30499,2299,-15196,-4853,102,229,43
1,651,30504,2038,-15013,-5050,104,211,20
1,652,30509,1826,-14934,-5279,100,152,15
1,653,30514,1673,-14942,-5126,96,172,16
1,654,30519,1599,-14994,-4820,99,265,20
1,655,30524,1631,-14961,-4646,111,355,24
1,656,30529,1730,-14927,-4644,113,359,24
1,657,30534,1902,-14930,-4728,114,299,17
1,658,30539,1808,-14958,-4669,114,249,11
1,659,30544,1724,-14976,-4538,116,257,8
1,660,30549,1729,-14923,-4410,125,302,12
1,661,30554,1915,-14960,-4392,129,309,19
1,662,30559,2088,-14991,-4411,131,251,16
1,663,30564,1963,-15040,-4194,129,159,10
1,664,30569,1581,-15132,-4055,132,85,7
1,665,30574,1400,-15170,-4018,136,47,10
1,666,30579,1477,-15295,-4196,141,24,23
1,667,30584,1880,-15361,-4448,141,-7,29
1,668,30589,2213,-15423,-4579,137,-45,34
1,669,30594,2204,-15513,-4552,138,-57,30
1,670,30599,1959,-15539,-4573,141,-24,26
1,671,30604,1825,-15662,-4725,143,41,31
1,672,30609,1669,-15712,-4749,141,103,33
1,673,30614,1629,-15719,-4552,138,127,34
1,674,30619,1625,-15809,-4317,135,119,37
1,675,30624,1620,-15864,-4306,136,112,37
1,676,30629,1570,-15847,-4441,139,123,36
1,677,30634,1465,-15811,-4552,140,138,36
1,678,30639,1517,-15756,-4518,137,133,38
1,679,30644,1756,-15871,-4293,133,81,44
1,680,30649,1749,-15964,-4486,136,65,40
1,681,30654,1613,-15931,-4582,138,63,37
1,682,30659,1621,-15857,-4591,135,62,42
1,683,30664,1693,-15822,-4551,133,54,49
1,684,30669,1773,-15834,-4499,131,41,50
1,685,30674,1674,-15826,-4497,131,35,46
1,686,30679,1595,-15810,-4559,133,32,42
1,687,30684,1547,-15780,-4718,132,32,43
1,688,30689,1630,-15757,-4824,129,33,49
1,689,30694,1770,-15738,-4766,125,35,52
1,690,30699,1982,-15734,-4702,121,46,56
1,691,30704,1948,-15811,-4748,120,69,55
1,692,30709,1723,-15793,-4818,121,99,47
1,693,30714,1455,-15713,-4813,120,119,42
1,694,30719,1479,-15670,-4705,115,120,47
1,695,30724,1549,-15784,-4541,114,113,52
1,696,30729,1595,-15887,-4454,112,100,52
1,697,30734,1538,-15882,-4434,110,78,49
1,698,30739,1465,-15886,-4505,110,57,45
1,699,30744,1421,-15867,-4643,109,35,45
1,700,30749,1500,-15854,-4628,105,17,47
1,701,30754,1586,-15821,-4512,102,7,48
1,702,30759,1715,-15791,-4555,101,1,48
1,703,30764,1677,-15732,-4644,99,2,43
1,704,30769,1592,-15710,-4727,97,6,43
1,705,30774,1612,-15761,-4801,92,13,42
1,706,30779,1676,-15705,-4736,84,20,42
1,707,30784,1754,-15696,-4617,79,37,43
1,708,30789,1831,-15703,-4634,78,61,43
1,709,30794,1689,-15599,-4697,77,82,41
1,710,30799,1455,-15586,-4699,72,97,34
1,711,30804,1357,-15566,-4563,67,100,32
1,712,30809,1358,-15584,-4446,63,92,34
1,713,30814,1449,-15614,-4396,61,81,34
1,714,30819,1498,-15674,-4381,58,71,32
1,715,30824,1477,-15762,-4420,53,59,29
1,716,30829,1426,-15790,-4364,49,42,25
1,717,30834,1442,-15849,-4355,44,21,23
1,718,30839,1513,-15842,-4342,42,9,22
1,719,30844,1565,-15876,-4454,37,3,23
1,720,30849,1675,-15871,-4546,33,6,20
1,721,30854,1745,-15877,-4457,30,10,21
1,722,30859,1665,-15853,-4419,23,11,18
1,723,30864,1671,-15863,-4393,20,13,16
1,724,30869,1703,-15806,-4428,16,23,15
1,725,30874,1738,-15722,-4468,13,36,17
1,726,30879,1710,-15721,-4517,7,46,16
1,727,30884,1656,-15729,-4523,3,54,13
1,728,30889,1655,-15703,-4507,-1,61,13
1,729,30894,1715,-15661,-4532,-6,71,14
1,730,30899,1741,-15628,-4536,-11,93,13
1,731,30904,1641,-15558,-4585,-13,118,11
1,732,30909,1476,-15609,-4600,-15,133,7
1,733,30914,1488,-15679,-4550,-20,132,5
1,734,30919,1514,-15719,-4504,-23,129,4
1,735,30924,1544,-15750,-4439,-28,132,2
1,736,30929,1588,-15759,-4508,-30,140,4
1,737,30934,1605,-15734,-4622,-33,154,0
1,738,30939,1523,-15697,-4614,-36,169,-3
1,739,30944,1468,-15705,-4478,-40,176,-4
1,740,30949,1499,-15705,-4394,-43,176,-4
1,741,30954,1534,-15675,-4335,-44,171,-3
1,742,30959,1514,-15603,-4371,-44,165,-4
1,743,30964,1484,-15603,-4385,-45,153,-6
1,744,30969,1468,-15642,-4307,-48,136,-7
1,745,30974,1590,-15669,-4203,-49,116,-7
1,746,30979,1545,-15710,-4074,-50,91,-8
1,747,30984,1454,-15756,-4089,-51,66,-11
1,748,30989,1437,-15756,-4197,-50,41,-11
1,749,30994,1513,-15743,-4293,-54,20,-11
1,750,30999,1629,-15721,-4343,-54,7,-8
1,751,31004,1768,-15696,-4379,-56,11,-7
1,752,31009,1754,-15715,-4419,-56,25,-9
1,753,31014,1627,-15721,-4528,-56,47,-12
1,754,31019,1558,-15728,-4564,-58,64,-14
1,755,31024,1498,-15688,-4514,-61,77,-13
1,756,31029,1541,-15699,-4419,-62,87,-11
1,757,31034,1569,-15736,-4374,-61,95,-12
1,758,31039,1488,-15758,-4338,-62,97,-14
1,759,31044,1443,-15811,-4279,-61,91,-16
1,760,31049,1457,-15823,-4221,-61,81,-17
1,761,31054,1499,-15811,-4201,-61,69,-16
1,762,31059,1500,-15859,-4179,-60,58,-16
1,763,31064,1510,-15860,-4158,-58,39,-17
1,764,31069,1452,-15833,-4121,-57,11,-16
1,765,31074,1470,-15833,-4145,-56,-17,-14
1,766,31079,1499,-15889,-4169,-54,-37,-14
1,767,31084,1546,-15923,-4238,-53,-43,-16
1,768,31089,1642,-15919,-4320,-53,-47,-13
1,769,31094,1746,-15972,-4341,-54,-43,-9
1,770,31099,1800,-15954,-4346,-53,-30,-9
1,771,31104,1768,-15932,-4445,-52,-13,-12
1,772,31109,1703,-15884,-4467,-52,11,-12
1,773,31114,1667,-15841,-4384,-52,35,-13
1,774,31119,1613,-15808,-4353,-52,54,-10
1,775,31124,1639,-15784,-4321,-51,64,-8
1,776,31129,1545,-15746,-4186,-49,67,-13
1,777,31134,1527,-15750,-4134,-49,59,-12
1,778,31139,1528,-15728,-4165,-47,49,-11
1,779,31144,1506,-15716,-4193,-45,37,-12
1,780,31149,1456,-15706,-4153,-42,18,-12
1,781,31154,1500,-15724,-4141,-41,-4,-10
1,782,31159,1528,-15756,-4228,-38,-23,-7
1,783,31164,1618,-15721,-4268,-35,-29,-8
1,784,31169,1637,-15719,-4354,-33,-26,-8
1,785,31174,1689,-15752,-4407,-32,-18,-5
1,786,31179,1706,-15772,-4348,-34,-10,-3
1,787,31184,1635,-15780,-4276,-30,0,-3
1,788,31189,1603,-15748,-4311,-29,11,-3
1,789,31194,1598,-15723,-4306,-27,20,0
1,790,31199,1614,-15688,-4253,-27,29,0
1,791,31204,1542,-15706,-4235,-25,29,-2
1,792,31209,1545,-15690,-4220,-24,20,-1
1,793,31214,1565,-15680,-4202,-20,6,-1
1,794,31219,1610,-15672,-4247,-16,-4,-1
1,795,31224,1627,-15669,-4351,-15,-5,-1
1,796,31229,1648,-15673,-4376,-15,2,-1
1,797,31234,1780,-15629,-4381,-13,12,2
1,798,31239,1885,-15600,-4353,-13,24,3
1,799,31244,1752,-15550,-4337,-12,38,5
1,800,31249,1553,-15551,-4203,-12,43,1
1,801,31254,1379,-15579,-4134,-10,33,0
1,802,31259,1359,-15576,-4114,-9,9,3
1,803,31264,1544,-15529,-4131,-5,-10,9
1,804,31269,1662,-15540,-4207,-4,-20,12
1,805,31274,1724,-15550,-4295,-2,-21,10
1,806,31279,1643,-15515,-4370,-2,-18,8
1,807,31284,1653,-15557,-4369,-2,-8,7
1,808,31289,1644,-15635,-4381,0,6,6
1,809,31294,1561,-15638,-4297,-1,19,6
1,810,31299,1483,-15639,-4258,-1,19,6
1,811,31304,1438,-15670,-4290,2,13,7
1,812,31309,1466,-15658,-4315,2,5,7
1,813,31314,1475,-15623,-4316,5,-2,7
1,814,31319,1486,-15584,-4289,6,-7,8
1,815,31324,1543,-15562,-4352,7,-9,6
1,816,31329,1597,-15543,-4437,7,-10,6
1,817,31334,1649,-15541,-4474,8,-9,7
1,818,31339,1653,-15526,-4521,9,-1,7
1,819,31344,1581,-15641,-4516,8,9,9
1,820,31349,1614,-15695,-4496,10,20,9
1,821,31354,1659,-15710,-4520,11,31,9
1,822,31359,1698,-15756,-4527,9,44,9
1,823,31364,1661,-15780,-4485,8,60,7
1,824,31369,1500,-15739,-4358,9,72,5
1,825,31374,1424,-15736,-4244,9,74,4
1,826,31379,1413,-15707,-4165,12,65,4
1,827,31384,1403,-15627,-4168,14,46,4
1,828,31389,1425,-15568,-4212,16,15,4
1,829,31394,1512,-15496,-4272,15,-16,5
1,830,31399,1535,-15546,-4310,17,-41,6
1,831,31404,1493,-15716,-4465,19,-58,4
1,832,31409,1615,-15759,-4536,17,-67,5
1,833,31414,1780,-15771,-4583,17,-57,9
1,834,31419,1846,-15902,-4788,17,10,9
1,835,31424,1712,-15913,-4689,14,48,5
1,836,31429,1555,-15874,-4523,11,71,2
1,837,31434,1476,-15850,-4385,12,81,0
1,838,31439,1458,-15777,-4354,15,80,3
1,839,31444,1443,-15647,-4375,15,72,3
1,840,31449,1486,-15578,-4409,15,58,2
1,841,31454,1540,-15444,-4412,17,41,0
1,842,31459,1610,-15394,-4368,20,25,0
1,843,31464,1599,-15346,-4395,24,7,0
1,844,31469,1554,-15422,-4469,26,-15,1
1,845,31474,1549,-15460,-4488,25,-33,1
1,846,31479,1585,-15618,-4458,22,-47,3
1,847,31484,1649,-15722,-4369,18,-49,5
1,848,31489,1692,-15810,-4351,18,-40,4
1,849,31494,1715,-15846,-4354,17,-19,3
1,850,31499,1709,-15869,-4429,19,4,3
1,851,31504,1619,-15813,-4419,19,24,-2
1,852,31509,1535,-15761,-4313,18,34,-2
1,853,31514,1571,-15705,-4269,15,33,-3
1,854,31519,1596,-15624,-4267,17,26,-3
1,855,31524,1602,-15622,-4278,17,19,-2
1,856,31529,1537,-15617,-4325,18,9,-2
1,857,31534,1504,-15600,-4319,19,-5,-3
1,858,31539,1575,-15594,-4326,20,-18,-3
1,859,31544,1651,-15622,-4369,22,-27,-3
1,860,31549,1720,-15522,-4425,21,-27,0
1,861,31554,1716,-15519,-4533,23,-20,4
1,862,31559,1666,-15509,-4491,23,-13,3
1,863,31564,1617,-15495,-4390,22,-10,3
1,864,31569,1546,-15556,-4272,24,-17,4
1,865,31574,1489,-15681,-4329,25,-27,5
1,866,31579,1513,-15794,-4429,28,-37,6
1,867,31584,1575,-15804,-4392,27,-40,5
1,868,31589,1589,-15858,-4398,26,-32,4
1,869,31594,1660,-15873,-4467,27,-6,5
1,870,31599,1661,-15831,-4580,27,31,4
1,871,31604,1624,-15794,-4504,28,67,3
1,872,31609,1565,-15766,-4425,26,91,3
1,873,31614,1472,-15802,-4283,25,100,3
1,874,31619,1370,-15855,-4133,27,98,3
1,875,31624,1305,-15885,-4060,28,87,2
1,876,31629,1324,-15850,-4068,29,67,6
1,877,31634,1421,-15803,-4159,32,51,7
1,878,31639,1505,-15809,-4276,31,41,8
1,879,31644,1575,-15811,-4308,31,35,7
1,880,31649,1665,-15754,-4239,31,36,8
1,881,31654,1666,-15765,-4230,31,41,10
1,882,31659,1582,-15766,-4265,33,48,6
1,883,31664,1501,-15728,-4289,36,50,8
1,884,31669,1538,-15739,-4214,35,39,11
1,885,31674,1600,-15719,-4139,34,30,12
1,886,31679,1582,-15749,-4133,35,23,13
1,887,31684,1528,-15827,-4185,37,19,11
1,888,31689,1564,-15788,-4221,35,15,11
1,889,31694,1572,-15784,-4227,33,17,10
1,890,31699,1656,-15740,-4246,32,28,10
1,891,31704,1660,-15714,-4201,34,37,10
1,892,31709,1556,-15729,-4164,34,39,12
1,893,31714,1527,-15720,-4195,34,35,11
1,894,31719,1525,-15715,-4138,33,30,10
1,895,31724,1538,-15682,-4079,31,18,13
1,896,31729,1576,-15662,-4135,32,10,15
1,897,31734,1634,-15666,-4172,33,11,15
1,898,31739,1671,-15658,-4208,31,14,14
1,899,31744,1698,-15614,-4244,32,21,17
1,900,31749,1729,-15583,-4227,31,27,17
1,901,31754,1758,-15559,-4173,30,30,14
1,902,31759,1641,-15531,-4150,28,28,13
1,903,31764,1530,-15562,-4173,30,17,15
1,904,31769,1502,-15628,-4224,31,4,17
1,905,31774,1585,-15792,-4257,28,-6,17
1,906,31779,1741,-15857,-4244,25,-5,19
1,907,31784,1869,-15826,-4215,25,5,21
1,908,31789,1851,-15758,-4196,24,20,19
1,909,31794,1675,-15777,-4200,25,37,17
1,910,31799,1528,-15672,-4129,24,42,13
1,911,31804,1538,-15630,-4086,23,32,16
1,912,31809,1622,-15622,-4076,24,14,16
1,913,31814,1622,-15699,-4208,23,-6,20
1,914,31819,1581,-15728,-4297,22,-18,19
1,915,31824,1556,-15749,-4321,22,-20,17
1,916,31829,1625,-15815,-4326,20,-11,17
1,917,31834,1745,-15927,-4335,17,9,18
1,918,31839,1792,-15952,-4304,15,31,17
1,919,31844,1686,-15910,-4241,15,44,16
1,920,31849,1549,-15859,-4144,15,43,14
1,921,31854,1477,-15880,-4043,13,34,13
1,922,31859,1462,-15808,-4064,16,13,14
1,923,31864,1505,-15803,-4151,17,-14,16
1,924,31869,1585,-15880,-4215,14,-39,14
1,925,31874,1650,-15906,-4343,14,-56,11
1,926,31879,1698,-15918,-4390,12,-52,10
1,927,31884,1754,-16012,-4384,10,-29,13
1,928,31889,1823,-16048,-4383,9,1,12
1,929,31894,1698,-16019,-4236,8,20,12
1,930,31899,1534,-15974,-4161,8,24,10
1,931,31904,1439,-15925,-4087,8,15,9
1,932,31909,1418,-15904,-4112,8,-6,9
1,933,31914,1414,-15927,-4160,6,-28,11
1,934,31919,1490,-15887,-4208,4,-49,8
1,935,31924,1626,-15785,-4318,3,-64,10
1,936,31929,1787,-15708,-4407,6,-59,11
1,937,31934,1790,-15613,-4526,5,-38,8
1,938,31939,1682,-15569,-4588,3,-12,5
1,939,31944,1561,-15552,-4398,2,3,5
1,940,31949,1541,-15535,-4250,3,3,8
1,941,31954,1520,-15505,-4166,4,-5,9
1,942,31959,1459,-15543,-4180,4,-9,8
1,943,31964,1423,-15596,-4177,5,-18,8
1,944,31969,1463,-15645,-4176,4,-33,8
1,945,31974,1424,-15699,-4179,3,-46,5
1,946,31979,1517,-15738,-4166,2,-57,2
1,947,31984,1564,-15773,-4234,2,-62,2
1,948,31989,1599,-15802,-4388,2,-51,4
1,949,31994,1645,-15813,-4472,1,-27,5
1,950,31999,1674,-15787,-4449,-1,3,2
1,951,32004,1652,-15781,-4380,-4,31,3
1,952,32009,1568,-15803,-4279,-4,52,3
1,953,32014,1497,-15801,-4232,-4,70,0
1,954,32019,1455,-15793,-4135,-5,78,1
1,955,32024,1358,-15773,-4097,-5,72,1
1,956,32029,1350,-15765,-4047,-6,56,0
1,957,32034,1402,-15833,-4039,-9,34,0
1,958,32039,1455,-15828,-4045,-7,9,1
1,959,32044,1534,-15777,-4124,-6,-7,2
1,960,32049,1625,-15777,-4224,-5,-13,1
1,961,32054,1644,-15829,-4334,-6,-14,3
1,962,32059,1652,-15805,-4279,-8,-9,0
1,963,32064,1602,-15792,-4162,-6,-4,-1
1,964,32069,1519,-15842,-4147,-6,-3,1
1,965,32074,1490,-15843,-4186,-7,-6,0
1,966,32079,1457,-15817,-4196,-8,-15,1
1,967,32084,1455,-15828,-4153,-9,-21,4
1,968,32089,1568,-15807,-4096,-10,-27,3
1,969,32094,1612,-15738,-4150,-10,-28,3
1,970,32099,1646,-15699,-4239,-9,-25,2
1,971,32104,1592,-15739,-4330,-10,-21,2
1,972,32109,1492,-15725,-4300,-11,-19,-1
1,973,32114,1471,-15741,-4183,-12,-18,-1
1,974,32119,1524,-15757,-4146,-14,-9,0
1,975,32124,1625,-15770,-4218,-13,6,4
1,976,32129,1621,-15737,-4284,-15,22,3
1,977,32134,1523,-15685,-4215,-15,30,1
1,978,32139,1453,-15618,-4152,-16,26,-2
1,979,32144,1456,-15638,-4155,-14,13,-2
1,980,32149,1486,-15736,-4217,-15,-3,1
1,981,32154,1520,-15719,-4193,-17,-16,1
1,982,32159,1560,-15723,-4206,-16,-26,0
1,983,32164,1652,-15770,-4291,-17,-28,4
1,984,32169,1756,-15734,-4334,-16,-17,4
1,985,32174,1705,-15662,-4279,-16,-3,4
1,986,32179,1615,-15617,-4251,-16,8,2
1,987,32184,1514,-15622,-4207,-15,8,4
1,988,32189,1425,-15713,-4148,-15,-6,5
1,989,32194,1317,-15913,-4116,-16,-46,2
1,990,32199,1487,-15876,-4175,-17,-51,4
1,991,32204,1654,-15803,-4269,-19,-37,8
1,992,32209,1788,-15769,-4494,-19,0,8
1,993,32214,1673,-15708,-4484,-19,39,5
1,994,32219,1507,-15689,-4314,-20,60,2
1,995,32224,1352,-15731,-4179,-21,64,1
1,996,32229,1317,-15751,-4134,-21,56,3
1,997,32234,1349,-15724,-4218,-16,47,6
1,998,32239,1411,-15734,-4234,-18,34,8
1,999,32244,1460,-15648,-4234,-17,22,8
