event_id,seq,ts_us,ax,ay,az,gx,gy,gz
3,0,99533,653,-16049,-3380,-2,-1,-6
3,1,99538,610,-16039,-3392,-1,9,-7
3,2,99543,601,-16056,-3368,1,17,-7
3,3,99548,634,-16062,-3345,-1,22,-7
3,4,99553,584,-16030,-3374,0,22,-6
3,5,99558,559,-16034,-3359,-3,19,-7
3,6,99563,573,-16032,-3338,-3,14,-6
3,7,99568,595,-16048,-3357,-1,11,-8
3,8,99573,618,-16022,-3357,2,7,-6
3,9,99578,649,-16001,-3376,1,5,-4
3,10,99583,664,-15956,-3436,1,0,-5
3,11,99588,674,-15979,-3390,2,-6,-7
3,12,99593,628,-15959,-3344,3,-14,-7
3,13,99598,616,-15957,-3403,4,-23,-6
3,14,99603,630,-15967,-3434,5,-26,-2
3,15,99608,652,-16012,-3395,5,-26,-2
3,16,99613,654,-15982,-3398,5,-24,-4
3,17,99618,595,-15984,-3421,7,-20,-6
3,18,99623,573,-16007,-3385,6,-16,-4
3,19,99628,562,-16055,-3392,3,-10,-5
3,20,99633,574,-16083,-3379,3,-5,-6
3,21,99638,600,-16084,-3342,3,5,-7
3,22,99643,609,-16082,-3360,2,15,-7
3,23,99648,623,-16018,-3372,2,21,-6
3,24,99653,611,-16017,-3364,3,24,-7
3,25,99658,591,-16020,-3338,3,25,-6
3,26,99663,584,-16050,-3266,1,26,-7
3,27,99668,631,-16066,-3294,2,26,-4
3,28,99673,623,-16020,-3360,3,25,-4
3,29,99678,642,-15951,-3370,2,21,-4
3,30,99683,661,-15945,-3406,4,17,-4
3,31,99688,631,-15967,-3411,5,10,-3
3,32,99693,612,-15968,-3390,4,5,-5
3,33,99698,604,-15975,-3374,5,-2,-6
3,34,99703,638,-15961,-3356,6,-6,-3
3,35,99708,660,-15972,-3376,7,-12,-3
3,36,99713,631,-15985,-3380,6,-17,-2
3,37,99718,624,-15995,-3338,6,-21,-2
3,38,99723,645,-16019,-3288,6,-25,-3
3,39,99728,581,-16040,-3341,8,-28,-3
3,40,99733,620,-16070,-3326,7,-24,-3
3,41,99738,643,-16112,-3399,7,-18,-2
3,42,99743,737,-16071,-3398,3,-9,-2
3,43,99748,786,-16049,-3431,3,4,0
3,44,99753,674,-15982,-3420,4,14,-2
3,45,99758,632,-16019,-3362,1,21,-3
3,46,99763,577,-16030,-3334,2,22,-2
3,47,99768,569,-15994,-3294,3,20,-1
3,48,99773,628,-16030,-3275,4,17,0
3,49,99778,624,-16020,-3259,5,13,-1
3,50,99783,568,-16021,-3321,4,5,-2
3,51,99788,584,-16050,-3300,2,-5,0
3,52,99793,657,-16084,-3285,4,-13,4
3,53,99798,684,-16053,-3304,5,-17,3
3,54,99803,710,-16061,-3357,4,-17,0
3,55,99808,630,-16057,-3317,4,-16,0
3,56,99813,609,-16065,-3351,6,-17,0
3,57,99818,640,-16086,-3381,5,-19,2
3,58,99823,676,-16110,-3357,6,-16,2
3,59,99828,679,-16097,-3356,5,-14,0
3,60,99833,621,-16099,-3332,5,-15,1
3,61,99838,616,-16098,-3356,4,-13,-1
3,62,99843,605,-16107,-3424,3,-10,-1
3,63,99848,646,-16084,-3400,2,-3,1
3,64,99853,638,-16048,-3375,2,6,-1
3,65,99858,601,-16067,-3344,4,11,1
3,66,99863,549,-15993,-3324,3,13,0
3,67,99868,572,-16011,-3342,3,13,1
3,68,99873,580,-16006,-3398,2,13,0
3,69,99878,536,-15989,-3386,2,10,-1
3,70,99883,566,-16001,-3382,3,5,-1
3,71,99888,610,-16000,-3365,4,1,-2
3,72,99893,598,-16007,-3352,5,0,0
3,73,99898,589,-16043,-3413,5,-3,-2
3,74,99903,593,-16053,-3375,4,-3,-3
3,75,99908,644,-16036,-3357,4,-2,-2
3,76,99913,699,-15976,-3365,5,1,-1
3,77,99918,641,-16032,-3367,5,3,-2
3,78,99923,552,-16052,-3350,3,2,-4
3,79,99928,545,-16091,-3324,3,-3,-2
3,80,99933,624,-16075,-3264,3,-8,1
3,81,99938,664,-16044,-3301,3,-3,-1
3,82,99943,689,-16017,-3375,3,4,-4
3,83,99948,625,-16020,-3391,3,10,-3
3,84,99953,588,-16027,-3355,2,12,-3
3,85,99958,627,-16008,-3303,1,14,-2
3,86,99963,658,-16008,-3289,2,15,1
3,87,99968,627,-16003,-3391,4,15,-2
3,88,99973,538,-15985,-3354,4,9,-3
3,89,99978,518,-15971,-3370,4,0,-3
3,90,99983,576,-16013,-3318,2,-8,-1
3,91,99988,627,-16039,-3336,3,-14,-1
3,92,99993,661,-16035,-3343,5,-14,-2
3,93,99998,652,-16019,-3345,5,-10,-5
3,94,100003,624,-16042,-3347,5,-7,-4
3,95,100008,630,-16065,-3375,3,-3,-3
3,96,100013,652,-16079,-3318,1,2,-2
3,97,100018,625,-16105,-3351,1,12,-3
3,98,100023,651,-16089,-3327,2,23,-3
3,99,100028,592,-16074,-3317,0,20,-5
3,100,100033,566,-16055,-3278,-1,14,-4
3,101,100038,551,-16085,-3253,-1,7,-4
3,102,100043,637,-16092,-3290,1,3,-4
3,103,100048,691,-16094,-3368,2,-3,-1
3,104,100053,692,-16078,-3371,1,-4,-4
3,105,100058,710,-16025,-3398,-1,-3,-4
3,106,100063,681,-15994,-3397,0,-2,-3
3,107,100068,621,-15962,-3392,2,3,-2
3,108,100073,580,-15965,-3349,2,7,-2
3,109,100078,626,-15974,-3372,2,6,-2
3,110,100083,631,-15969,-3326,1,1,-4
3,111,100088,666,-15948,-3325,0,-3,-5
3,112,100093,633,-15956,-3326,-1,-10,-3
3,113,100098,578,-15946,-3345,2,-14,-4
3,114,100103,606,-15946,-3363,2,-20,-4
3,115,100108,632,-15950,-3356,1,-25,-3
3,116,100113,596,-15996,-3360,-1,-26,-4
3,117,100118,631,-16066,-3288,-1,-23,-3
3,118,100123,640,-16084,-3322,1,-14,-5
3,119,100128,672,-16099,-3392,0,-4,-4
3,120,100133,675,-16119,-3363,-1,8,-3
3,121,100138,680,-16169,-3339,-4,13,-3
3,122,100143,662,-16195,-3286,-6,21,-4
3,123,100148,635,-16238,-3244,-6,23,-6
3,124,100153,611,-16247,-3327,-3,25,-4
3,125,100158,636,-16184,-3343,-4,24,-1
3,126,100163,684,-16166,-3310,-5,22,-4
3,127,100168,706,-16143,-3329,-6,18,-4
3,128,100173,684,-16147,-3315,-4,11,-1
3,129,100178,676,-16067,-3322,-2,6,-2
3,130,100183,668,-16031,-3375,-3,4,-2
3,131,100188,656,-16052,-3410,-6,3,-4
3,132,100193,589,-16054,-3379,-5,-2,-4
3,133,100198,599,-16014,-3326,-4,-5,-2
3,134,100203,671,-15974,-3380,-3,-7,-1
3,135,100208,620,-15977,-3422,-2,-6,-2
3,136,100213,561,-15967,-3425,-3,-7,-2
3,137,100218,554,-15969,-3340,-4,-7,-2
3,138,100223,625,-15956,-3343,-5,-5,-2
3,139,100228,643,-15925,-3379,-6,0,-2
3,140,100233,612,-15906,-3392,-6,7,-4
3,141,100238,615,-15931,-3384,-6,13,-6
3,142,100243,582,-15942,-3317,-5,12,-4
3,143,100248,617,-15944,-3313,-4,11,-4
3,144,100253,639,-16004,-3309,-7,14,-4
3,145,100258,621,-16066,-3293,-6,15,-4
3,146,100263,665,-16041,-3350,-7,15,-5
3,147,100268,672,-16026,-3348,-8,16,-5
3,148,100273,692,-16036,-3350,-8,13,-3
3,149,100278,644,-16046,-3359,-9,13,-5
3,150,100283,631,-16083,-3346,-7,13,-3
3,151,100288,612,-16071,-3350,-7,9,-4
3,152,100293,615,-16047,-3314,-6,1,-4
3,153,100298,644,-16070,-3344,-8,-4,-4
3,154,100303,625,-16097,-3369,-9,-8,-4
3,155,100308,648,-16103,-3330,-7,-7,-4
3,156,100313,665,-16098,-3271,-8,-4,-4
3,157,100318,711,-16065,-3331,-12,5,-2
3,158,100323,726,-16106,-3362,-11,11,-2
3,159,100328,659,-16096,-3328,-13,14,-3
3,160,100333,679,-16024,-3280,-14,14,-5
3,161,100338,664,-16055,-3291,-12,13,-3
3,162,100343,624,-16015,-3347,-11,12,-4
3,163,100348,645,-15987,-3312,-11,7,-2
3,164,100353,612,-16041,-3300,-11,2,-2
3,165,100358,656,-15999,-3310,-12,-7,0
3,166,100363,691,-15974,-3359,-11,-11,0
3,167,100368,672,-16008,-3395,-11,-13,0
3,168,100373,696,-15972,-3417,-12,-12,0
3,169,100378,694,-15986,-3372,-12,-8,0
3,170,100383,668,-15971,-3412,-13,-1,0
3,171,100388,625,-15964,-3415,-13,5,-2
3,172,100393,629,-16002,-3421,-12,6,0
3,173,100398,643,-15984,-3375,-11,7,2
3,174,100403,660,-15948,-3404,-13,8,1
3,175,100408,626,-15937,-3397,-12,6,0
3,176,100413,600,-15987,-3325,-12,0,-1
3,177,100418,575,-16013,-3331,-12,-3,0
3,178,100423,608,-16044,-3363,-9,-3,2
3,179,100428,696,-15981,-3403,-11,-2,1
3,180,100433,680,-16003,-3414,-12,1,0
3,181,100438,672,-16001,-3382,-12,1,0
3,182,100443,623,-15987,-3313,-12,-2,1
3,183,100448,627,-16064,-3306,-10,-9,3
3,184,100453,683,-16061,-3241,-11,-16,4
3,185,100458,655,-16040,-3262,-8,-26,5
3,186,100463,591,-16031,-3290,-8,-36,3
3,187,100468,568,-16061,-3319,-8,-48,3
3,188,100473,622,-16014,-3387,-9,-52,5
3,189,100478,711,-15995,-3476,-8,-45,6
3,190,100483,758,-16021,-3454,-9,-32,6
3,191,100488,690,-15985,-3456,-9,-16,4
3,192,100493,661,-15989,-3480,-7,-3,4
3,193,100498,644,-15998,-3465,-10,8,5
3,194,100503,649,-16000,-3443,-10,19,5
3,195,100508,636,-16021,-3404,-8,24,6
3,196,100513,534,-16021,-3376,-10,25,4
3,197,100518,480,-15989,-3355,-9,18,3
3,198,100523,532,-15924,-3372,-6,10,3
3,199,100528,572,-15912,-3393,-4,6,6
3,200,100533,562,-15903,-3352,-4,1,5
3,201,100538,513,-15939,-3345,-5,-9,4
3,202,100543,516,-15959,-3327,-4,-16,3
3,203,100548,597,-15978,-3357,-4,-18,6
3,204,100553,718,-15971,-3456,-3,-16,5
3,205,100558,739,-16010,-3403,-1,-10,4
3,206,100563,675,-16033,-3351,-2,-7,4
3,207,100568,622,-16021,-3280,0,-9,5
3,208,100573,583,-16036,-3289,0,-12,7
3,209,100578,548,-16062,-3362,1,-13,5
3,210,100583,589,-16060,-3386,0,-15,6
3,211,100588,608,-16030,-3430,-1,-16,9
3,212,100593,688,-16032,-3435,1,-12,6
3,213,100598,694,-15971,-3418,1,-9,3
3,214,100603,643,-15990,-3439,1,-1,4
3,215,100608,600,-15982,-3479,2,8,6
3,216,100613,611,-15989,-3446,2,13,7
3,217,100618,627,-15992,-3433,2,18,6
3,218,100623,612,-15997,-3393,2,21,4
3,219,100628,575,-15994,-3367,3,24,6
3,220,100633,564,-15968,-3385,4,25,8
3,221,100638,612,-15952,-3385,4,22,8
3,222,100643,608,-15994,-3318,5,18,6
3,223,100648,628,-16023,-3291,5,14,7
3,224,100653,654,-16070,-3295,7,9,10
3,225,100658,710,-16075,-3317,7,3,10
3,226,100663,668,-16078,-3299,7,0,8
3,227,100668,624,-16094,-3274,6,-6,6
3,228,100673,655,-16142,-3216,5,-14,8
3,229,100678,694,-16136,-3259,8,-12,8
3,230,100683,712,-16174,-3328,7,-8,9
3,231,100688,669,-16163,-3324,3,-6,8
3,232,100693,689,-16096,-3382,5,-2,11
3,233,100698,727,-16075,-3351,5,1,11
3,234,100703,738,-16075,-3334,5,4,10
3,235,100708,732,-16046,-3331,3,10,11
3,236,100713,656,-16060,-3317,4,12,14
3,237,100718,633,-16042,-3310,4,14,12
3,238,100723,686,-15983,-3340,5,13,13
3,239,100728,655,-16008,-3321,5,8,14
3,240,100733,600,-16032,-3318,5,3,13
3,241,100738,592,-16040,-3253,3,-1,13
3,242,100743,647,-16039,-3268,4,-4,13
3,243,100748,716,-16036,-3335,6,-3,14
3,244,100753,638,-16006,-3402,5,-3,14
3,245,100758,601,-16000,-3383,4,-2,13
3,246,100763,578,-16022,-3269,1,-7,12
3,247,100768,589,-16071,-3240,3,-10,13
3,248,100773,701,-16051,-3304,5,-9,15
3,249,100778,709,-16074,-3359,3,-5,14
3,250,100783,653,-16033,-3404,2,-8,12
3,251,100788,562,-16064,-3335,2,-12,11
3,252,100793,516,-16086,-3281,3,-18,11
3,253,100798,586,-16089,-3345,4,-17,12
3,254,100803,586,-16080,-3372,3,-17,10
3,255,100808,601,-16041,-3402,3,-15,10
3,256,100813,597,-16007,-3420,1,-12,9
3,257,100818,588,-15992,-3380,3,-10,7
3,258,100823,609,-15988,-3338,2,-4,6
3,259,100828,529,-15944,-3417,2,2,6
3,260,100833,499,-15990,-3439,1,3,7
3,261,100838,556,-15945,-3401,2,5,7
3,262,100843,601,-15975,-3436,2,3,5
3,263,100848,639,-16038,-3465,2,5,4
3,264,100853,590,-16029,-3426,1,10,4
3,265,100858,538,-16015,-3382,0,13,4
3,266,100863,541,-16019,-3379,1,18,3
3,267,100868,593,-16027,-3354,0,26,1
3,268,100873,600,-16027,-3361,-1,34,2
3,269,100878,544,-16057,-3345,-1,42,0
3,270,100883,504,-16067,-3341,-3,45,-2
3,271,100888,524,-16079,-3289,-3,42,-2
3,272,100893,567,-16009,-3335,-1,38,0
3,273,100898,579,-15952,-3368,-1,36,-1
3,274,100903,551,-15975,-3368,-1,31,-2
3,275,100908,573,-15902,-3382,-1,22,-2
3,276,100913,553,-15885,-3371,-1,11,-5
3,277,100918,544,-15935,-3386,2,1,-2
3,278,100923,524,-15957,-3336,2,-8,-3
3,279,100928,566,-15927,-3402,4,-19,-3
3,280,100933,632,-15963,-3448,5,-28,0
3,281,100938,750,-16002,-3517,4,-31,-1
3,282,100943,722,-16053,-3473,4,-31,-4
3,283,100948,674,-16089,-3390,2,-23,-5
3,284,100953,611,-16103,-3403,3,-15,-4
3,285,100958,624,-16103,-3379,4,-3,-2
3,286,100963,604,-16066,-3451,3,13,-4
3,287,100968,589,-16061,-3393,3,19,-3
3,288,100973,604,-16075,-3336,3,19,-2
3,289,100978,624,-16067,-3329,3,23,-3
3,290,100983,651,-16088,-3373,3,25,-1
3,291,100988,619,-16094,-3352,3,28,-4
3,292,100993,590,-16046,-3381,4,21,-4
3,293,100998,551,-15989,-3341,4,9,0
3,294,101003,560,-16017,-3288,5,-4,0
3,295,101008,593,-16009,-3366,5,-12,-1
3,296,101013,567,-16026,-3383,7,-16,-3
3,297,101018,568,-15967,-3399,7,-23,0
3,298,101023,620,-15991,-3397,6,-23,1
3,299,101028,641,-16015,-3374,6,-15,1
3,300,101033,621,-16035,-3402,5,-6,1
3,301,101038,671,-16065,-3418,5,4,1
3,302,101043,658,-16095,-3341,4,12,0
3,303,101048,614,-16163,-3379,3,15,-1
3,304,101053,611,-16210,-3283,3,17,2
3,305,101058,599,-16167,-3248,5,18,1
3,306,101063,539,-16144,-3248,5,23,2
3,307,101068,524,-16156,-3274,3,29,2
3,308,101073,598,-16162,-3288,0,30,4
3,309,101078,700,-16114,-3333,1,30,5
3,310,101083,700,-16048,-3266,1,34,5
3,311,101088,601,-16045,-3308,3,35,3
3,312,101093,584,-16038,-3304,3,28,4
3,313,101098,608,-16010,-3295,2,19,7
3,314,101103,645,-16016,-3259,1,7,8
3,315,101108,581,-16009,-3260,2,-7,6
3,316,101113,558,-16012,-3247,5,-21,6
3,317,101118,599,-15968,-3301,5,-32,8
3,318,101123,613,-15992,-3326,3,-36,10
3,319,101128,639,-16024,-3323,2,-38,11
3,320,101133,656,-16054,-3334,4,-36,9
3,321,101138,637,-16042,-3355,2,-31,9
3,322,101143,605,-15992,-3380,2,-20,10
3,323,101148,580,-16018,-3355,0,-4,9
3,324,101153,605,-16032,-3321,-1,12,12
3,325,101158,602,-16006,-3326,-2,27,13
3,326,101163,587,-15948,-3329,-3,37,11
3,327,101168,494,-15941,-3326,-3,38,9
3,328,101173,423,-15909,-3303,-2,30,11
3,329,101178,397,-15909,-3265,-2,19,13
3,330,101183,458,-15878,-3284,-2,7,14
3,331,101188,543,-15877,-3344,0,-3,15
3,332,101193,532,-15832,-3367,2,-15,15
3,333,101198,488,-15819,-3413,1,-23,16
3,334,101203,465,-15822,-3401,1,-30,18
3,335,101208,582,-15837,-3394,-1,-24,21
3,336,101213,742,-15843,-3326,-4,-7,23
3,337,101218,723,-15838,-3295,-3,15,22
3,338,101223,600,-15882,-3302,-7,36,23
3,339,101228,461,-15892,-3252,-9,56,23
3,340,101233,355,-15879,-3216,-11,76,25
3,341,101238,377,-15840,-3124,-19,99,30
3,342,101243,571,-15850,-3085,-22,120,35
3,343,101248,630,-15854,-3074,-23,140,38
3,344,101253,502,-15801,-3152,-24,150,39
3,345,101258,316,-15809,-3236,-28,152,41
3,346,101263,306,-15842,-3220,-33,142,48
3,347,101268,285,-15887,-3216,-33,125,55
3,348,101273,212,-15966,-3221,-31,101,58
3,349,101278,98,-16069,-3260,-34,73,61
3,350,101283,100,-16112,-3267,-35,39,67
3,351,101288,146,-16073,-3331,-34,13,74
3,352,101293,268,-16042,-3479,-35,1,80
3,353,101298,289,-16070,-3611,-36,-6,85
3,354,101303,230,-16039,-3670,-38,-13,92
3,355,101308,247,-16075,-3675,-41,-16,97
3,356,101313,266,-16080,-3626,-42,-13,108
3,357,101318,293,-16080,-3619,-46,-6,116
3,358,101323,222,-16038,-3718,-46,4,121
3,359,101328,63,-16104,-3660,-51,12,128
3,360,101333,-38,-16141,-3582,-57,13,137
3,361,101338,-51,-16184,-3556,-60,15,146
3,362,101343,-11,-16144,-3544,-63,26,151
3,363,101348,-24,-16052,-3597,-65,39,162
3,364,101353,-89,-16095,-3653,-69,45,169
3,365,101358,-111,-16097,-3749,-72,45,178
3,366,101363,-208,-16081,-3718,-76,42,186
3,367,101368,-307,-16087,-3656,-82,33,194
3,368,101373,-326,-16144,-3711,-85,27,204
3,369,101378,-254,-16130,-3800,-88,25,215
3,370,101383,-185,-16037,-3845,-92,21,224
3,371,101388,-241,-15937,-3889,-97,19,231
3,372,101393,-367,-15914,-3917,-98,18,235
3,373,101398,-499,-15878,-3972,-101,12,245
3,374,101403,-602,-15916,-3903,-107,-2,257
3,375,101408,-599,-15890,-3819,-111,-12,265
3,376,101413,-637,-15858,-3924,-114,-18,272
3,377,101418,-577,-15787,-3980,-116,-18,281
3,378,101423,-547,-15705,-4019,-119,-14,289
3,379,101428,-552,-15709,-4105,-124,-5,296
3,380,101433,-607,-15760,-4114,-131,9,305
3,381,101438,-573,-15795,-4119,-135,24,315
3,382,101443,-433,-15790,-4033,-144,43,326
3,383,101448,-394,-15763,-3990,-148,66,333
3,384,101453,-547,-15776,-3993,-150,85,337
3,385,101458,-734,-15753,-4021,-154,91,345
3,386,101463,-798,-15761,-4024,-161,88,356
3,387,101468,-738,-15748,-3932,-166,81,368
3,388,101473,-760,-15866,-3890,-170,73,373
3,389,101478,-820,-15911,-3863,-174,61,380
3,390,101483,-795,-15855,-3929,-178,46,387
3,391,101488,-748,-15830,-4039,-182,35,397
3,392,101493,-754,-15895,-4061,-186,31,406
3,393,101498,-713,-15969,-4006,-195,34,414
3,394,101503,-670,-16023,-3957,-197,39,423
3,395,101508,-676,-16018,-4059,-199,49,427
3,396,101513,-767,-16002,-4178,-204,61,432
3,397,101518,-868,-16010,-4161,-211,64,439
3,398,101523,-910,-16016,-4018,-215,61,451
3,399,101528,-896,-16080,-4043,-220,62,459
3,400,101533,-863,-16104,-4162,-224,65,465
3,401,101538,-854,-16043,-4120,-227,64,475
3,402,101543,-873,-16029,-4056,-232,66,479
3,403,101548,-873,-15987,-4024,-235,71,485
3,404,101553,-1021,-16000,-4068,-237,76,490
3,405,101558,-1172,-15990,-4095,-240,73,496
3,406,101563,-1256,-16007,-4053,-243,58,500
3,407,101568,-1341,-16035,-4013,-248,35,506
3,408,101573,-1349,-16085,-4012,-250,4,517
3,409,101578,-1215,-16100,-4152,-253,-3,523
3,410,101583,-1119,-16077,-4189,-257,0,526
3,411,101588,-1089,-16044,-4185,-258,4,532
3,412,101593,-1138,-16011,-4179,-261,12,536
3,413,101598,-1129,-15957,-4198,-264,21,542
3,414,101603,-1130,-15933,-4213,-267,30,546
3,415,101608,-1249,-15905,-4145,-269,33,548
3,416,101613,-1471,-15854,-4082,-269,24,549
3,417,101618,-1589,-15809,-4080,-268,5,554
3,418,101623,-1586,-15779,-4192,-267,-15,559
3,419,101628,-1665,-15881,-4218,-267,-32,563
3,420,101633,-1629,-15880,-4197,-268,-44,565
3,421,101638,-1560,-15844,-4248,-268,-50,569
3,422,101643,-1466,-15786,-4430,-269,-39,571
3,423,101648,-1377,-15722,-4603,-270,-14,573
3,424,101653,-1310,-15652,-4610,-275,19,577
3,425,101658,-1384,-15655,-4557,-274,49,579
3,426,101663,-1579,-15625,-4443,-274,73,578
3,427,101668,-1763,-15652,-4304,-275,82,580
3,428,101673,-1862,-15720,-4241,-276,82,583
3,429,101678,-1985,-15729,-4160,-276,81,582
3,430,101683,-2080,-15709,-4163,-276,76,582
3,431,101688,-2104,-15687,-4220,-275,64,581
3,432,101693,-1998,-15630,-4384,-274,53,580
3,433,101698,-1919,-15636,-4369,-275,47,581
3,434,101703,-1805,-15634,-4273,-275,41,582
3,435,101708,-1794,-15634,-4287,-276,34,582
3,436,101713,-1836,-15620,-4234,-273,24,581
3,437,101718,-2114,-15621,-4315,-270,7,576
3,438,101723,-2334,-15653,-4327,-265,-18,573
3,439,101728,-2385,-15712,-4339,-266,-45,576
3,440,101733,-2208,-15721,-4378,-267,-65,576
3,441,101738,-2009,-15726,-4478,-265,-71,572
3,442,101743,-2031,-15674,-4600,-259,-70,567
3,443,101748,-2170,-15651,-4758,-257,-69,562
3,444,101753,-2322,-15622,-4826,-255,-67,559
3,445,101758,-2390,-15652,-4803,-253,-63,557
3,446,101763,-2386,-15664,-4813,-253,-52,554
3,447,101768,-2457,-15641,-4843,-250,-42,546
3,448,101773,-2560,-15638,-4885,-249,-34,538
3,449,101778,-2597,-15586,-5001,-246,-26,534
3,450,101783,-2619,-15561,-5035,-243,-9,527
3,451,101788,-2647,-15531,-5026,-242,14,520
3,452,101793,-2655,-15498,-5051,-239,33,511
3,453,101798,-2659,-15525,-5067,-236,47,504
3,454,101803,-2642,-15486,-5088,-233,60,497
3,455,101808,-2639,-15437,-5040,-232,74,488
3,456,101813,-2599,-15403,-5051,-230,91,481
3,457,101818,-2567,-15386,-4994,-228,106,472
3,458,101823,-2689,-15295,-4966,-222,111,461
3,459,101828,-2880,-15340,-4904,-216,103,452
3,460,101833,-3016,-15380,-4833,-213,83,441
3,461,101838,-2984,-15409,-4865,-209,60,433
3,462,101843,-2905,-15373,-4856,-205,40,426
3,463,101848,-2835,-15352,-4902,-199,22,413
3,464,101853,-2828,-15348,-5005,-193,9,401
3,465,101858,-2838,-15344,-5071,-188,-2,389
3,466,101863,-2922,-15345,-5110,-183,-10,378
3,467,101868,-2958,-15291,-5068,-179,-12,369
3,468,101873,-2913,-15327,-5066,-175,-11,358
3,469,101878,-2895,-15326,-5103,-167,-10,345
3,470,101883,-2952,-15272,-5085,-160,-7,330
3,471,101888,-3072,-15345,-5094,-155,-8,316
3,472,101893,-3142,-15380,-5124,-153,-4,307
3,473,101898,-2905,-15372,-5052,-152,6,301
3,474,101903,-2510,-15354,-5055,-147,34,291
3,475,101908,-2451,-15329,-5107,-141,68,272
3,476,101913,-2699,-15249,-5150,-134,90,254
3,477,101918,-2962,-15212,-5145,-129,99,242
3,478,101923,-3023,-15219,-5030,-127,95,232
3,479,101928,-2923,-15220,-4889,-121,86,224
3,480,101933,-2896,-15187,-4799,-114,73,210
3,481,101938,-3036,-15118,-4898,-103,46,190
3,482,101943,-3146,-15011,-5033,-93,11,173
3,483,101948,-3146,-14894,-5129,-84,-27,163
3,484,101953,-3050,-14787,-5121,-76,-62,151
3,485,101958,-3039,-14754,-5036,-62,-91,134
3,486,101963,-3238,-14720,-5034,-50,-120,116
3,487,101968,-3350,-14767,-5096,-43,-156,100
3,488,101973,-3448,-14833,-5028,-34,-183,85
3,489,101978,-3271,-14930,-5028,-34,-192,75
3,490,101983,-2592,-14983,-5055,-32,-170,70
3,491,101988,-1885,-14960,-5125,-24,-115,57
3,492,101993,-1872,-14873,-5181,-16,-42,28
3,493,101998,-2539,-14859,-5194,-10,15,2
3,494,102003,-3105,-14860,-5134,-5,44,-9
3,495,102008,-3009,-14888,-4948,-3,59,-11
3,496,102013,-2774,-14978,-4761,1,69,-21
3,497,102018,-2726,-15053,-4538,13,65,-43
3,498,102023,-2958,-15116,-4531,25,31,-66
3,499,102028,-3128,-15110,-4662,36,-23,-85
3,500,102033,-3089,-15115,-4752,45,-77,-97
3,501,102038,-2885,-15137,-4752,55,-122,-109
3,502,102043,-2842,-15175,-4665,68,-162,-126
3,503,102048,-3184,-15215,-4672,81,-209,-150
3,504,102053,-3432,-15294,-4807,90,-262,-168
3,505,102058,-3155,-15322,-4914,94,-297,-175
3,506,102063,-2545,-15342,-4918,101,-292,-185
3,507,102068,-2360,-15336,-4971,110,-251,-207
3,508,102073,-2328,-15378,-5004,115,-203,-229
3,509,102078,-2341,-15357,-5083,121,-159,-244
3,510,102083,-2264,-15359,-5084,126,-112,-257
3,511,102088,-2270,-15457,-4951,128,-54,-271
3,512,102093,-2438,-15535,-4680,131,-3,-289
3,513,102098,-2561,-15573,-4581,138,24,-306
3,514,102103,-2604,-15569,-4679,147,29,-324
3,515,102108,-2630,-15533,-4704,153,18,-340
3,516,102113,-2721,-15511,-4605,160,-4,-355
3,517,102118,-2729,-15582,-4432,169,-34,-368
3,518,102123,-2696,-15563,-4426,177,-66,-386
3,519,102128,-2729,-15604,-4498,187,-102,-404
3,520,102133,-2796,-15638,-4606,193,-137,-420
3,521,102138,-2603,-15711,-4607,200,-166,-430
3,522,102143,-2239,-15686,-4598,205,-178,-440
3,523,102148,-2048,-15641,-4594,213,-169,-458
3,524,102153,-2188,-15659,-4711,218,-160,-479
3,525,102158,-2409,-15697,-4694,223,-157,-496
3,526,102163,-2399,-15712,-4681,227,-160,-506
3,527,102168,-2268,-15781,-4576,231,-151,-517
3,528,102173,-2197,-15817,-4486,234,-137,-532
3,529,102178,-2126,-15875,-4532,238,-127,-545
3,530,102183,-1962,-15877,-4605,240,-123,-558
3,531,102188,-1853,-15833,-4664,243,-107,-573
3,532,102193,-1937,-15815,-4618,247,-89,-589
3,533,102198,-2091,-15848,-4531,252,-82,-602
3,534,102203,-2133,-15798,-4539,255,-80,-613
3,535,102208,-2127,-15820,-4507,259,-87,-624
3,536,102213,-2086,-15770,-4537,261,-97,-638
3,537,102218,-2110,-15734,-4493,268,-111,-653
3,538,102223,-2117,-15738,-4549,271,-126,-667
3,539,102228,-2063,-15730,-4606,278,-146,-676
3,540,102233,-2176,-15744,-4598,283,-163,-692
3,541,102238,-2302,-15777,-4579,285,-185,-706
3,542,102243,-2293,-15761,-4544,286,-201,-713
3,543,102248,-1916,-15814,-4520,288,-207,-718
3,544,102253,-1635,-15809,-4509,289,-196,-732
3,545,102258,-1863,-15875,-4572,292,-178,-755
3,546,102263,-2239,-15911,-4684,296,-170,-772
3,547,102268,-2208,-15908,-4704,294,-165,-777
3,548,102273,-1689,-15912,-4655,292,-142,-777
3,549,102278,-1363,-15908,-4589,295,-101,-789
3,550,102283,-1585,-15923,-4549,299,-68,-813
3,551,102288,-1944,-15987,-4548,300,-61,-828
3,552,102293,-2013,-15941,-4581,304,-71,-835
3,553,102298,-1807,-15917,-4523,304,-74,-838
3,554,102303,-1695,-15973,-4367,303,-73,-848
3,555,102308,-1744,-15986,-4244,308,-75,-862
3,556,102313,-1659,-15969,-4311,313,-88,-871
3,557,102318,-1396,-15900,-4384,314,-99,-876
3,558,102323,-1308,-15844,-4498,316,-96,-885
3,559,102328,-1414,-15895,-4348,318,-88,-896
3,560,102333,-1425,-15923,-4169,316,-91,-900
3,561,102338,-1075,-15910,-4163,320,-93,-911
3,562,102343,-1309,-15839,-4219,323,-87,-924
3,563,102348,-1522,-15820,-4251,323,-93,-928
3,564,102353,-1376,-15796,-4149,323,-109,-926
3,565,102358,-1109,-15743,-4132,326,-117,-929
3,566,102363,-1069,-15664,-4194,328,-117,-939
3,567,102368,-1273,-15649,-4312,332,-123,-948
3,568,102373,-1416,-15636,-4410,335,-139,-950
3,569,102378,-1262,-15690,-4358,336,-153,-950
3,570,102383,-946,-15764,-4233,336,-156,-948
3,571,102388,-768,-15889,-4177,340,-145,-953
3,572,102393,-772,-15964,-4183,344,-135,-959
3,573,102398,-823,-16043,-4208,349,-132,-961
3,574,102403,-860,-16157,-4230,351,-124,-962
3,575,102408,-708,-16318,-4163,343,-110,-956
3,576,102413,-102,-16355,-3963,338,-84,-944
3,577,102418,393,-16382,-3802,340,-39,-940
3,578,102423,319,-16431,-3827,344,14,-950
3,579,102428,-118,-16484,-3885,344,55,-954
3,580,102433,-220,-16517,-3793,338,71,-941
3,581,102438,194,-16485,-3558,334,82,-923
3,582,102443,537,-16487,-3286,336,106,-914
3,583,102448,499,-16544,-3230,339,118,-914
3,584,102453,280,-16494,-3290,342,100,-912
3,585,102458,252,-16417,-3289,342,60,-899
3,586,102463,481,-16351,-3183,341,20,-883
3,587,102468,579,-16344,-2980,343,-9,-873
3,588,102473,495,-16352,-2931,343,-44,-867
3,589,102478,417,-16321,-3000,347,-90,-859
3,590,102483,455,-16225,-3169,351,-133,-850
3,591,102488,575,-16115,-3287,349,-160,-833
3,592,102493,822,-16121,-3219,342,-168,-818
3,593,102498,917,-16158,-3030,340,-164,-810
3,594,102503,809,-16271,-3044,339,-152,-801
3,595,102508,1048,-16321,-3089,331,-130,-780
3,596,102513,1696,-16301,-3087,319,-90,-759
3,597,102518,2065,-16178,-2978,315,-29,-748
3,598,102523,1790,-16122,-2887,314,35,-744
3,599,102528,1467,-16671,-2535,310,67,-734
3,600,102533,10949,-23733,-8462,274,151,-586
3,601,102538,19478,-9596,-31325,486,2976,61
3,602,102543,-8883,-15665,-30840,-217,7118,126
3,603,102548,-32768,-11393,19829,-998,8726,-2030
3,604,102553,-30869,-16824,32767,-1086,3303,-1188
3,605,102558,4437,-10281,23286,570,-3786,2634
3,606,102563,32767,-31044,-28058,768,-5421,3245
3,607,102568,4067,-13569,-32768,329,-1047,-1535
3,608,102573,-32768,-5103,7669,-387,-35,-2453
3,609,102578,-22141,-12297,32767,-357,-4179,322
3,610,102583,22375,-15383,4614,291,-7126,2879
3,611,102588,32767,-26642,-32768,305,-4519,1963
3,612,102593,12719,-9719,-29453,328,551,-1332
3,613,102598,-27807,-12387,-1299,-249,1455,-1375
3,614,102603,-23596,-10384,10598,-240,-875,256
3,615,102608,20832,-17587,-2780,-126,-2273,1961
3,616,102613,31911,-21359,-16182,-4,284,1169
3,617,102618,5420,-14946,-11633,24,3078,-578
3,618,102623,-19597,-14113,-542,-163,2736,-679
3,619,102628,-22070,-12970,4576,-176,799,124
3,620,102633,2721,-15713,-939,-127,-572,1044
3,621,102638,13169,-15938,-4253,-77,122,800
3,622,102643,7476,-16944,-2963,-63,853,209
3,623,102648,-8253,-16181,363,-55,679,-142
3,624,102653,-11407,-14756,-304,-22,-374,123
3,625,102658,274,-15063,-5014,-10,-1096,519
3,626,102663,6425,-14618,-5056,-39,-788,463
3,627,102668,7973,-16970,-3615,-60,-417,376
3,628,102673,-134,-15972,-1535,-18,-124,120
3,629,102678,-1786,-16309,-3507,-5,-371,239
3,630,102683,588,-15216,-6487,5,-460,305
3,631,102688,3039,-15522,-5953,-52,-257,345
3,632,102693,3978,-16708,-3215,-78,61,330
3,633,102698,681,-16335,-800,-62,323,218
3,634,102703,624,-16996,-2636,-33,233,266
3,635,102708,-416,-15588,-4772,-15,187,210
3,636,102713,805,-16221,-5007,-57,119,276
3,637,102718,550,-16080,-2756,-69,206,245
3,638,102723,805,-16639,-1149,-66,228,261
3,639,102728,947,-16535,-1969,-26,194,237
3,640,102733,622,-16132,-3863,-13,105,203
3,641,102738,585,-16364,-4605,-28,4,209
3,642,102743,-134,-16031,-3154,-41,8,189
3,643,102748,828,-16499,-2076,-45,8,229
3,644,102753,1537,-16223,-2569,-17,42,211
3,645,102758,1917,-16340,-3965,-7,38,195
3,646,102763,784,-16195,-4315,-10,27,154
3,647,102768,66,-16324,-3394,-26,-10,154
3,648,102773,391,-16297,-2569,-27,-8,172
3,649,102778,1447,-16418,-2771,-18,38,182
3,650,102783,1765,-16368,-3394,-9,99,158
3,651,102788,1077,-16406,-3584,-12,108,126
3,652,102793,439,-16371,-3268,-19,72,117
3,653,102798,503,-16317,-2880,-21,60,125
3,654,102803,1282,-16388,-2877,-20,95,134
3,655,102808,1457,-16316,-3097,-17,166,117
3,656,102813,1153,-16379,-3206,-18,194,102
3,657,102818,660,-16259,-3050,-18,169,88
3,658,102823,806,-16272,-2935,-19,128,92
3,659,102828,980,-16225,-2923,-14,126,90
3,660,102833,1078,-16236,-2954,-13,144,87
3,661,102838,866,-16254,-2896,-13,141,74
3,662,102843,745,-16167,-2918,-12,97,69
3,663,102848,825,-16154,-2977,-10,46,66
3,664,102853,1006,-16144,-3019,-6,21,63
3,665,102858,1136,-16178,-2990,-8,26,58
3,666,102863,980,-16155,-2979,-7,36,48
3,667,102868,899,-16205,-3093,-4,22,45
3,668,102873,847,-16174,-3145,-2,1,39
3,669,102878,956,-16297,-3167,-3,-11,39
3,670,102883,961,-16250,-3085,-5,6,32
3,671,102888,1062,-16214,-3131,-4,30,32
3,672,102893,1106,-16138,-3206,-1,51,26
3,673,102898,1035,-16118,-3291,-1,60,19
3,674,102903,934,-16139,-3163,-4,58,12
3,675,102908,754,-16117,-3019,-5,57,11
3,676,102913,730,-16167,-2951,-5,57,12
3,677,102918,798,-16154,-3010,-1,60,7
3,678,102923,897,-16147,-3136,0,52,4
3,679,102928,809,-16067,-3165,2,40,-3
3,680,102933,753,-16071,-3105,0,22,-6
3,681,102938,857,-16052,-3117,3,12,-5
3,682,102943,933,-16077,-3222,5,13,-7
3,683,102948,915,-16101,-3275,7,12,-13
3,684,102953,758,-16068,-3246,9,3,-19
3,685,102958,677,-16060,-3228,9,-11,-21
3,686,102963,689,-16055,-3182,10,-12,-23
3,687,102968,702,-16049,-3222,13,-6,-24
3,688,102973,670,-16040,-3285,14,5,-30
3,689,102978,690,-16014,-3293,14,7,-33
3,690,102983,662,-16002,-3207,16,5,-33
3,691,102988,658,-15993,-3205,16,10,-37
3,692,102993,680,-15903,-3210,18,25,-43
3,693,102998,609,-15953,-3211,16,44,-46
3,694,103003,657,-15948,-3156,16,56,-45
3,695,103008,733,-15953,-3120,15,61,-48
3,696,103013,804,-15972,-3061,18,64,-51
3,697,103018,704,-15960,-3122,19,73,-54
3,698,103023,573,-15989,-3035,20,75,-58
3,699,103028,466,-16006,-3004,20,70,-58
3,700,103033,536,-16032,-3035,18,63,-59
3,701,103038,722,-16061,-2994,17,60,-59
3,702,103043,816,-16046,-2953,20,62,-62
3,703,103048,837,-16085,-3048,21,69,-65
3,704,103053,717,-16040,-3144,22,75,-68
3,705,103058,646,-16072,-3118,22,77,-67
3,706,103063,605,-16103,-3038,19,68,-65
3,707,103068,654,-16137,-2939,20,62,-66
3,708,103073,743,-16166,-2938,22,57,-65
3,709,103078,749,-16165,-3023,23,55,-66
3,710,103083,688,-16124,-3078,25,51,-70
3,711,103088,631,-16094,-3048,23,42,-68
3,712,103093,744,-16104,-2994,23,35,-65
3,713,103098,827,-16097,-3027,24,39,-64
3,714,103103,833,-16140,-3064,24,43,-65
3,715,103108,711,-16104,-3072,24,41,-66
3,716,103113,754,-16002,-3146,25,37,-62
3,717,103118,751,-15996,-3146,23,42,-59
3,718,103123,717,-16030,-3081,24,46,-58
3,719,103128,652,-16058,-3070,24,45,-59
3,720,103133,592,-16058,-3035,26,34,-59
3,721,103138,576,-16102,-3028,26,23,-56
3,722,103143,697,-16110,-3080,25,14,-53
3,723,103148,847,-16127,-3082,25,11,-51
3,724,103153,834,-16140,-3056,25,11,-51
3,725,103158,775,-16124,-3068,27,8,-52
3,726,103163,686,-16045,-3121,30,-3,-49
3,727,103168,607,-16045,-3081,30,-10,-47
3,728,103173,550,-16125,-3038,28,-16,-45
3,729,103178,541,-16218,-2969,27,-26,-42
3,730,103183,710,-16245,-3030,28,-34,-40
3,731,103188,875,-16196,-3192,28,-35,-38
3,732,103193,927,-16118,-3267,29,-25,-40
3,733,103198,836,-16079,-3229,28,-14,-39
3,734,103203,746,-16045,-3157,27,-8,-35
3,735,103208,686,-16036,-3124,27,-4,-32
3,736,103213,640,-16042,-3102,27,-1,-32
3,737,103218,584,-16055,-3083,28,-3,-30
3,738,103223,525,-16095,-3060,26,-14,-28
3,739,103228,631,-16117,-3097,25,-24,-29
3,740,103233,836,-16120,-3201,25,-23,-24
3,741,103238,882,-16085,-3232,26,-20,-25
3,742,103243,754,-16048,-3176,24,-14,-28
3,743,103248,668,-16035,-3212,22,-6,-26
3,744,103253,607,-15948,-3225,22,-2,-22
3,745,103258,645,-15905,-3248,23,0,-18
3,746,103263,606,-15880,-3247,22,-1,-19
3,747,103268,516,-15823,-3237,23,-12,-18
3,748,103273,430,-15808,-3232,25,-28,-16
3,749,103278,412,-15842,-3224,25,-46,-14
3,750,103283,491,-15880,-3189,25,-57,-13
3,751,103288,554,-15941,-3187,24,-59,-13
3,752,103293,597,-15947,-3245,23,-56,-14
3,753,103298,691,-15938,-3375,21,-49,-13
3,754,103303,828,-15931,-3448,20,-28,-11
3,755,103308,899,-15921,-3428,18,-2,-12
3,756,103313,871,-15930,-3304,14,31,-13
3,757,103318,730,-15984,-3264,14,55,-12
3,758,103323,611,-15962,-3189,14,66,-12
3,759,103328,547,-15933,-3161,13,71,-11
3,760,103333,544,-15913,-3138,12,63,-9
3,761,103338,486,-15972,-3046,12,52,-6
3,762,103343,477,-16037,-3002,13,33,-7
3,763,103348,435,-16086,-2958,13,10,-5
3,764,103353,541,-16096,-3040,13,-14,-4
3,765,103358,648,-16160,-3094,12,-28,0
3,766,103363,753,-16174,-3130,11,-32,-1
3,767,103368,913,-16237,-3177,9,-28,-1
3,768,103373,927,-16267,-3199,7,-18,-1
3,769,103378,926,-16281,-3174,4,-9,-1
3,770,103383,872,-16236,-3133,5,3,4
3,771,103388,828,-16234,-3135,5,16,6
3,772,103393,738,-16257,-3051,4,21,8
3,773,103398,692,-16273,-2927,2,12,9
3,774,103403,690,-16267,-2876,3,0,9
3,775,103408,587,-16306,-2876,2,-14,9
3,776,103413,546,-16392,-2862,-1,-32,11
3,777,103418,700,-16344,-2881,-1,-44,14
3,778,103423,824,-16300,-2946,-1,-45,18
3,779,103428,926,-16311,-3082,-3,-31,16
3,780,103433,989,-16360,-3140,-6,-12,15
3,781,103438,950,-16381,-3200,-10,4,19
3,782,103443,964,-16295,-3165,-12,26,21
3,783,103448,972,-16213,-3032,-15,47,21
3,784,103453,873,-16166,-3017,-16,65,23
3,785,103458,753,-16194,-2991,-17,72,23
3,786,103463,671,-16139,-3046,-18,64,24
3,787,103468,673,-16126,-2967,-18,49,27
3,788,103473,654,-16047,-2929,-18,30,30
3,789,103478,664,-16040,-2938,-16,5,29
3,790,103483,700,-16078,-2980,-16,-16,30
3,791,103488,707,-16031,-3032,-17,-36,33
3,792,103493,752,-15943,-3046,-18,-52,35
3,793,103498,766,-15996,-3090,-18,-64,35
3,794,103503,796,-15985,-3119,-17,-68,37
3,795,103508,753,-15981,-3119,-18,-68,37
3,796,103513,757,-16005,-3119,-16,-65,36
3,797,103518,655,-16024,-3152,-18,-61,37
3,798,103523,650,-16056,-3118,-23,-55,35
3,799,103528,666,-16072,-3070,-22,-42,36
3,800,103533,753,-16060,-3144,-24,-27,39
3,801,103538,833,-16033,-3169,-26,-6,40
3,802,103543,796,-16000,-3221,-28,11,38
3,803,103548,650,-16019,-3093,-31,19,35
3,804,103553,550,-16015,-3033,-30,18,36
3,805,103558,612,-16001,-3127,-29,22,40
3,806,103563,700,-15980,-3221,-29,23,41
3,807,103568,740,-15944,-3242,-26,23,40
3,808,103573,690,-15961,-3176,-28,18,42
3,809,103578,646,-16026,-3160,-29,9,39
3,810,103583,597,-16026,-3162,-24,3,40
3,811,103588,533,-16014,-3157,-26,3,41
3,812,103593,589,-16035,-3175,-23,-1,42
3,813,103598,623,-15999,-3174,-22,-5,41
3,814,103603,620,-16026,-3161,-22,-9,42
3,815,103608,623,-16047,-3136,-21,-14,43
3,816,103613,631,-16098,-3160,-21,-16,42
3,817,103618,553,-16101,-3090,-21,-13,40
3,818,103623,486,-16096,-3032,-22,-10,40
3,819,103628,553,-16117,-3058,-21,-5,41
3,820,103633,599,-16098,-3159,-21,2,40
3,821,103638,635,-16067,-3242,-21,16,39
3,822,103643,685,-16045,-3214,-24,28,40
3,823,103648,640,-16008,-3113,-25,37,41
3,824,103653,632,-15989,-3124,-22,45,39
3,825,103658,603,-15982,-3129,-22,52,39
3,826,103663,510,-15982,-3098,-22,51,38
3,827,103668,454,-16015,-3053,-22,39,38
3,828,103673,473,-16020,-3088,-20,21,41
3,829,103678,552,-16041,-3073,-16,4,40
3,830,103683,648,-16049,-3127,-18,-3,39
3,831,103688,621,-16055,-3167,-17,-6,38
3,832,103693,603,-16072,-3105,-17,-8,37
3,833,103698,695,-16102,-3126,-17,-11,39
3,834,103703,814,-16055,-3201,-17,-6,39
3,835,103708,838,-15998,-3275,-16,10,39
3,836,103713,733,-15961,-3209,-16,23,38
3,837,103718,628,-16028,-3084,-19,24,37
3,838,103723,614,-16114,-3017,-18,22,36
3,839,103728,677,-16121,-3107,-15,25,39
3,840,103733,698,-16093,-3114,-14,28,39
3,841,103738,608,-16064,-3066,-16,27,37
3,842,103743,590,-16100,-3014,-18,24,37
3,843,103748,620,-16105,-3030,-16,15,41
3,844,103753,665,-16159,-3099,-14,14,40
3,845,103758,660,-16161,-3110,-14,11,36
3,846,103763,632,-16165,-3090,-14,7,34
3,847,103768,618,-16144,-3124,-13,4,36
3,848,103773,703,-16122,-3144,-14,7,38
3,849,103778,806,-16141,-3185,-16,15,38
3,850,103783,826,-16121,-3190,-15,24,35
3,851,103788,727,-16143,-3094,-14,28,34
3,852,103793,578,-16151,-3117,-14,20,34
3,853,103798,525,-16114,-3119,-15,10,33
3,854,103803,588,-16096,-3133,-15,-2,34
3,855,103808,607,-16104,-3095,-13,-6,33
3,856,103813,611,-16043,-3143,-12,-9,32
3,857,103818,568,-16034,-3245,-9,-12,30
3,858,103823,570,-16034,-3215,-10,-15,30
3,859,103828,572,-15984,-3226,-10,-14,30
3,860,103833,591,-15982,-3234,-10,-8,30
3,861,103838,606,-15991,-3170,-8,-1,29
3,862,103843,570,-16016,-3176,-8,5,26
3,863,103848,532,-16036,-3160,-9,6,23
3,864,103853,570,-16033,-3121,-6,4,24
3,865,103858,566,-16059,-3123,-6,4,24
3,866,103863,563,-16062,-3097,-8,5,20
3,867,103868,535,-16072,-3106,-7,-1,20
3,868,103873,511,-16072,-3117,-6,-11,19
3,869,103878,562,-16093,-3140,-4,-17,18
3,870,103883,590,-16097,-3186,-4,-18,16
3,871,103888,559,-16104,-3133,-5,-18,14
3,872,103893,617,-16065,-3177,-6,-11,12
3,873,103898,659,-16060,-3217,-6,0,12
3,874,103903,620,-16048,-3186,-7,10,8
3,875,103908,544,-16032,-3144,-6,17,7
3,876,103913,515,-16010,-3180,-5,20,5
3,877,103918,607,-15960,-3228,-3,21,7
3,878,103923,603,-15955,-3226,-2,22,6
3,879,103928,599,-15897,-3254,-3,17,3
3,880,103933,579,-15888,-3182,0,10,1
3,881,103938,560,-15920,-3103,1,5,2
3,882,103943,597,-15960,-3100,-1,2,1
3,883,103948,647,-15999,-3120,0,1,0
3,884,103953,652,-16031,-3137,2,2,-2
3,885,103958,637,-16011,-3121,3,1,-2
3,886,103963,619,-16044,-3086,3,-7,-4
3,887,103968,568,-16058,-3117,3,-14,-5
3,888,103973,545,-16131,-3068,4,-19,-6
3,889,103978,529,-16172,-3055,3,-20,-7
3,890,103983,547,-16173,-3091,3,-19,-9
3,891,103988,552,-16157,-3121,3,-14,-10
3,892,103993,569,-16171,-3217,5,-9,-10
3,893,103998,604,-16153,-3230,3,5,-12
3,894,104003,643,-16175,-3124,1,20,-15
3,895,104008,674,-16158,-3105,1,30,-15
3,896,104013,674,-16182,-3144,2,37,-14
3,897,104018,633,-16160,-3162,2,45,-16
3,898,104023,592,-16148,-3134,0,42,-18
3,899,104028,627,-16198,-3050,3,37,-16
3,900,104033,695,-16173,-3089,2,31,-16
3,901,104038,719,-16157,-3117,3,27,-19
3,902,104043,678,-16122,-3048,3,23,-20
3,903,104048,612,-16098,-3025,2,13,-19
3,904,104053,592,-16140,-3000,2,0,-20
3,905,104058,602,-16163,-3035,5,-13,-19
3,906,104063,647,-16130,-3024,5,-25,-18
3,907,104068,659,-16140,-2996,4,-31,-20
3,908,104073,630,-16135,-3039,5,-36,-21
3,909,104078,597,-16149,-3130,5,-39,-21
3,910,104083,631,-16154,-3130,5,-40,-20
3,911,104088,675,-16174,-3099,5,-38,-20
3,912,104093,632,-16150,-3152,4,-34,-21
3,913,104098,628,-16152,-3175,7,-31,-21
3,914,104103,637,-16124,-3209,6,-21,-19
3,915,104108,675,-16109,-3298,3,-9,-20
3,916,104113,707,-16069,-3272,3,4,-21
3,917,104118,612,-16036,-3194,4,14,-22
3,918,104123,548,-16007,-3185,3,19,-24
3,919,104128,494,-16003,-3191,5,21,-22
3,920,104133,493,-16044,-3143,6,18,-21
3,921,104138,550,-16087,-3077,5,12,-21
3,922,104143,551,-16106,-3033,6,3,-20
3,923,104148,572,-16116,-3023,6,-8,-22
3,924,104153,535,-16082,-3055,7,-22,-24
3,925,104158,524,-16107,-3093,10,-38,-22
3,926,104163,492,-16147,-3075,14,-52,-21
3,927,104168,518,-16185,-3067,13,-63,-19
3,928,104173,554,-16221,-3092,15,-70,-20
3,929,104178,535,-16230,-3079,15,-66,-21
3,930,104183,544,-16219,-3166,12,-59,-21
3,931,104188,696,-16226,-3229,11,-43,-20
3,932,104193,768,-16171,-3229,12,-22,-20
3,933,104198,720,-16138,-3214,13,2,-21
3,934,104203,576,-16134,-3159,10,17,-23
3,935,104208,480,-16109,-3156,9,24,-23
3,936,104213,447,-16121,-3090,12,30,-19
3,937,104218,451,-16090,-3129,12,35,-19
3,938,104223,479,-16093,-3160,13,38,-18
3,939,104228,484,-16084,-3182,13,35,-18
3,940,104233,536,-16107,-3137,14,28,-17
3,941,104238,557,-16077,-3097,15,25,-18
3,942,104243,586,-16062,-3137,15,26,-19
3,943,104248,548,-16031,-3124,15,25,-18
3,944,104253,525,-15975,-3140,17,18,-18
3,945,104258,529,-16007,-3102,17,11,-17
3,946,104263,573,-15980,-3061,17,7,-16
3,947,104268,609,-15983,-3116,19,2,-15
3,948,104273,607,-15998,-3101,21,-6,-14
3,949,104278,608,-15955,-3112,20,-18,-13
3,950,104283,589,-15976,-3086,20,-27,-12
3,951,104288,575,-15988,-3034,19,-30,-14
3,952,104293,558,-15981,-3031,21,-31,-13
3,953,104298,589,-15988,-3100,21,-30,-11
3,954,104303,612,-15962,-3121,22,-27,-8
3,955,104308,653,-16002,-3112,19,-20,-8
3,956,104313,636,-15962,-3124,19,-11,-8
3,957,104318,619,-15982,-3069,20,0,-8
3,958,104323,608,-16002,-3079,18,11,-5
3,959,104328,552,-16068,-3145,16,17,-5
3,960,104333,597,-16117,-3062,14,20,-5
3,961,104338,638,-16126,-3026,16,19,-2
3,962,104343,624,-16127,-3020,15,16,-2
3,963,104348,595,-16126,-3041,16,16,-2
3,964,104353,552,-16122,-3020,16,10,-2
3,965,104358,527,-16103,-3008,15,1,1
3,966,104363,569,-16097,-2989,15,-9,3
3,967,104368,653,-16119,-2939,15,-18,3
3,968,104373,698,-16113,-3001,16,-24,3
3,969,104378,662,-16066,-3030,16,-29,3
3,970,104383,642,-16034,-3006,16,-36,2
3,971,104388,634,-16037,-3008,15,-41,4
3,972,104393,636,-16082,-3086,15,-42,6
3,973,104398,637,-16090,-3109,14,-44,7
3,974,104403,603,-16149,-3137,14,-45,8
3,975,104408,646,-16086,-3108,12,-48,9
3,976,104413,671,-16111,-3118,14,-43,9
3,977,104418,639,-16076,-3166,12,-31,9
3,978,104423,651,-16084,-3198,12,-19,10
3,979,104428,566,-16089,-3139,11,-13,9
3,980,104433,507,-16087,-3158,10,-10,8
3,981,104438,534,-16113,-3073,9,-6,8
3,982,104443,531,-16134,-3104,9,-1,10
3,983,104448,498,-16154,-3080,9,2,9
3,984,104453,499,-16156,-3113,10,3,8
3,985,104458,519,-16152,-3056,8,0,9
3,986,104463,571,-16152,-3098,7,-1,8
3,987,104468,551,-16100,-3125,10,0,7
3,988,104473,462,-16077,-3121,9,-4,7
3,989,104478,422,-16114,-3097,9,-11,8
3,990,104483,452,-16167,-3061,8,-17,9
3,991,104488,525,-16189,-3071,9,-23,8
3,992,104493,639,-16154,-3136,9,-23,8
3,993,104498,661,-16142,-3185,8,-22,8
3,994,104503,616,-16113,-3200,7,-20,5
3,995,104508,540,-16103,-3161,7,-24,6
3,996,104513,485,-16124,-3110,6,-28,6
3,997,104518,471,-16163,-3107,8,-30,5
3,998,104523,465,-16164,-3112,7,-29,6
3,999,104528,497,-16190,-3125,6,-28,4
