event_id,seq,ts_us,ax,ay,az,gx,gy,gz
2,0,55045,1100,-15450,-5224,-14,61,-2
2,1,55050,983,-15464,-5055,-12,56,0
2,2,55055,1024,-15447,-4933,-10,41,0
2,3,55060,1092,-15459,-4958,-9,28,-1
2,4,55065,995,-15415,-5033,-7,-9,-2
2,5,55070,1080,-15411,-5018,-6,-37,0
2,6,55075,1174,-15531,-5109,-7,-49,-2
2,7,55080,1220,-15586,-5193,-8,-44,-3
2,8,55085,1271,-15544,-5172,-8,-32,-3
2,9,55090,1231,-15577,-5139,-11,-25,-5
2,10,55095,1143,-15573,-5198,-11,-11,-6
2,11,55100,1094,-15598,-5218,-15,3,-7
2,12,55105,1094,-15591,-5239,-17,12,-8
2,13,55110,1131,-15555,-5193,-17,21,-9
2,14,55115,1100,-15571,-5144,-18,28,-10
2,15,55120,1044,-15543,-5215,-19,27,-11
2,16,55125,1007,-15479,-5225,-18,26,-13
2,17,55130,1046,-15447,-5245,-17,24,-11
2,18,55135,1069,-15407,-5292,-16,28,-13
2,19,55140,1094,-15427,-5244,-17,34,-13
2,20,55145,1071,-15402,-5193,-18,31,-14
2,21,55150,1099,-15340,-5152,-18,18,-13
2,22,55155,1048,-15340,-5123,-12,3,-15
2,23,55160,1054,-15349,-5109,-13,-4,-16
2,24,55165,993,-15366,-5135,-12,-17,-15
2,25,55170,1084,-15390,-5093,-10,-34,-13
2,26,55175,1154,-15440,-5074,-11,-47,-11
2,27,55180,1173,-15538,-5023,-11,-50,-16
2,28,55185,1136,-15552,-5113,-10,-50,-16
2,29,55190,1182,-15594,-5174,-11,-42,-18
2,30,55195,1207,-15612,-5277,-13,-29,-19
2,31,55200,1233,-15612,-5227,-14,-10,-19
2,32,55205,1177,-15613,-5231,-15,0,-19
2,33,55210,1088,-15597,-5177,-15,8,-21
2,34,55215,1073,-15543,-5219,-14,14,-21
2,35,55220,1057,-15524,-5304,-15,21,-20
2,36,55225,1017,-15474,-5296,-15,26,-20
2,37,55230,971,-15490,-5257,-15,24,-22
2,38,55235,1095,-15474,-5189,-16,17,-20
2,39,55240,1246,-15410,-5092,-14,17,-17
2,40,55245,1286,-15435,-5078,-12,28,-21
2,41,55250,1142,-15434,-5063,-12,36,-27
2,42,55255,917,-15453,-5117,-12,25,-26
2,43,55260,906,-15488,-5069,-10,-4,-21
2,44,55265,1098,-15551,-4981,-8,-33,-19
2,45,55270,1239,-15492,-5040,-4,-41,-17
2,46,55275,1263,-15494,-5145,-1,-35,-22
2,47,55280,1172,-15508,-5195,-1,-30,-25
2,48,55285,1099,-15599,-5345,-4,-31,-25
2,49,55290,1116,-15568,-5344,-5,-29,-22
2,50,55295,1241,-15559,-5261,-5,-17,-18
2,51,55300,1336,-15544,-5238,-6,8,-16
2,52,55305,1330,-15540,-5277,-6,41,-22
2,53,55310,1092,-15567,-5253,-8,69,-28
2,54,55315,942,-15560,-5229,-10,74,-30
2,55,55320,954,-15564,-5108,-8,59,-23
2,56,55325,1104,-15518,-5095,-7,50,-20
2,57,55330,1146,-15547,-5107,-6,56,-24
2,58,55335,1016,-15562,-5109,-4,58,-29
2,59,55340,1037,-15544,-5083,-4,46,-29
2,60,55345,1114,-15488,-5110,0,26,-24
2,61,55350,1209,-15429,-5110,1,20,-22
2,62,55355,1227,-15406,-5027,0,20,-25
2,63,55360,1196,-15419,-4963,2,15,-26
2,64,55365,1183,-15407,-4906,6,-9,-24
2,65,55370,1188,-15412,-4933,7,-41,-22
2,66,55375,1177,-15434,-4963,10,-61,-25
2,67,55380,1118,-15475,-4996,10,-77,-23
2,68,55385,1176,-15490,-5055,12,-91,-19
2,69,55390,1302,-15476,-5154,13,-93,-16
2,70,55395,1407,-15467,-5296,12,-76,-16
2,71,55400,1350,-15524,-5457,8,-41,-23
2,72,55405,1233,-15469,-5465,5,-7,-25
2,73,55410,1159,-15407,-5382,5,19,-20
2,74,55415,1148,-15396,-5326,2,44,-20
2,75,55420,1118,-15427,-5261,0,69,-22
2,76,55425,1069,-15414,-5133,0,83,-21
2,77,55430,1044,-15418,-5045,3,75,-20
2,78,55435,1016,-15395,-5010,5,60,-21
2,79,55440,1007,-15343,-5050,5,51,-20
2,80,55445,1022,-15384,-5071,7,36,-20
2,81,55450,1066,-15368,-4977,9,15,-18
2,82,55455,1135,-15428,-4960,12,-6,-15
2,83,55460,1189,-15468,-5016,13,-21,-16
2,84,55465,1229,-15512,-5142,14,-29,-17
2,85,55470,1249,-15498,-5295,14,-33,-16
2,86,55475,1293,-15458,-5192,14,-33,-14
2,87,55480,1307,-15478,-5101,11,-27,-12
2,88,55485,1314,-15516,-5090,13,-20,-13
2,89,55490,1185,-15537,-5114,12,-15,-16
2,90,55495,1052,-15508,-5151,14,-20,-17
2,91,55500,955,-15456,-5145,16,-31,-14
2,92,55505,1047,-15432,-5166,17,-40,-10
2,93,55510,1283,-15377,-5253,16,-34,-8
2,94,55515,1421,-15354,-5336,15,-15,-6
2,95,55520,1321,-15370,-5292,12,17,-11
2,96,55525,1131,-15429,-5238,10,44,-15
2,97,55530,1006,-15462,-5209,8,59,-13
2,98,55535,1014,-15496,-5121,8,58,-8
2,99,55540,1150,-15466,-4983,8,52,-6
2,100,55545,1191,-15482,-4937,8,52,-8
2,101,55550,1055,-15534,-4973,10,50,-11
2,102,55555,958,-15550,-5025,11,33,-14
2,103,55560,1016,-15575,-5114,13,9,-8
2,104,55565,1246,-15545,-5095,12,-9,-1
2,105,55570,1441,-15545,-5060,12,-5,-2
2,106,55575,1443,-15616,-5053,12,5,-5
2,107,55580,1267,-15571,-5043,13,1,-7
2,108,55585,1041,-15596,-5081,14,-13,-5
2,109,55590,997,-15599,-5126,16,-31,0
2,110,55595,1193,-15568,-5163,15,-41,2
2,111,55600,1370,-15515,-5130,14,-38,2
2,112,55605,1424,-15539,-5155,12,-28,2
2,113,55610,1338,-15493,-5190,12,-14,1
2,114,55615,1174,-15499,-5192,11,1,0
2,115,55620,1077,-15522,-5233,8,12,-1
2,116,55625,1092,-15496,-5219,9,12,2
2,117,55630,1177,-15421,-5145,10,8,7
2,118,55635,1241,-15459,-5146,9,14,7
2,119,55640,1174,-15495,-5232,7,29,1
2,120,55645,1041,-15505,-5254,7,38,1
2,121,55650,1045,-15466,-5199,7,32,5
2,122,55655,1166,-15446,-5162,7,24,7
2,123,55660,1147,-15486,-5139,7,33,5
2,124,55665,1102,-15557,-5143,7,34,3
2,125,55670,1052,-15546,-5210,8,22,0
2,126,55675,1055,-15490,-5157,10,6,3
2,127,55680,1087,-15481,-5100,10,-5,6
2,128,55685,1153,-15516,-5126,8,-8,6
2,129,55690,1249,-15501,-5165,10,-9,6
2,130,55695,1267,-15485,-5191,11,-12,5
2,131,55700,1226,-15536,-5248,9,-13,4
2,132,55705,1246,-15510,-5291,8,-9,6
2,133,55710,1263,-15463,-5249,5,-1,8
2,134,55715,1329,-15394,-5200,5,11,9
2,135,55720,1341,-15424,-5215,4,31,6
2,136,55725,1153,-15438,-5191,1,47,1
2,137,55730,1012,-15419,-5169,1,45,5
2,138,55735,1137,-15453,-5151,1,29,11
2,139,55740,1259,-15451,-5080,0,25,11
2,140,55745,1268,-15412,-5075,0,33,7
2,141,55750,1169,-15401,-5092,0,37,6
2,142,55755,1104,-15430,-5154,1,31,5
2,143,55760,1053,-15407,-5192,1,18,9
2,144,55765,1161,-15397,-5088,0,5,11
2,145,55770,1217,-15490,-5041,-1,2,10
2,146,55775,1317,-15456,-5041,-1,2,8
2,147,55780,1257,-15419,-5108,1,-1,8
2,148,55785,1254,-15431,-5180,0,-9,11
2,149,55790,1243,-15514,-5151,-2,-13,9
2,150,55795,1254,-15517,-5075,-5,-12,9
2,151,55800,1310,-15476,-5042,-3,-9,11
2,152,55805,1313,-15491,-5019,-3,0,12
2,153,55810,1230,-15577,-5096,-6,9,9
2,154,55815,1093,-15655,-5141,-7,8,6
2,155,55820,1056,-15639,-5089,-10,-2,6
2,156,55825,1200,-15608,-5059,-9,-14,10
2,157,55830,1354,-15568,-5105,-11,-10,11
2,158,55835,1342,-15539,-5224,-13,13,7
2,159,55840,1148,-15585,-5224,-14,28,4
2,160,55845,1172,-15533,-5058,-16,7,12
2,161,55850,1255,-15522,-5062,-14,4,12
2,162,55855,1258,-15479,-5128,-13,9,9
2,163,55860,1183,-15479,-5132,-13,5,6
2,164,55865,1089,-15532,-5103,-12,-17,8
2,165,55870,1080,-15594,-5166,-11,-37,9
2,166,55875,1247,-15559,-5207,-11,-45,10
2,167,55880,1353,-15532,-5270,-14,-35,11
2,168,55885,1424,-15552,-5337,-15,-16,7
2,169,55890,1342,-15520,-5254,-16,8,3
2,170,55895,1230,-15474,-5198,-19,21,1
2,171,55900,1142,-15444,-5201,-19,25,6
2,172,55905,1090,-15504,-5178,-18,27,5
2,173,55910,1038,-15501,-5084,-20,24,1
2,174,55915,1021,-15508,-5049,-19,17,3
2,175,55920,1113,-15470,-5098,-19,2,4
2,176,55925,1288,-15434,-5150,-17,-7,6
2,177,55930,1314,-15373,-5175,-17,0,2
2,178,55935,1208,-15430,-5211,-20,16,-3
2,179,55940,1118,-15494,-5124,-22,18,-1
2,180,55945,1131,-15468,-5043,-22,4,2
2,181,55950,1280,-15490,-4989,-21,-10,5
2,182,55955,1384,-15479,-5065,-21,-11,3
2,183,55960,1262,-15467,-5094,-20,-4,-1
2,184,55965,1144,-15466,-5126,-20,-2,-1
2,185,55970,1106,-15480,-5107,-20,-15,1
2,186,55975,1146,-15598,-5157,-21,-29,3
2,187,55980,1282,-15592,-5216,-22,-35,3
2,188,55985,1328,-15508,-5255,-20,-24,0
2,189,55990,1259,-15520,-5277,-22,0,-2
2,190,55995,1161,-15512,-5296,-25,25,-3
2,191,56000,1095,-15520,-5348,-25,34,-4
2,192,56005,1059,-15527,-5253,-25,27,-1
2,193,56010,1109,-15546,-5199,-24,18,-1
2,194,56015,1142,-15473,-5222,-24,22,-5
2,195,56020,1094,-15403,-5218,-23,29,-7
2,196,56025,1082,-15409,-5292,-22,36,-5
2,197,56030,1124,-15437,-5256,-22,39,-4
2,198,56035,1182,-15430,-5165,-23,39,-3
2,199,56040,1190,-15428,-5056,-21,35,-5
2,200,56045,1090,-15473,-5029,-22,33,-7
2,201,56050,978,-15480,-5131,-21,29,-12
2,202,56055,1050,-15542,-5182,-18,18,-7
2,203,56060,1213,-15549,-5225,-17,5,-2
2,204,56065,1413,-15562,-5261,-18,-1,-3
2,205,56070,1453,-15529,-5237,-17,6,-7
2,206,56075,1352,-15482,-5167,-16,15,-10
2,207,56080,1125,-15522,-5242,-15,22,-8
2,208,56085,967,-15605,-5280,-16,20,-8
2,209,56090,1009,-15541,-5234,-14,2,-5
2,210,56095,1239,-15536,-5184,-12,-14,-1
2,211,56100,1418,-15540,-5213,-10,-15,-2
2,212,56105,1357,-15519,-5329,-12,-1,-8
2,213,56110,1212,-15517,-5383,-13,18,-13
2,214,56115,1160,-15455,-5329,-14,30,-8
2,215,56120,1165,-15449,-5217,-16,38,-3
2,216,56125,1323,-15440,-5148,-15,43,0
2,217,56130,1352,-15478,-5102,-16,53,-5
2,218,56135,1161,-15462,-5094,-17,57,-10
2,219,56140,1019,-15442,-5067,-16,52,-11
2,220,56145,1056,-15437,-5067,-12,34,-4
2,221,56150,1295,-15407,-5140,-11,24,1
2,222,56155,1383,-15380,-5128,-13,26,0
2,223,56160,1358,-15424,-5078,-16,31,-8
2,224,56165,1219,-15455,-4999,-16,26,-9
2,225,56170,1133,-15454,-4975,-14,11,-5
2,226,56175,1182,-15455,-5039,-13,-5,-2
2,227,56180,1286,-15468,-5148,-11,-18,1
2,228,56185,1329,-15507,-5176,-12,-26,-2
2,229,56190,1303,-15453,-5215,-10,-29,-5
2,230,56195,1307,-15424,-5219,-10,-24,-1
2,231,56200,1326,-15420,-5306,-10,-11,0
2,232,56205,1319,-15401,-5342,-12,7,-2
2,233,56210,1247,-15394,-5263,-15,20,-4
2,234,56215,1230,-15389,-5156,-14,21,-2
2,235,56220,1303,-15421,-5098,-13,22,0
2,236,56225,1329,-15425,-5102,-13,29,0
2,237,56230,1300,-15414,-5108,-15,33,-1
2,238,56235,1111,-15401,-4972,-13,30,-4
2,239,56240,1035,-15449,-4963,-12,14,-3
2,240,56245,1198,-15436,-5002,-11,-7,3
2,241,56250,1403,-15426,-5114,-10,-15,5
2,242,56255,1416,-15417,-5202,-12,-8,-1
2,243,56260,1238,-15398,-5150,-13,1,-4
2,244,56265,1109,-15415,-5092,-13,-8,-1
2,245,56270,1171,-15414,-5140,-11,-23,4
2,246,56275,1289,-15439,-5164,-8,-29,7
2,247,56280,1287,-15396,-5135,-8,-26,2
2,248,56285,1132,-15457,-5082,-7,-27,-2
2,249,56290,1129,-15508,-5091,-5,-40,1
2,250,56295,1176,-15510,-5185,-5,-52,3
2,251,56300,1275,-15558,-5232,-6,-51,3
2,252,56305,1356,-15467,-5255,-6,-39,3
2,253,56310,1397,-15409,-5228,-8,-23,2
2,254,56315,1402,-15400,-5236,-9,-2,3
2,255,56320,1294,-15359,-5226,-10,19,0
2,256,56325,1136,-15370,-5247,-11,32,-2
2,257,56330,1004,-15351,-5168,-11,36,-1
2,258,56335,1067,-15354,-5106,-8,32,3
2,259,56340,1213,-15341,-5173,-6,26,4
2,260,56345,1269,-15361,-5238,-5,23,1
2,261,56350,1128,-15341,-5203,-5,16,-2
2,262,56355,1054,-15354,-5095,-2,-3,0
2,263,56360,1070,-15374,-5134,2,-23,2
2,264,56365,1141,-15479,-5247,4,-36,0
2,265,56370,1146,-15507,-5238,6,-47,-1
2,266,56375,1171,-15573,-5254,7,-54,-1
2,267,56380,1241,-15650,-5310,7,-52,0
2,268,56385,1375,-15698,-5443,6,-36,0
2,269,56390,1394,-15659,-5462,5,-6,-1
2,270,56395,1291,-15636,-5346,3,28,-3
2,271,56400,1221,-15645,-5207,2,52,-2
2,272,56405,1116,-15647,-5157,2,64,-3
2,273,56410,1077,-15674,-5096,1,61,-5
2,274,56415,1017,-15638,-5051,4,49,-4
2,275,56420,1002,-15579,-5076,7,38,-4
2,276,56425,1126,-15525,-5113,8,26,-1
2,277,56430,1205,-15474,-5131,10,19,-3
2,278,56435,1277,-15459,-5146,11,19,-3
2,279,56440,1270,-15471,-5138,10,18,-1
2,280,56445,1240,-15511,-5122,11,10,-5
2,281,56450,1188,-15494,-5049,13,0,-4
2,282,56455,1196,-15444,-5012,14,-11,-1
2,283,56460,1214,-15461,-5070,15,-24,1
2,284,56465,1347,-15479,-5087,16,-40,2
2,285,56470,1354,-15537,-5052,15,-51,1
2,286,56475,1233,-15581,-5030,16,-60,0
2,287,56480,1230,-15612,-5122,15,-61,-1
2,288,56485,1371,-15557,-5322,17,-50,3
2,289,56490,1423,-15528,-5452,13,-23,2
2,290,56495,1339,-15511,-5369,10,11,-2
2,291,56500,1274,-15486,-5218,9,32,-2
2,292,56505,1216,-15502,-5185,9,45,1
2,293,56510,1168,-15462,-5178,8,53,0
2,294,56515,1110,-15406,-5125,10,57,-1
2,295,56520,993,-15377,-5114,9,47,-2
2,296,56525,1016,-15378,-5042,11,17,2
2,297,56530,1134,-15348,-5070,14,-13,6
2,298,56535,1197,-15367,-5155,16,-31,3
2,299,56540,1233,-15383,-5248,18,-37,0
2,300,56545,1248,-15352,-5239,17,-41,2
2,301,56550,1408,-15346,-5217,16,-42,6
2,302,56555,1475,-15364,-5275,15,-37,5
2,303,56560,1341,-15440,-5237,15,-20,1
2,304,56565,1128,-15453,-5223,13,-11,0
2,305,56570,1053,-15531,-5124,13,-16,4
2,306,56575,1187,-15495,-5130,14,-24,7
2,307,56580,1334,-15485,-5123,15,-26,8
2,308,56585,1329,-15476,-5159,14,-19,3
2,309,56590,1232,-15512,-5185,10,-12,-1
2,310,56595,1161,-15497,-5249,9,-10,2
2,311,56600,1165,-15510,-5364,11,-4,4
2,312,56605,1284,-15482,-5444,10,5,4
2,313,56610,1360,-15450,-5358,8,18,5
2,314,56615,1349,-15407,-5311,7,38,6
2,315,56620,1231,-15418,-5224,6,55,1
2,316,56625,1139,-15436,-5165,8,48,1
2,317,56630,1136,-15396,-5093,7,24,3
2,318,56635,1119,-15401,-5084,7,3,-1
2,319,56640,1170,-15401,-5069,12,-13,1
2,320,56645,1353,-15366,-5162,14,-27,5
2,321,56650,1430,-15389,-5293,13,-32,6
2,322,56655,1367,-15457,-5253,10,-28,0
2,323,56660,1197,-15506,-5086,8,-29,-4
2,324,56665,1160,-15587,-4984,9,-42,2
2,325,56670,1274,-15564,-5081,11,-51,4
2,326,56675,1353,-15535,-5233,11,-34,0
2,327,56680,1247,-15518,-5350,7,-14,-5
2,328,56685,1141,-15551,-5285,5,-13,-7
2,329,56690,1209,-15587,-5232,5,-24,-1
2,330,56695,1344,-15507,-5273,6,-18,-2
2,331,56700,1371,-15451,-5362,4,7,-6
2,332,56705,1270,-15461,-5402,1,34,-10
2,333,56710,1201,-15508,-5371,0,45,-8
2,334,56715,1164,-15551,-5232,-1,46,-9
2,335,56720,1142,-15564,-5125,-1,44,-9
2,336,56725,1131,-15570,-5093,-3,42,-12
2,337,56730,1084,-15543,-5066,-1,37,-12
2,338,56735,1105,-15528,-5067,1,26,-14
2,339,56740,1123,-15460,-5024,-1,8,-14
2,340,56745,1162,-15529,-5053,1,-12,-13
2,341,56750,1290,-15577,-5111,1,-29,-14
2,342,56755,1321,-15549,-5213,2,-38,-15
2,343,56760,1327,-15528,-5256,2,-37,-17
2,344,56765,1379,-15462,-5285,1,-30,-16
2,345,56770,1491,-15445,-5258,-2,-16,-14
2,346,56775,1505,-15463,-5273,-2,1,-15
2,347,56780,1329,-15483,-5259,-5,17,-20
2,348,56785,1090,-15474,-5161,-4,19,-22
2,349,56790,987,-15493,-5099,-5,7,-21
2,350,56795,1175,-15470,-5191,-5,-9,-16
2,351,56800,1443,-15420,-5296,-4,-9,-16
2,352,56805,1443,-15423,-5294,-5,5,-21
2,353,56810,1259,-15463,-5254,-7,20,-25
2,354,56815,1113,-15442,-5210,-6,19,-24
2,355,56820,1160,-15443,-5196,-5,10,-20
2,356,56825,1277,-15417,-5142,-7,9,-18
2,357,56830,1272,-15438,-5072,-9,10,-21
2,358,56835,1176,-15436,-4997,-6,3,-24
2,359,56840,1171,-15383,-4985,-2,-17,-23
2,360,56845,1212,-15366,-5139,-3,-34,-23
2,361,56850,1287,-15389,-5244,-4,-36,-22
2,362,56855,1341,-15328,-5152,-6,-30,-24
2,363,56860,1380,-15302,-5116,-7,-31,-23
2,364,56865,1387,-15257,-5133,-5,-28,-19
2,365,56870,1331,-15283,-5187,-5,-13,-22
2,366,56875,1186,-15252,-5270,-8,-4,-24
2,367,56880,1158,-15221,-5236,-7,-5,-20
2,368,56885,1284,-15135,-5174,-7,-11,-18
2,369,56890,1314,-15149,-5169,-7,-14,-19
2,370,56895,1229,-15177,-5256,-5,-10,-21
2,371,56900,1132,-15153,-5289,-5,-5,-22
2,372,56905,1020,-15171,-5278,-4,-10,-18
2,373,56910,1105,-15168,-5205,-3,-19,-15
2,374,56915,1160,-15195,-5149,-1,-25,-10
2,375,56920,1110,-15279,-5130,0,-26,-14
2,376,56925,1034,-15303,-5101,0,-29,-17
2,377,56930,913,-15285,-5198,2,-37,-15
2,378,56935,932,-15267,-5251,2,-42,-12
2,379,56940,1138,-15262,-5238,-1,-39,-5
2,380,56945,1271,-15271,-5031,-2,-28,0
2,381,56950,1243,-15297,-4980,-4,-16,-1
2,382,56955,1045,-15301,-4972,-5,-7,-2
2,383,56960,828,-15317,-5035,-5,-10,2
2,384,56965,787,-15264,-5147,-10,-15,8
2,385,56970,1029,-15182,-5122,-16,-17,21
2,386,56975,1445,-15111,-5004,-15,-18,33
2,387,56980,1635,-15181,-4972,-20,5,34
2,388,56985,1430,-15235,-4982,-25,35,33
2,389,56990,1000,-15262,-5154,-26,54,36
2,390,56995,757,-15158,-5358,-32,60,51
2,391,57000,1018,-15070,-5351,-38,59,70
2,392,57005,1360,-15097,-5193,-42,67,85
2,393,57010,1312,-15185,-5139,-47,95,87
2,394,57015,833,-15251,-5264,-50,120,87
2,395,57020,357,-15219,-5463,-53,115,96
2,396,57025,171,-15120,-5606,-54,85,116
2,397,57030,378,-15095,-5590,-59,55,137
2,398,57035,626,-15092,-5500,-61,48,152
2,399,57040,732,-15174,-5596,-62,66,160
2,400,57045,580,-15310,-5892,-67,98,167
2,401,57050,182,-15563,-6107,-78,134,171
2,402,57055,-104,-15670,-5953,-86,161,185
2,403,57060,6,-15723,-5612,-97,172,209
2,404,57065,295,-15820,-5596,-102,198,228
2,405,57070,401,-15933,-5748,-109,249,233
2,406,57075,-8,-15936,-5875,-115,294,235
2,407,57080,-503,-16042,-5824,-123,295,247
2,408,57085,-665,-16126,-5732,-133,266,268
2,409,57090,-353,-16136,-5509,-137,235,293
2,410,57095,5,-16097,-5497,-141,228,307
2,411,57100,88,-16098,-5667,-145,236,314
2,412,57105,-76,-15998,-5785,-150,239,325
2,413,57110,-280,-15999,-5775,-159,221,339
2,414,57115,-431,-15968,-5740,-165,183,361
2,415,57120,-340,-15950,-5506,-172,142,384
2,416,57125,-159,-15843,-5331,-173,97,402
2,417,57130,-132,-15755,-5403,-175,52,414
2,418,57135,-349,-15701,-5712,-178,12,421
2,419,57140,-542,-15592,-6092,-185,-24,436
2,420,57145,-447,-15349,-6303,-192,-50,464
2,421,57150,94,-15188,-6345,-201,-41,495
2,422,57155,600,-15089,-6426,-215,26,513
2,423,57160,578,-14997,-6459,-229,132,516
2,424,57165,-52,-14978,-6444,-246,218,518
2,425,57170,-691,-14875,-6285,-261,254,533
2,426,57175,-848,-14681,-6040,-269,244,566
2,427,57180,-627,-14665,-5869,-276,229,588
2,428,57185,-476,-14740,-5939,-283,231,596
2,429,57190,-775,-14723,-6031,-289,226,600
2,430,57195,-1070,-14756,-6003,-299,188,615
2,431,57200,-907,-14827,-6022,-306,132,638
2,432,57205,-546,-14894,-5937,-313,92,659
2,433,57210,-462,-14953,-5873,-319,75,670
2,434,57215,-727,-15095,-5886,-326,62,672
2,435,57220,-1020,-15108,-6087,-326,25,684
2,436,57225,-1004,-15191,-6470,-333,-18,704
2,437,57230,-698,-15229,-6756,-341,-26,725
2,438,57235,-295,-15209,-6593,-357,2,741
2,439,57240,-36,-15244,-6291,-367,52,753
2,440,57245,-161,-15275,-6351,-377,112,754
2,441,57250,-609,-15343,-6712,-389,178,753
2,442,57255,-1083,-15242,-6852,-399,218,762
2,443,57260,-1271,-15260,-6581,-412,217,780
2,444,57265,-1233,-15367,-6257,-415,200,794
2,445,57270,-1182,-15452,-6176,-419,193,798
2,446,57275,-1281,-15429,-6385,-423,187,797
2,447,57280,-1361,-15392,-6665,-425,161,801
2,448,57285,-1472,-15400,-6863,-428,129,806
2,449,57290,-1504,-15485,-6764,-435,111,809
2,450,57295,-1466,-15511,-6599,-440,98,815
2,451,57300,-1296,-15530,-6520,-440,79,825
2,452,57305,-1149,-15515,-6685,-438,66,823
2,453,57310,-1399,-15593,-6891,-441,71,818
2,454,57315,-1728,-15648,-6995,-446,65,815
2,455,57320,-1713,-15668,-6968,-448,37,822
2,456,57325,-1315,-15632,-6886,-449,14,835
2,457,57330,-899,-15610,-6873,-453,38,835
2,458,57335,-939,-15550,-6945,-453,96,824
2,459,57340,-1296,-15506,-7118,-457,144,813
2,460,57345,-1570,-15454,-7173,-460,161,810
2,461,57350,-1594,-15380,-7086,-463,157,816
2,462,57355,-1443,-15261,-6882,-463,154,816
2,463,57360,-1345,-15169,-6754,-461,153,809
2,464,57365,-1453,-15097,-6795,-455,150,797
2,465,57370,-1697,-15033,-6874,-452,128,786
2,466,57375,-2009,-15010,-6964,-446,82,777
2,467,57380,-2167,-14968,-7011,-441,29,772
2,468,57385,-1953,-14909,-6962,-435,-14,774
2,469,57390,-1579,-14897,-7080,-430,-30,772
2,470,57395,-1247,-14981,-7189,-427,-5,760
2,471,57400,-1206,-15100,-7271,-429,44,746
2,472,57405,-1390,-15149,-7136,-433,136,724
2,473,57410,-1470,-15165,-6878,-437,182,715
2,474,57415,-1560,-15092,-6639,-434,216,702
2,475,57420,-1610,-15111,-6527,-431,226,687
2,476,57425,-1761,-15140,-6572,-424,215,670
2,477,57430,-1953,-15037,-6642,-418,190,654
2,478,57435,-1927,-14968,-6685,-413,155,642
2,479,57440,-1634,-14899,-6745,-402,118,637
2,480,57445,-1307,-14783,-6794,-393,94,625
2,481,57450,-1256,-14703,-6813,-385,92,603
2,482,57455,-1591,-14613,-6874,-377,90,583
2,483,57460,-1957,-14481,-6900,-365,60,567
2,484,57465,-2143,-14443,-6923,-352,8,557
2,485,57470,-2137,-14453,-6976,-340,-34,544
2,486,57475,-2054,-14431,-7103,-331,-48,531
2,487,57480,-1743,-14467,-7359,-326,-35,516
2,488,57485,-1186,-14532,-7615,-321,13,507
2,489,57490,-661,-14490,-7670,-320,107,495
2,490,57495,-548,-14456,-7355,-323,232,473
2,491,57500,-903,-14570,-6947,-324,347,443
2,492,57505,-1637,-14704,-6617,-320,412,415
2,493,57510,-2383,-14719,-6477,-313,412,393
2,494,57515,-2531,-14654,-6382,-300,360,380
2,495,57520,-2093,-14601,-6257,-285,284,374
2,496,57525,-1608,-14549,-6214,-270,223,360
2,497,57530,-1422,-14560,-6255,-258,188,333
2,498,57535,-1651,-14502,-6382,-246,149,309
2,499,57540,-1855,-14464,-6456,-230,90,292
2,500,57545,-1831,-14422,-6533,-209,25,283
2,501,57550,-1768,-14388,-6580,-197,-21,268
2,502,57555,-1693,-14305,-6663,-183,-51,246
2,503,57560,-1594,-14266,-6836,-167,-80,225
2,504,57565,-1564,-14234,-7002,-152,-100,207
2,505,57570,-1570,-14180,-7112,-138,-104,188
2,506,57575,-1597,-14156,-7186,-128,-93,166
2,507,57580,-1624,-14197,-7184,-117,-78,146
2,508,57585,-1562,-14160,-7221,-101,-55,126
2,509,57590,-1583,-14109,-7372,-92,-19,105
2,510,57595,-1686,-14088,-7431,-85,34,84
2,511,57600,-1540,-14104,-7327,-76,89,68
2,512,57605,-1275,-14182,-7089,-65,140,53
2,513,57610,-1327,-14255,-6937,-55,188,24
2,514,57615,-1880,-14372,-6864,-44,222,-12
2,515,57620,-2371,-14363,-6718,-29,207,-37
2,516,57625,-2283,-14421,-6721,-9,151,-47
2,517,57630,-1818,-14443,-6725,9,105,-61
2,518,57635,-1386,-14415,-6727,26,91,-86
2,519,57640,-1341,-14407,-6669,42,82,-115
2,520,57645,-1501,-14451,-6659,60,52,-141
2,521,57650,-1717,-14453,-6715,78,12,-165
2,522,57655,-1842,-14375,-6708,98,-31,-185
2,523,57660,-1861,-14335,-6655,118,-75,-205
2,524,57665,-1646,-14319,-6607,137,-127,-224
2,525,57670,-1449,-14271,-6562,159,-185,-245
2,526,57675,-1497,-14305,-6626,181,-237,-277
2,527,57680,-1848,-14274,-6699,199,-281,-307
2,528,57685,-2036,-14294,-7047,219,-318,-333
2,529,57690,-1807,-14391,-7421,234,-334,-351
2,530,57695,-1184,-14334,-7576,246,-315,-368
2,531,57700,-532,-14219,-7576,257,-251,-391
2,532,57705,-417,-14238,-7567,264,-138,-425
2,533,57710,-1009,-14254,-7730,270,6,-470
2,534,57715,-1561,-14291,-7863,276,133,-498
2,535,57720,-1430,-14293,-7581,283,210,-509
2,536,57725,-866,-14237,-6998,294,255,-524
2,537,57730,-747,-14294,-6432,307,297,-561
2,538,57735,-1341,-14418,-5998,324,309,-613
2,539,57740,-2011,-14459,-6004,352,243,-645
2,540,57745,-2161,-14428,-6167,380,116,-656
2,541,57750,-1690,-14444,-6308,406,-11,-670
2,542,57755,-1011,-14474,-6284,425,-104,-695
2,543,57760,-484,-14622,-6291,445,-171,-724
2,544,57765,-217,-14656,-6531,467,-212,-758
2,545,57770,-355,-14693,-6822,485,-221,-792
2,546,57775,-724,-14726,-6987,497,-199,-825
2,547,57780,-896,-14813,-6943,506,-183,-848
2,548,57785,-574,-15039,-6852,518,-189,-866
2,549,57790,-62,-15266,-6766,530,-181,-892
2,550,57795,-149,-15345,-7080,538,-123,-934
2,551,57800,-197,-15432,-7384,535,-11,-970
2,552,57805,358,-15278,-7083,532,102,-974
2,553,57810,1368,-15285,-6352,534,216,-981
2,554,57815,1360,-15399,-5729,540,347,-1028
2,555,57820,-16,-15711,-5343,546,433,-1095
2,556,57825,-1481,-15797,-5112,566,357,-1125
2,557,57830,-1509,-15814,-5057,594,140,-1115
2,558,57835,-406,-15856,-4991,616,-68,-1110
2,559,57840,720,-16046,-4888,630,-180,-1137
2,560,57845,1088,-16112,-5023,644,-238,-1181
2,561,57850,1114,-16049,-5655,658,-294,-1215
2,562,57855,1018,-15953,-6189,668,-322,-1234
2,563,57860,1053,-15975,-6337,667,-307,-1251
2,564,57865,1133,-16015,-5974,668,-286,-1270
2,565,57870,1183,-16035,-5572,674,-286,-1291
2,566,57875,1160,-16006,-5525,679,-299,-1315
2,567,57880,1241,-15952,-5520,684,-312,-1334
2,568,57885,1478,-15890,-5565,689,-326,-1348
2,569,57890,1547,-16002,-5538,687,-328,-1372
2,570,57895,1248,-16090,-5458,688,-326,-1401
2,571,57900,914,-16144,-5614,691,-348,-1425
2,572,57905,873,-16044,-5836,693,-386,-1438
2,573,57910,1525,-16080,-5986,691,-388,-1439
2,574,57915,2116,-16074,-5988,692,-336,-1453
2,575,57920,1928,-16178,-6087,688,-245,-1490
2,576,57925,1097,-16253,-6202,682,-168,-1526
2,577,57930,703,-16308,-6204,679,-154,-1532
2,578,57935,1283,-16231,-6047,680,-178,-1515
2,579,57940,2216,-16212,-5869,674,-149,-1519
2,580,57945,2409,-16240,-5536,668,-59,-1552
2,581,57950,1877,-16416,-5188,667,-4,-1584
2,582,57955,1435,-16397,-5214,673,-38,-1593
2,583,57960,1302,-16351,-5406,679,-111,-1590
2,584,57965,1387,-16339,-5311,678,-166,-1591
2,585,57970,1664,-16417,-4927,679,-221,-1591
2,586,57975,1998,-16544,-4717,683,-294,-1591
2,587,57980,2075,-16702,-5146,686,-352,-1600
2,588,57985,2091,-16704,-5745,676,-364,-1610
2,589,57990,2370,-16610,-5742,662,-350,-1599
2,590,57995,2983,-16530,-5497,649,-312,-1581
2,591,58000,3276,-16628,-5458,639,-218,-1580
2,592,58005,2865,-16653,-5652,623,-88,-1594
2,593,58010,2349,-16515,-5475,606,-3,-1595
2,594,58015,2404,-16400,-4990,596,7,-1567
2,595,58020,2713,-16332,-4558,592,6,-1545
2,596,58025,2752,-16228,-4287,589,33,-1541
2,597,58030,2527,-16033,-4050,589,27,-1531
2,598,58035,2350,-15910,-4084,595,-53,-1509
2,599,58040,-264,-19888,-574,593,-189,-1488
2,600,58045,-5072,-24695,414,505,-1097,-1872
2,601,58050,-32768,-10439,-6927,526,-1702,-2379
2,602,58055,-32768,-2569,-31478,-523,-861,-2143
2,603,58060,-13674,-3567,-21126,-1564,-2625,555
2,604,58065,32767,-16249,26902,-906,-8897,4907
2,605,58070,32767,-28189,25019,976,-13673,7231
2,606,58075,31446,-18954,-32210,1483,-7839,3939
2,607,58080,1724,-8674,-32768,-616,9641,-3221
2,608,58085,-29733,6903,-18586,-2822,20109,-7462
2,609,58090,-32768,-10946,7673,-3940,18374,-6720
2,610,58095,-28055,-20795,32767,-1960,2694,740
2,611,58100,-8882,-22985,24740,909,-10711,7289
2,612,58105,22113,-19825,-11108,1374,-13345,6062
2,613,58110,32767,-4607,-32768,664,-6125,1421
2,614,58115,17976,-13569,-25095,-1727,3779,-1486
2,615,58120,2083,-17110,9911,-2200,7211,-3496
2,616,58125,-20676,-16981,32767,-1429,5055,-2400
2,617,58130,-10451,-17665,12012,-155,-280,1148
2,618,58135,8211,-9785,-31036,296,-2164,2081
2,619,58140,6338,-13079,-32768,-593,398,643
2,620,58145,-7224,-15860,-7114,-1209,2246,-382
2,621,58150,-11612,-17816,29928,-1072,1326,-196
2,622,58155,5653,-18122,23635,-379,-1071,934
2,623,58160,13688,-14121,-14328,75,-1418,1178
2,624,58165,6966,-12622,-32768,-189,44,417
2,625,58170,-9047,-13994,-23074,-766,1234,-400
2,626,58175,-13717,-16313,7931,-967,587,-259
2,627,58180,2316,-18247,20171,-556,-1245,871
2,628,58185,16485,-16246,2405,-107,-1659,1390
2,629,58190,18755,-15280,-24220,-69,-431,905
2,630,58195,-13975,-15260,-6807,-820,2192,-717
2,631,58200,-13332,-17430,12908,-751,818,-32
2,632,58205,2419,-17124,10945,-302,-958,986
2,633,58210,16354,-15705,-8437,3,-1430,1308
2,634,58215,12127,-14865,-20966,-117,-289,680
2,635,58220,-2894,-15343,-14879,-455,921,-106
2,636,58225,-11147,-15814,953,-573,774,-116
2,637,58230,-3857,-17000,6775,-384,-390,556
2,638,58235,11599,-14872,-1311,-89,-1075,1066
2,639,58240,14471,-15614,-13481,-85,-430,853
2,640,58245,5855,-14386,-14237,-252,673,182
2,641,58250,-6238,-15569,-6131,-441,1078,-134
2,642,58255,-7564,-15682,2344,-379,345,170
2,643,58260,2603,-15670,803,-179,-597,703
2,644,58265,11135,-15086,-6685,-76,-585,760
2,645,58270,8715,-14653,-10770,-132,130,401
2,646,58275,-499,-15104,-7749,-251,568,71
2,647,58280,-5125,-15244,-2787,-248,180,164
2,648,58285,273,-15353,-2007,-147,-452,506
2,649,58290,7456,-14575,-5335,-71,-421,611
2,650,58295,8455,-14522,-8322,-93,181,422
2,651,58300,2790,-14470,-7361,-149,613,178
2,652,58305,-2029,-14798,-4754,-156,396,178
2,653,58310,-902,-14705,-3635,-100,-91,353
2,654,58315,3701,-14405,-4927,-59,-203,449
2,655,58320,6080,-14109,-6567,-59,146,360
2,656,58325,3642,-14208,-6343,-84,480,212
2,657,58330,879,-14356,-4967,-77,355,190
2,658,58335,650,-14406,-4528,-46,15,260
2,659,58340,2618,-14286,-5288,-17,-122,316
2,660,58345,4054,-14075,-6126,-13,72,279
2,661,58350,3166,-14139,-5982,-19,306,209
2,662,58355,2060,-14341,-5312,-8,277,192
2,663,58360,1644,-14455,-5062,10,82,206
2,664,58365,2550,-14452,-5443,30,-62,233
2,665,58370,3345,-14441,-6068,39,1,223
2,666,58375,3105,-14404,-6194,42,173,188
2,667,58380,2436,-14495,-5910,41,281,158
2,668,58385,2012,-14651,-5873,47,252,155
2,669,58390,2635,-14672,-5845,65,146,179
2,670,58395,2998,-14712,-6045,72,145,169
2,671,58400,2674,-14832,-6120,73,249,135
2,672,58405,1569,-14941,-5857,77,336,103
2,673,58410,879,-15053,-5894,89,297,99
2,674,58415,1391,-15014,-6222,104,168,121
2,675,58420,2447,-15063,-6426,110,106,129
2,676,58425,3093,-15104,-6412,115,164,110
2,677,58430,2568,-15236,-6397,113,307,71
2,678,58435,1835,-15259,-6305,117,400,56
2,679,58440,1599,-15305,-6281,126,386,61
2,680,58445,1806,-15383,-6239,132,323,66
2,681,58450,2259,-15498,-6217,137,290,59
2,682,58455,2278,-15475,-6027,141,308,42
2,683,58460,2184,-15407,-5911,146,318,33
2,684,58465,2104,-15347,-6052,152,320,28
2,685,58470,2255,-15348,-6167,154,304,26
2,686,58475,2348,-15361,-6025,160,280,24
2,687,58480,2234,-15421,-5805,163,257,19
2,688,58485,2125,-15502,-5740,168,240,11
2,689,58490,1939,-15535,-5947,170,229,4
2,690,58495,2137,-15432,-6074,176,196,9
2,691,58500,2553,-15325,-6090,177,170,16
2,692,58505,2803,-15346,-5900,176,178,12
2,693,58510,2531,-15329,-5635,173,209,-4
2,694,58515,1994,-15348,-5630,172,227,-13
2,695,58520,1694,-15355,-5734,178,196,-8
2,696,58525,1656,-15361,-5855,177,152,-6
2,697,58530,1959,-15292,-5806,175,116,-3
2,698,58535,2377,-15212,-5632,175,102,0
2,699,58540,2695,-15227,-5689,176,114,-1
2,700,58545,2622,-15181,-5833,173,147,-13
2,701,58550,2069,-15189,-5924,170,176,-25
2,702,58555,1612,-15220,-5902,167,167,-23
2,703,58560,1676,-15252,-5790,163,129,-12
2,704,58565,2201,-15198,-5763,168,97,0
2,705,58570,2620,-15177,-5857,168,102,-5
2,706,58575,2584,-15048,-6032,166,129,-19
2,707,58580,2206,-15016,-6000,162,137,-26
2,708,58585,1759,-15112,-5912,158,119,-23
2,709,58590,1796,-15167,-5811,154,101,-15
2,710,58595,2146,-15049,-5660,154,97,-6
2,711,58600,2543,-14973,-5616,151,106,-5
2,712,58605,2482,-14965,-5693,153,118,-16
2,713,58610,2016,-14961,-5793,150,120,-28
2,714,58615,1578,-14955,-5913,151,82,-25
2,715,58620,1635,-14995,-5827,150,29,-10
2,716,58625,2130,-15051,-5747,151,-5,2
2,717,58630,2408,-15105,-5718,148,-2,-7
2,718,58635,2232,-15083,-5780,146,9,-23
2,719,58640,1904,-15030,-5979,148,-5,-24
2,720,58645,1752,-15064,-6269,148,-23,-17
2,721,58650,1862,-15111,-6351,144,-23,-11
2,722,58655,2100,-15135,-6178,138,-4,-9
2,723,58660,2455,-15095,-6032,136,22,-8
2,724,58665,2514,-15016,-6046,135,59,-14
2,725,58670,2142,-14993,-6180,130,105,-22
2,726,58675,1642,-14980,-6187,125,134,-25
2,727,58680,1450,-15023,-6018,122,129,-19
2,728,58685,1701,-15066,-5818,120,110,-7
2,729,58690,2045,-15046,-5764,122,103,-7
2,730,58695,2113,-14977,-5786,123,103,-14
2,731,58700,1920,-14966,-5867,122,98,-19
2,732,58705,1795,-15003,-5943,123,86,-20
2,733,58710,1740,-15110,-5843,120,62,-15
2,734,58715,1748,-15134,-5603,119,26,-13
2,735,58720,1922,-15224,-5453,118,-7,-13
2,736,58725,1926,-15260,-5560,122,-35,-13
2,737,58730,1888,-15327,-5872,123,-46,-17
2,738,58735,1947,-15354,-6048,118,-49,-14
2,739,58740,2226,-15305,-5981,110,-46,-8
2,740,58745,2437,-15317,-5823,107,-22,-5
2,741,58750,2299,-15343,-5711,100,30,-12
2,742,58755,1938,-15354,-5766,94,79,-21
2,743,58760,1610,-15362,-5917,92,101,-19
2,744,58765,1577,-15285,-5913,90,96,-11
2,745,58770,1614,-15295,-5776,89,87,-6
2,746,58775,1860,-15284,-5678,86,77,-3
2,747,58780,2076,-15262,-5616,86,78,-2
2,748,58785,2116,-15164,-5550,86,94,-9
2,749,58790,1886,-15185,-5612,78,102,-19
2,750,58795,1663,-15175,-5543,74,80,-24
2,751,58800,1614,-15139,-5465,76,29,-18
2,752,58805,1766,-15102,-5430,77,-25,-11
2,753,58810,1892,-15101,-5529,79,-63,-9
2,754,58815,1934,-15121,-5748,82,-85,-7
2,755,58820,1794,-15121,-5906,90,-104,1
2,756,58825,1747,-15137,-6039,89,-115,10
2,757,58830,1790,-15183,-6126,83,-109,17
2,758,58835,2115,-15145,-5974,75,-87,24
2,759,58840,2508,-15124,-5897,67,-44,26
2,760,58845,2626,-15140,-5907,57,24,14
2,761,58850,2220,-15136,-5901,48,94,-1
2,762,58855,1621,-15140,-5869,39,127,-11
2,763,58860,1375,-15100,-5705,34,106,-3
2,764,58865,1696,-15117,-5691,35,70,13
2,765,58870,2052,-15016,-5670,40,58,16
2,766,58875,2049,-14950,-5691,43,59,11
2,767,58880,1663,-14951,-5671,46,37,9
2,768,58885,1400,-14968,-5792,53,-10,17
2,769,58890,1560,-14918,-5852,58,-57,29
2,770,58895,1852,-14852,-5890,62,-85,39
2,771,58900,1985,-14852,-5910,63,-86,38
2,772,58905,1759,-14930,-5923,64,-73,32
2,773,58910,1596,-14994,-5910,61,-60,30
2,774,58915,1740,-14997,-5900,58,-49,38
2,775,58920,2099,-14958,-5951,52,-18,42
2,776,58925,2235,-14966,-5952,44,43,35
2,777,58930,1982,-15041,-5771,36,100,26
2,778,58935,1587,-15133,-5554,31,118,23
2,779,58940,1524,-15178,-5419,31,108,28
2,780,58945,1536,-15173,-5407,30,99,32
2,781,58950,1534,-15210,-5431,30,92,31
2,782,58955,1595,-15253,-5422,30,73,31
2,783,58960,1663,-15350,-5375,32,41,34
2,784,58965,1810,-15398,-5355,34,9,37
2,785,58970,1882,-15379,-5393,32,-2,37
2,786,58975,1761,-15561,-5510,31,7,37
2,787,58980,1717,-15663,-5519,28,4,37
2,788,58985,1772,-15722,-5421,21,-7,37
2,789,58990,1927,-15753,-5231,19,-14,40
2,790,58995,2126,-15766,-5238,16,-8,40
2,791,59000,2138,-15704,-5333,16,14,36
2,792,59005,1925,-15686,-5372,13,34,30
2,793,59010,1589,-15747,-5321,9,28,29
2,794,59015,1475,-15794,-5228,8,-3,35
2,795,59020,1716,-15923,-5250,8,-32,41
2,796,59025,2026,-15893,-5327,9,-40,43
2,797,59030,2216,-15778,-5347,9,-27,44
2,798,59035,2218,-15744,-5446,7,-2,41
2,799,59040,1992,-15744,-5460,4,24,37
2,800,59045,1762,-15715,-5440,2,37,38
2,801,59050,1620,-15688,-5388,1,33,43
2,802,59055,1718,-15674,-5314,5,20,46
2,803,59060,1774,-15670,-5356,4,10,45
2,804,59065,1644,-15690,-5394,0,5,37
2,805,59070,1670,-15636,-5445,0,-7,34
2,806,59075,1918,-15494,-5407,1,-26,41
2,807,59080,2208,-15351,-5441,-1,-24,43
2,808,59085,2214,-15365,-5484,-3,5,36
2,809,59090,1856,-15319,-5430,-2,24,28
2,810,59095,1552,-15273,-5334,-1,6,30
2,811,59100,1688,-15188,-5375,4,-34,39
2,812,59105,1934,-15140,-5416,6,-55,41
2,813,59110,1964,-15123,-5452,6,-52,35
2,814,59115,1861,-15222,-5526,8,-55,31
2,815,59120,1715,-15304,-5548,10,-69,32
2,816,59125,1697,-15464,-5670,6,-79,34
2,817,59130,1850,-15607,-5722,-1,-70,32
2,818,59135,2105,-15541,-5591,-9,-38,30
2,819,59140,2461,-15316,-5493,-11,22,27
2,820,59145,2528,-15140,-5593,-13,101,20
2,821,59150,2046,-15143,-5580,-20,168,8
2,822,59155,1341,-15194,-5288,-25,180,4
2,823,59160,1030,-15280,-4957,-22,122,12
2,824,59165,1307,-15321,-4822,-15,39,23
2,825,59170,1768,-15354,-5032,-9,-14,23
2,826,59175,1982,-15338,-5316,-5,-32,14
2,827,59180,1999,-15345,-5594,-6,-36,6
2,828,59185,1990,-15307,-5686,-9,-38,9
2,829,59190,2091,-15347,-5615,-13,-29,13
2,830,59195,2262,-15363,-5509,-18,0,13
2,831,59200,2172,-15411,-5404,-16,34,10
2,832,59205,1920,-15438,-5380,-16,53,3
2,833,59210,1635,-15472,-5403,-17,46,-1
2,834,59215,1526,-15471,-5353,-18,14,3
2,835,59220,1724,-15484,-5241,-18,-12,10
2,836,59225,2046,-15411,-5223,-17,-15,13
2,837,59230,2174,-15386,-5285,-18,8,6
2,838,59235,1983,-15380,-5310,-21,29,-4
2,839,59240,1687,-15361,-5320,-20,22,-6
2,840,59245,1709,-15411,-5380,-21,-2,1
2,841,59250,2015,-15352,-5438,-20,-21,8
2,842,59255,2132,-15395,-5415,-21,-18,4
2,843,59260,1921,-15458,-5280,-21,-5,-3
2,844,59265,1633,-15441,-5323,-20,-5,-5
2,845,59270,1600,-15386,-5445,-18,-21,-3
2,846,59275,1689,-15388,-5653,-18,-30,2
2,847,59280,1866,-15423,-5666,-20,-23,1
2,848,59285,1917,-15487,-5534,-23,-12,-1
2,849,59290,1944,-15467,-5344,-22,-7,0
2,850,59295,1909,-15430,-5420,-20,0,0
2,851,59300,1797,-15431,-5593,-21,15,-5
2,852,59305,1649,-15479,-5742,-24,29,-7
2,853,59310,1687,-15493,-5573,-26,31,-3
2,854,59315,1940,-15405,-5341,-24,20,3
2,855,59320,2169,-15318,-5285,-22,26,1
2,856,59325,2092,-15216,-5368,-21,51,-6
2,857,59330,1756,-15197,-5455,-21,68,-14
2,858,59335,1504,-15258,-5495,-24,50,-12
2,859,59340,1531,-15247,-5377,-22,13,-7
2,860,59345,1750,-15234,-5238,-20,-13,-3
2,861,59350,1915,-15239,-5289,-20,-27,-5
2,862,59355,2007,-15154,-5373,-18,-30,-9
2,863,59360,1935,-15103,-5522,-11,-34,-6
2,864,59365,1706,-15107,-5611,-12,-36,-8
2,865,59370,1558,-15167,-5649,-14,-42,-5
2,866,59375,1722,-15264,-5570,-13,-50,3
2,867,59380,2012,-15290,-5489,-14,-45,5
2,868,59385,2114,-15302,-5528,-15,-19,-1
2,869,59390,1899,-15283,-5544,-19,12,-13
2,870,59395,1594,-15362,-5625,-20,27,-20
2,871,59400,1501,-15370,-5678,-21,18,-16
2,872,59405,1700,-15348,-5593,-21,2,-8
2,873,59410,1952,-15347,-5524,-18,8,-7
2,874,59415,1957,-15340,-5473,-17,30,-12
2,875,59420,1845,-15253,-5516,-15,42,-17
2,876,59425,1697,-15165,-5669,-11,39,-14
2,877,59430,1613,-15181,-5720,-9,28,-12
2,878,59435,1540,-15225,-5630,-11,19,-11
2,879,59440,1680,-15230,-5550,-9,11,-9
2,880,59445,1976,-15290,-5374,-6,12,-5
2,881,59450,2153,-15277,-5382,-5,27,-8
2,882,59455,2037,-15334,-5540,-4,57,-16
2,883,59460,1612,-15422,-5577,-5,71,-22
2,884,59465,1424,-15520,-5545,-10,58,-21
2,885,59470,1618,-15558,-5476,-9,34,-12
2,886,59475,2070,-15509,-5245,-9,30,-7
2,887,59480,2335,-15440,-5260,-9,52,-11
2,888,59485,2163,-15398,-5432,-7,86,-19
2,889,59490,1763,-15345,-5465,-7,102,-23
2,890,59495,1545,-15421,-5390,-6,83,-19
2,891,59500,1627,-15438,-5314,-3,49,-11
2,892,59505,1907,-15392,-5224,-3,29,-7
2,893,59510,1996,-15328,-5181,1,22,-10
2,894,59515,1874,-15323,-5225,2,17,-16
2,895,59520,1675,-15327,-5365,3,1,-18
2,896,59525,1547,-15353,-5508,5,-26,-14
2,897,59530,1695,-15372,-5562,5,-45,-9
2,898,59535,2031,-15382,-5488,2,-40,-4
2,899,59540,2266,-15356,-5329,2,-12,-4
2,900,59545,2304,-15361,-5339,0,29,-12
2,901,59550,1990,-15338,-5377,-4,63,-21
2,902,59555,1648,-15342,-5331,-5,70,-20
2,903,59560,1563,-15293,-5256,-3,57,-12
2,904,59565,1768,-15262,-5203,-1,42,-4
2,905,59570,2030,-15212,-5235,1,38,0
2,906,59575,2075,-15204,-5265,2,38,-5
2,907,59580,1951,-15182,-5288,7,28,-8
2,908,59585,1789,-15161,-5264,8,6,-7
2,909,59590,1698,-15134,-5263,9,-18,-2
2,910,59595,1754,-15101,-5231,11,-37,2
2,911,59600,1893,-15108,-5184,12,-52,5
2,912,59605,1935,-15160,-5217,16,-63,4
2,913,59610,1771,-15235,-5320,16,-71,0
2,914,59615,1560,-15360,-5392,15,-76,-3
2,915,59620,1608,-15410,-5500,15,-79,2
2,916,59625,1921,-15323,-5422,15,-75,10
2,917,59630,2184,-15330,-5388,15,-47,11
2,918,59635,2075,-15397,-5469,14,-3,5
2,919,59640,1649,-15467,-5494,13,25,-5
2,920,59645,1400,-15469,-5505,15,20,-2
2,921,59650,1612,-15441,-5597,17,7,10
2,922,59655,1963,-15389,-5645,18,16,17
2,923,59660,2198,-15353,-5546,15,50,14
2,924,59665,2136,-15345,-5288,13,76,10
2,925,59670,1898,-15404,-5172,16,83,6
2,926,59675,1573,-15372,-5233,21,77,6
2,927,59680,1408,-15376,-5369,21,64,9
2,928,59685,1540,-15346,-5436,25,39,17
2,929,59690,1938,-15236,-5334,28,9,25
2,930,59695,2287,-15191,-5293,30,-7,26
2,931,59700,2217,-15181,-5280,33,2,19
2,932,59705,1903,-15206,-5320,32,12,12
2,933,59710,1647,-15241,-5380,34,2,18
2,934,59715,1659,-15245,-5428,37,-26,27
2,935,59720,1835,-15202,-5371,38,-44,31
2,936,59725,1985,-15201,-5260,39,-45,30
2,937,59730,2095,-15209,-5290,40,-40,29
2,938,59735,1992,-15234,-5455,43,-26,25
2,939,59740,1773,-15234,-5570,39,-9,23
2,940,59745,1636,-15232,-5521,36,2,26
2,941,59750,1775,-15234,-5386,36,3,31
2,942,59755,2120,-15189,-5312,35,13,36
2,943,59760,1951,-15230,-5457,33,79,23
2,944,59765,1616,-15216,-5334,32,87,19
2,945,59770,1506,-15255,-5212,31,61,24
2,946,59775,1701,-15222,-5218,33,35,31
2,947,59780,1980,-15227,-5190,36,19,33
2,948,59785,2001,-15263,-5147,36,14,26
2,949,59790,1843,-15280,-5129,38,1,20
2,950,59795,1687,-15299,-5237,40,-21,20
2,951,59800,1696,-15308,-5313,43,-55,23
2,952,59805,1846,-15388,-5424,43,-78,25
2,953,59810,1986,-15412,-5461,44,-83,26
2,954,59815,2064,-15397,-5416,41,-71,21
2,955,59820,2058,-15394,-5481,41,-51,18
2,956,59825,2042,-15359,-5590,39,-27,16
2,957,59830,1849,-15302,-5625,39,-1,14
2,958,59835,1686,-15423,-5591,34,22,10
2,959,59840,1567,-15500,-5485,32,32,11
2,960,59845,1599,-15535,-5452,34,33,13
2,961,59850,1819,-15513,-5414,35,35,14
2,962,59855,1997,-15441,-5434,32,42,12
2,963,59860,1983,-15434,-5425,33,63,7
2,964,59865,1702,-15463,-5377,33,74,1
2,965,59870,1490,-15539,-5374,33,64,1
2,966,59875,1596,-15608,-5410,35,43,6
2,967,59880,1812,-15570,-5428,36,32,7
2,968,59885,2079,-15548,-5347,33,33,5
2,969,59890,2136,-15547,-5282,32,41,-1
2,970,59895,1930,-15523,-5299,34,40,-4
2,971,59900,1797,-15545,-5306,34,30,-4
2,972,59905,1698,-15536,-5329,35,17,-3
2,973,59910,1730,-15562,-5227,33,3,1
2,974,59915,1907,-15561,-5246,34,-5,1
2,975,59920,1996,-15522,-5297,36,-3,-4
2,976,59925,1931,-15422,-5357,35,1,-6
2,977,59930,1832,-15384,-5413,34,2,-8
2,978,59935,1866,-15339,-5435,34,8,-7
2,979,59940,1912,-15304,-5411,31,15,-5
2,980,59945,1899,-15385,-5367,29,23,-8
2,981,59950,1862,-15431,-5348,27,33,-12
2,982,59955,1832,-15343,-5359,27,34,-12
2,983,59960,1900,-15321,-5366,26,34,-8
2,984,59965,2003,-15283,-5353,25,52,-8
2,985,59970,1959,-15260,-5395,23,75,-12
2,986,59975,1823,-15308,-5353,24,83,-14
2,987,59980,1771,-15327,-5298,23,69,-15
2,988,59985,1787,-15338,-5186,21,49,-15
2,989,59990,1860,-15400,-5122,19,36,-12
2,990,59995,1968,-15381,-5158,21,30,-9
2,991,60000,2047,-15366,-5188,21,23,-13
2,992,60005,1961,-15343,-5158,20,10,-19
2,993,60010,1777,-15399,-5135,19,-5,-19
2,994,60015,1811,-15393,-5240,18,-20,-15
2,995,60020,2035,-15389,-5295,18,-25,-10
2,996,60025,2207,-15348,-5278,18,-15,-8
2,997,60030,2053,-15397,-5273,16,5,-15
2,998,60035,1824,-15446,-5280,11,15,-21
2,999,60040,1722,-15458,-5275,10,8,-16
