event_id,seq,ts_us,ax,ay,az,gx,gy,gz
1,0,51838,-648,-16413,-1437,-66,-105,13
1,1,51843,-630,-16368,-1607,-65,-120,12
1,2,51848,-555,-16306,-1695,-65,-123,14
1,3,51853,-411,-16275,-1758,-69,-117,17
1,4,51858,-256,-16314,-1812,-67,-94,18
1,5,51863,-294,-16331,-1820,-66,-63,14
1,6,51868,-419,-16308,-1894,-63,-36,10
1,7,51873,-503,-16259,-1929,-60,-12,10
1,8,51878,-538,-16224,-1980,-60,11,13
1,9,51883,-520,-16303,-1989,-58,39,14
1,10,51888,-500,-16309,-1898,-56,63,16
1,11,51893,-473,-16369,-1828,-56,85,15
1,12,51898,-527,-16370,-1770,-56,106,11
1,13,51903,-666,-16336,-1766,-52,122,6
1,14,51908,-776,-16316,-1672,-50,130,5
1,15,51913,-865,-16307,-1613,-50,132,4
1,16,51918,-909,-16305,-1456,-49,122,5
1,17,51923,-953,-16268,-1324,-47,99,6
1,18,51928,-971,-16228,-1248,-47,68,7
1,19,51933,-929,-16250,-1210,-47,30,9
1,20,51938,-965,-16232,-1166,-45,-9,8
1,21,51943,-979,-16225,-1048,-44,-53,6
1,22,51948,-919,-16252,-1025,-45,-101,8
1,23,51953,-826,-16347,-1166,-45,-146,10
1,24,51958,-833,-16439,-1368,-46,-179,8
1,25,51963,-704,-16410,-1438,-47,-191,8
1,26,51968,-580,-16385,-1534,-48,-187,9
1,27,51973,-492,-16357,-1601,-45,-172,11
1,28,51978,-510,-16361,-1750,-43,-144,11
1,29,51983,-577,-16363,-1882,-43,-114,8
1,30,51988,-660,-16360,-1879,-39,-89,9
1,31,51993,-768,-16312,-1852,-37,-62,7
1,32,51998,-764,-16265,-1859,-37,-33,7
1,33,52003,-650,-16290,-1870,-35,-2,9
1,34,52008,-560,-16303,-1928,-31,29,11
1,35,52013,-587,-16270,-1869,-30,58,11
1,36,52018,-689,-16292,-1726,-28,78,6
1,37,52023,-885,-16288,-1538,-25,87,4
1,38,52028,-991,-16329,-1478,-23,85,5
1,39,52033,-979,-16341,-1451,-21,68,7
1,40,52038,-1002,-16371,-1407,-18,44,8
1,41,52043,-986,-16456,-1311,-16,10,9
1,42,52048,-1014,-16456,-1296,-17,-23,9
1,43,52053,-983,-16485,-1309,-13,-47,9
1,44,52058,-933,-16494,-1429,-10,-58,9
1,45,52063,-831,-16532,-1557,-11,-60,9
1,46,52068,-710,-16604,-1595,-12,-57,7
1,47,52073,-579,-16618,-1625,-10,-46,9
1,48,52078,-545,-16632,-1628,-8,-28,11
1,49,52083,-596,-16617,-1638,-7,-4,9
1,50,52088,-589,-16637,-1675,-4,23,5
1,51,52093,-666,-16611,-1670,-1,47,5
1,52,52098,-670,-16564,-1598,-3,59,6
1,53,52103,-618,-16497,-1472,-2,60,11
1,54,52108,-640,-16494,-1448,-1,62,11
1,55,52113,-726,-16501,-1425,0,58,9
1,56,52118,-796,-16466,-1393,2,49,6
1,57,52123,-814,-16450,-1385,1,33,7
1,58,52128,-787,-16392,-1399,2,9,10
1,59,52133,-815,-16395,-1340,3,-16,10
1,60,52138,-797,-16419,-1364,5,-45,9
1,61,52143,-867,-16374,-1386,5,-69,8
1,62,52148,-803,-16372,-1362,4,-94,7
1,63,52153,-762,-16282,-1368,4,-119,8
1,64,52158,-649,-16240,-1387,6,-140,8
1,65,52163,-625,-16229,-1519,7,-153,9
1,66,52168,-631,-16270,-1616,7,-161,6
1,67,52173,-622,-16255,-1626,4,-161,5
1,68,52178,-502,-16177,-1585,5,-154,5
1,69,52183,-437,-16186,-1639,7,-139,5
1,70,52188,-413,-16228,-1715,8,-114,4
1,71,52193,-457,-16210,-1732,7,-88,1
1,72,52198,-524,-16173,-1676,6,-68,0
1,73,52203,-619,-16210,-1703,8,-52,0
1,74,52208,-638,-16311,-1727,8,-37,1
1,75,52213,-631,-16389,-1699,8,-21,-2
1,76,52218,-565,-16452,-1592,7,-8,-5
1,77,52223,-574,-16494,-1576,6,4,-2
1,78,52228,-495,-16468,-1639,4,14,-3
1,79,52233,-518,-16423,-1605,5,27,-9
1,80,52238,-531,-16401,-1549,5,34,-9
1,81,52243,-614,-16380,-1525,3,33,-8
1,82,52248,-715,-16435,-1457,3,20,-9
1,83,52253,-793,-16409,-1361,2,2,-10
1,84,52258,-812,-16378,-1351,2,-23,-12
1,85,52263,-836,-16337,-1417,3,-51,-10
1,86,52268,-843,-16338,-1400,1,-87,-10
1,87,52273,-838,-16375,-1447,1,-117,-10
1,88,52278,-812,-16412,-1551,0,-144,-13
1,89,52283,-786,-16476,-1599,-1,-162,-14
1,90,52288,-646,-16472,-1658,-2,-164,-12
1,91,52293,-533,-16465,-1752,-4,-150,-15
1,92,52298,-482,-16470,-1758,-3,-123,-17
1,93,52303,-506,-16559,-1778,-5,-95,-18
1,94,52308,-549,-16591,-1768,-5,-67,-21
1,95,52313,-625,-16549,-1704,-7,-43,-24
1,96,52318,-694,-16541,-1694,-7,-22,-23
1,97,52323,-739,-16557,-1691,-6,-2,-24
1,98,52328,-773,-16544,-1644,-8,16,-28
1,99,52333,-710,-16504,-1654,-8,24,-28
1,100,52338,-681,-16459,-1676,-8,28,-26
1,101,52343,-674,-16457,-1714,-8,30,-26
1,102,52348,-713,-16477,-1638,-10,29,-30
1,103,52353,-826,-16427,-1541,-9,19,-36
1,104,52358,-884,-16378,-1487,-9,-3,-32
1,105,52363,-869,-16265,-1495,-10,-50,-32
1,106,52368,-843,-16226,-1456,-8,-76,-33
1,107,52373,-842,-16204,-1439,-10,-108,-30
1,108,52378,-756,-16203,-1450,-9,-139,-31
1,109,52383,-723,-16199,-1451,-9,-161,-29
1,110,52388,-702,-16194,-1615,-9,-181,-30
1,111,52393,-736,-16182,-1729,-9,-191,-31
1,112,52398,-670,-16220,-1833,-10,-187,-32
1,113,52403,-578,-16195,-1938,-9,-172,-32
1,114,52408,-443,-16175,-2008,-8,-143,-32
1,115,52413,-406,-16178,-2141,-8,-104,-34
1,116,52418,-491,-16151,-2185,-7,-60,-37
1,117,52423,-544,-16086,-2150,-5,-19,-38
1,118,52428,-574,-16087,-2128,-7,14,-34
1,119,52433,-625,-16022,-2057,-3,42,-35
1,120,52438,-716,-15989,-1884,-1,60,-38
1,121,52443,-784,-15976,-1757,1,65,-37
1,122,52448,-825,-15924,-1684,3,58,-36
1,123,52453,-825,-15930,-1667,2,40,-35
1,124,52458,-836,-15931,-1550,5,9,-33
1,125,52463,-783,-15933,-1488,7,-24,-32
1,126,52468,-729,-15936,-1454,8,-52,-34
1,127,52473,-679,-15946,-1470,7,-76,-30
1,128,52478,-623,-16024,-1503,8,-99,-28
1,129,52483,-565,-16138,-1589,9,-109,-30
1,130,52488,-548,-16213,-1573,8,-114,-30
1,131,52493,-563,-16250,-1624,7,-118,-28
1,132,52498,-444,-16304,-1683,9,-113,-25
1,133,52503,-376,-16275,-1753,9,-86,-28
1,134,52508,-455,-16313,-1765,10,-61,-24
1,135,52513,-414,-16357,-1803,11,-45,-22
1,136,52518,-410,-16399,-1737,9,-25,-24
1,137,52523,-529,-16402,-1673,11,-2,-22
1,138,52528,-542,-16429,-1667,12,15,-23
1,139,52533,-649,-16377,-1629,12,34,-23
1,140,52538,-603,-16444,-1634,12,40,-18
1,141,52543,-595,-16389,-1569,11,53,-19
1,142,52548,-522,-16397,-1498,11,54,-15
1,143,52553,-521,-16401,-1495,13,52,-17
1,144,52558,-673,-16391,-1374,13,53,-20
1,145,52563,-740,-16348,-1365,11,36,-15
1,146,52568,-733,-16315,-1336,13,13,-15
1,147,52573,-712,-16314,-1316,10,-11,-9
1,148,52578,-624,-16373,-1336,9,-37,-7
1,149,52583,-596,-16361,-1308,10,-51,-8
1,150,52588,-613,-16408,-1305,9,-67,-9
1,151,52593,-570,-16390,-1362,11,-78,-5
1,152,52598,-479,-16391,-1466,8,-80,-2
1,153,52603,-433,-16403,-1474,5,-76,-2
1,154,52608,-424,-16423,-1527,6,-63,-5
1,155,52613,-518,-16409,-1512,7,-47,-6
1,156,52618,-622,-16379,-1493,4,-39,-3
1,157,52623,-580,-16371,-1563,6,-39,1
1,158,52628,-641,-16368,-1592,6,-28,-1
1,159,52633,-719,-16393,-1510,6,-24,0
1,160,52638,-759,-16384,-1450,6,-24,-2
1,161,52643,-700,-16412,-1501,2,-30,2
1,162,52648,-670,-16395,-1558,4,-25,3
1,163,52653,-618,-16381,-1574,3,-21,3
1,164,52658,-582,-16308,-1573,3,-17,1
1,165,52663,-682,-16290,-1583,3,-13,-1
1,166,52668,-761,-16268,-1572,3,-14,-1
1,167,52673,-760,-16252,-1526,4,-21,4
1,168,52678,-794,-16305,-1562,3,-31,8
1,169,52683,-767,-16332,-1495,2,-39,6
1,170,52688,-757,-16323,-1472,2,-44,2
1,171,52693,-796,-16351,-1439,3,-57,4
1,172,52698,-711,-16446,-1583,3,-68,5
1,173,52703,-646,-16412,-1643,4,-62,4
1,174,52708,-685,-16390,-1614,3,-55,3
1,175,52713,-645,-16368,-1586,3,-49,7
1,176,52718,-533,-16398,-1679,3,-40,8
1,177,52723,-593,-16369,-1712,2,-19,6
1,178,52728,-660,-16381,-1713,4,-6,4
1,179,52733,-697,-16355,-1666,4,-2,5
1,180,52738,-714,-16341,-1596,3,-3,5
1,181,52743,-796,-16358,-1546,3,-7,6
1,182,52748,-814,-16341,-1533,5,-17,7
1,183,52753,-825,-16295,-1593,7,-27,7
1,184,52758,-807,-16312,-1592,7,-36,8
1,185,52763,-775,-16304,-1566,5,-48,7
1,186,52768,-720,-16341,-1524,5,-58,7
1,187,52773,-674,-16336,-1563,7,-65,11
1,188,52778,-613,-16374,-1642,4,-59,10
1,189,52783,-555,-16376,-1728,5,-49,9
1,190,52788,-576,-16330,-1722,4,-28,8
1,191,52793,-555,-16292,-1753,4,-12,10
1,192,52798,-486,-16311,-1706,4,4,11
1,193,52803,-496,-16309,-1687,4,25,11
1,194,52808,-625,-16322,-1696,4,36,10
1,195,52813,-729,-16316,-1583,3,39,8
1,196,52818,-763,-16250,-1498,5,39,7
1,197,52823,-776,-16268,-1420,3,31,7
1,198,52828,-774,-16250,-1447,3,17,11
1,199,52833,-766,-16257,-1512,3,-2,12
1,200,52838,-761,-16280,-1530,3,-21,10
1,201,52843,-895,-16282,-1488,2,-35,7
1,202,52848,-816,-16314,-1546,2,-51,10
1,203,52853,-676,-16308,-1644,3,-57,11
1,204,52858,-602,-16295,-1691,3,-54,12
1,205,52863,-617,-16327,-1698,3,-48,11
1,206,52868,-593,-16415,-1729,4,-41,9
1,207,52873,-598,-16411,-1700,2,-28,6
1,208,52878,-550,-16344,-1730,2,-10,5
1,209,52883,-543,-16336,-1731,4,11,5
1,210,52888,-549,-16314,-1751,5,28,6
1,211,52893,-563,-16302,-1715,3,37,9
1,212,52898,-654,-16330,-1623,4,42,7
1,213,52903,-611,-16296,-1596,6,48,4
1,214,52908,-663,-16231,-1509,6,59,0
1,215,52913,-688,-16255,-1462,4,50,4
1,216,52918,-661,-16271,-1536,5,37,8
1,217,52923,-732,-16253,-1444,1,27,7
1,218,52928,-725,-16267,-1353,-1,7,9
1,219,52933,-661,-16303,-1418,-1,-13,10
1,220,52938,-588,-16362,-1486,-1,-23,8
1,221,52943,-706,-16359,-1555,-2,-22,6
1,222,52948,-614,-16337,-1581,-3,-24,6
1,223,52953,-607,-16311,-1576,-5,-22,8
1,224,52958,-582,-16374,-1526,-6,-18,9
1,225,52963,-612,-16436,-1442,-6,-12,8
1,226,52968,-657,-16430,-1486,-6,-14,7
1,227,52973,-744,-16437,-1538,-5,-20,4
1,228,52978,-760,-16428,-1570,-6,-28,3
1,229,52983,-700,-16384,-1574,-6,-36,6
1,230,52988,-603,-16421,-1575,-8,-36,10
1,231,52993,-517,-16423,-1613,-6,-32,9
1,232,52998,-504,-16410,-1643,-7,-20,5
1,233,53003,-515,-16389,-1645,-9,-5,3
1,234,53008,-538,-16358,-1687,-11,4,4
1,235,53013,-602,-16322,-1659,-10,17,5
1,236,53018,-608,-16342,-1593,-10,26,7
1,237,53023,-558,-16336,-1584,-9,32,5
1,238,53028,-554,-16299,-1599,-9,33,6
1,239,53033,-632,-16257,-1502,-10,31,4
1,240,53038,-723,-16215,-1425,-11,23,1
1,241,53043,-808,-16220,-1385,-10,7,2
1,242,53048,-846,-16254,-1377,-10,-15,4
1,243,53053,-741,-16284,-1428,-11,-41,5
1,244,53058,-662,-16316,-1543,-10,-63,8
1,245,53063,-618,-16307,-1638,-10,-73,6
1,246,53068,-595,-16348,-1684,-10,-75,4
1,247,53073,-555,-16432,-1712,-11,-66,2
1,248,53078,-507,-16412,-1826,-11,-48,1
1,249,53083,-465,-16446,-1925,-11,-24,3
1,250,53088,-450,-16388,-1881,-10,4,3
1,251,53093,-440,-16361,-1849,-11,33,3
1,252,53098,-518,-16361,-1762,-11,57,-1
1,253,53103,-606,-16318,-1702,-11,73,-1
1,254,53108,-699,-16277,-1650,-10,81,-2
1,255,53113,-803,-16286,-1608,-9,80,-2
1,256,53118,-860,-16301,-1528,-9,67,-3
1,257,53123,-826,-16288,-1396,-10,53,-2
1,258,53128,-770,-16266,-1368,-9,38,-1
1,259,53133,-752,-16268,-1352,-9,23,-2
1,260,53138,-754,-16274,-1395,-10,7,-4
1,261,53143,-811,-16350,-1450,-12,-35,-5
1,262,53148,-747,-16332,-1441,-12,-51,-2
1,263,53153,-651,-16292,-1440,-12,-58,-4
1,264,53158,-584,-16309,-1537,-11,-57,-3
1,265,53163,-573,-16306,-1584,-13,-55,-3
1,266,53168,-585,-16309,-1621,-15,-56,-5
1,267,53173,-608,-16256,-1610,-13,-52,-3
1,268,53178,-537,-16246,-1620,-14,-43,-3
1,269,53183,-507,-16235,-1697,-14,-31,-4
1,270,53188,-522,-16247,-1752,-14,-16,-5
1,271,53193,-541,-16243,-1768,-11,1,-4
1,272,53198,-498,-16239,-1696,-11,13,-3
1,273,53203,-494,-16222,-1667,-13,30,-4
1,274,53208,-528,-16229,-1638,-14,47,-5
1,275,53213,-581,-16289,-1594,-14,56,-6
1,276,53218,-668,-16314,-1500,-14,60,-6
1,277,53223,-704,-16281,-1466,-13,57,-4
1,278,53228,-671,-16339,-1424,-12,46,-3
1,279,53233,-649,-16359,-1417,-12,34,-2
1,280,53238,-616,-16356,-1427,-12,23,-2
1,281,53243,-610,-16388,-1435,-12,10,-1
1,282,53248,-605,-16369,-1442,-13,-5,-1
1,283,53253,-629,-16310,-1396,-13,-18,-3
1,284,53258,-629,-16305,-1410,-14,-30,-1
1,285,53263,-630,-16366,-1398,-16,-42,0
1,286,53268,-656,-16432,-1416,-17,-51,2
1,287,53273,-638,-16436,-1475,-17,-56,2
1,288,53278,-587,-16482,-1483,-16,-57,3
1,289,53283,-572,-16505,-1578,-15,-52,3
1,290,53288,-561,-16474,-1645,-15,-41,2
1,291,53293,-597,-16472,-1715,-15,-28,2
1,292,53298,-659,-16479,-1689,-17,-13,2
1,293,53303,-644,-16477,-1701,-14,-2,0
1,294,53308,-698,-16465,-1727,-14,9,0
1,295,53313,-713,-16431,-1749,-15,19,-1
1,296,53318,-698,-16387,-1756,-14,30,-1
1,297,53323,-673,-16342,-1737,-12,38,1
1,298,53328,-625,-16320,-1749,-11,50,0
1,299,53333,-689,-16207,-1749,-11,57,-2
1,300,53338,-775,-16192,-1668,-10,56,-4
1,301,53343,-799,-16196,-1578,-9,50,-5
1,302,53348,-774,-16181,-1507,-8,38,-5
1,303,53353,-805,-16162,-1437,-9,16,-5
1,304,53358,-740,-16148,-1411,-9,-5,-3
1,305,53363,-704,-16157,-1446,-9,-30,-3
1,306,53368,-688,-16221,-1551,-6,-50,-2
1,307,53373,-647,-16255,-1560,-7,-65,-2
1,308,53378,-642,-16247,-1550,-8,-72,-3
1,309,53383,-603,-16243,-1600,-8,-73,-4
1,310,53388,-544,-16285,-1629,-6,-69,-3
1,311,53393,-560,-16322,-1713,-8,-59,-4
1,312,53398,-564,-16372,-1682,-7,-47,-4
1,313,53403,-556,-16348,-1701,-8,-35,-5
1,314,53408,-583,-16351,-1732,-8,-19,-6
1,315,53413,-588,-16356,-1752,-8,-1,-5
1,316,53418,-519,-16332,-1749,-7,18,-3
1,317,53423,-483,-16328,-1769,-5,40,-2
1,318,53428,-488,-16320,-1733,-5,56,-2
1,319,53433,-576,-16315,-1618,-6,66,-4
1,320,53438,-725,-16315,-1559,-3,67,-7
1,321,53443,-778,-16326,-1500,-3,59,-6
1,322,53448,-821,-16318,-1490,-5,45,-5
1,323,53453,-787,-16327,-1471,-3,25,-1
1,324,53458,-733,-16340,-1427,-2,-1,0
1,325,53463,-681,-16338,-1428,-3,-21,-2
1,326,53468,-647,-16382,-1459,-4,-36,-2
1,327,53473,-601,-16325,-1504,-4,-46,-3
1,328,53478,-593,-16329,-1570,-4,-48,-3
1,329,53483,-548,-16339,-1597,-4,-49,-2
1,330,53488,-518,-16342,-1564,-5,-49,-1
1,331,53493,-525,-16393,-1544,-5,-47,3
1,332,53498,-519,-16382,-1622,-6,-40,-1
1,333,53503,-542,-16322,-1650,-5,-30,-3
1,334,53508,-568,-16339,-1679,-6,-18,-1
1,335,53513,-538,-16350,-1643,-5,-8,0
1,336,53518,-568,-16381,-1610,-6,2,2
1,337,53523,-577,-16350,-1621,-5,10,3
1,338,53528,-582,-16308,-1621,-4,19,1
1,339,53533,-659,-16317,-1588,-3,25,0
1,340,53538,-739,-16298,-1537,-2,23,-1
1,341,53543,-716,-16312,-1536,-4,16,0
1,342,53548,-688,-16295,-1519,-4,8,3
1,343,53553,-678,-16318,-1600,-3,0,3
1,344,53558,-677,-16338,-1616,-3,-5,2
1,345,53563,-605,-16266,-1609,-3,-12,1
1,346,53568,-626,-16227,-1614,-2,-18,1
1,347,53573,-717,-16223,-1634,-2,-20,1
1,348,53578,-679,-16184,-1646,-1,-26,-1
1,349,53583,-663,-16181,-1678,0,-35,4
1,350,53588,-698,-16193,-1715,0,-39,4
1,351,53593,-661,-16145,-1754,0,-42,2
1,352,53598,-638,-16156,-1702,2,-39,3
1,353,53603,-633,-16123,-1701,5,-37,3
1,354,53608,-657,-16168,-1692,3,-31,2
1,355,53613,-670,-16276,-1705,3,-26,1
1,356,53618,-723,-16291,-1729,2,-24,1
1,357,53623,-679,-16257,-1779,5,-21,2
1,358,53628,-629,-16242,-1849,6,-11,3
1,359,53633,-579,-16200,-1880,6,10,4
1,360,53638,-501,-16230,-1848,6,34,4
1,361,53643,-549,-16242,-1784,7,52,3
1,362,53648,-617,-16259,-1673,8,63,3
1,363,53653,-746,-16291,-1614,10,66,1
1,364,53658,-881,-16267,-1555,10,59,-2
1,365,53663,-946,-16229,-1532,12,40,0
1,366,53668,-917,-16231,-1461,13,13,4
1,367,53673,-844,-16268,-1420,14,-10,6
1,368,53678,-780,-16335,-1401,13,-26,8
1,369,53683,-743,-16336,-1467,12,-43,5
1,370,53688,-744,-16281,-1519,13,-57,4
1,371,53693,-759,-16313,-1566,12,-65,3
1,372,53698,-728,-16242,-1623,13,-69,5
1,373,53703,-699,-16197,-1639,15,-74,9
1,374,53708,-683,-16205,-1693,15,-75,9
1,375,53713,-735,-16214,-1842,16,-74,10
1,376,53718,-701,-16152,-1935,15,-59,12
1,377,53723,-567,-16096,-1949,11,-29,16
1,378,53728,-384,-16089,-1909,11,15,22
1,379,53733,-331,-16016,-1861,12,70,22
1,380,53738,-450,-15992,-1735,13,116,20
1,381,53743,-728,-15986,-1541,13,139,21
1,382,53748,-1061,-16054,-1258,8,124,24
1,383,53753,-1360,-16045,-937,7,77,29
1,384,53758,-1574,-16101,-887,8,10,35
1,385,53763,-1653,-16027,-1017,8,-68,38
1,386,53768,-1698,-15957,-1121,8,-156,46
1,387,53773,-1711,-16001,-1229,1,-240,54
1,388,53778,-1492,-16097,-1429,-5,-307,63
1,389,53783,-1028,-16127,-1655,-7,-334,79
1,390,53788,-394,-16132,-1933,-8,-315,96
1,391,53793,-42,-16207,-2232,-12,-253,100
1,392,53798,-315,-16332,-2263,-12,-167,91
1,393,53803,-873,-16255,-2061,-14,-93,88
1,394,53808,-1329,-16195,-1875,-18,-54,100
1,395,53813,-1508,-16207,-1910,-21,-32,118
1,396,53818,-1510,-16225,-1952,-26,-16,131
1,397,53823,-1502,-16217,-1819,-31,-10,143
1,398,53828,-1499,-16238,-1628,-33,-24,155
1,399,53833,-1624,-16298,-1631,-32,-57,166
1,400,53838,-1855,-16317,-1770,-36,-86,171
1,401,53843,-2157,-16266,-1748,-40,-112,181
1,402,53848,-2122,-16300,-1721,-43,-145,197
1,403,53853,-1951,-16376,-1788,-47,-175,214
1,404,53858,-1786,-16475,-1893,-50,-193,226
1,405,53863,-1745,-16541,-2022,-51,-204,234
1,406,53868,-1831,-16545,-2169,-55,-198,240
1,407,53873,-1849,-16591,-2161,-62,-169,251
1,408,53878,-1772,-16565,-2023,-69,-132,266
1,409,53883,-1635,-16571,-2032,-71,-94,283
1,410,53888,-1515,-16589,-2221,-76,-46,299
1,411,53893,-1503,-16591,-2369,-80,9,309
1,412,53898,-1657,-16537,-2320,-86,63,318
1,413,53903,-1823,-16506,-2166,-91,112,328
1,414,53908,-2054,-16473,-1976,-96,151,340
1,415,53913,-2226,-16376,-1928,-100,172,351
1,416,53918,-2301,-16328,-1994,-106,172,363
1,417,53923,-2123,-16302,-2036,-120,135,385
1,418,53928,-1747,-16274,-2071,-124,148,374
1,419,53933,-2101,-16222,-1828,-131,199,358
1,420,53938,-2466,-16074,-1624,-131,179,368
1,421,53943,-2317,-16034,-1800,-138,105,410
1,422,53948,-2087,-16064,-2032,-152,58,438
1,423,53953,-2055,-15930,-1870,-154,42,461
1,424,53958,-2012,-15882,-1793,-156,24,477
1,425,53963,-1991,-15924,-1921,-168,18,486
1,426,53968,-2070,-15886,-1966,-170,18,499
1,427,53973,-1999,-15946,-2126,-176,15,516
1,428,53978,-1883,-16000,-2265,-181,19,531
1,429,53983,-1825,-16039,-2292,-194,38,540
1,430,53988,-1897,-15993,-2242,-197,73,547
1,431,53993,-1994,-15894,-2330,-198,105,560
1,432,53998,-2021,-15878,-2492,-204,135,571
1,433,54003,-2051,-15855,-2575,-215,164,578
1,434,54008,-2164,-15777,-2515,-223,181,586
1,435,54013,-2278,-15759,-2435,-226,192,593
1,436,54018,-2333,-15702,-2395,-229,202,602
1,437,54023,-2405,-15615,-2387,-231,210,610
1,438,54028,-2564,-15600,-2396,-237,210,619
1,439,54033,-2411,-15702,-2187,-258,200,614
1,440,54038,-2198,-16431,-2213,-272,262,557
1,441,54043,-3135,-15476,-1908,-233,258,589
1,442,54048,-3127,-15816,-1831,-256,166,626
1,443,54053,-2967,-15868,-2312,-263,96,649
1,444,54058,-2823,-16037,-2297,-272,66,659
1,445,54063,-2940,-16012,-2169,-276,35,667
1,446,54068,-2721,-16139,-2357,-281,3,674
1,447,54073,-2798,-16081,-2550,-279,-4,679
1,448,54078,-2766,-16083,-2828,-282,12,680
1,449,54083,-2912,-15996,-3027,-283,37,680
1,450,54088,-2855,-15997,-3187,-289,60,687
1,451,54093,-2634,-16026,-3306,-294,101,695
1,452,54098,-2461,-15997,-3303,-295,163,700
1,453,54103,-2373,-15974,-3260,-295,232,702
1,454,54108,-2619,-15974,-3270,-296,313,693
1,455,54113,-3063,-16006,-3230,-298,376,683
1,456,54118,-3419,-16000,-3005,-303,405,679
1,457,54123,-3421,-16034,-2674,-311,403,684
1,458,54128,-3259,-16047,-2359,-312,382,687
1,459,54133,-3472,-16146,-2305,-311,351,674
1,460,54138,-3835,-16222,-2370,-309,310,660
1,461,54143,-4120,-16205,-2470,-312,256,650
1,462,54148,-3992,-16155,-2565,-318,185,654
1,463,54153,-3590,-16179,-2652,-320,128,662
1,464,54158,-3181,-16177,-2811,-321,107,659
1,465,54163,-3040,-16182,-3000,-320,119,649
1,466,54168,-3183,-16156,-3059,-317,144,636
1,467,54173,-3331,-16135,-3032,-320,161,630
1,468,54178,-3400,-16153,-2928,-322,168,628
1,469,54183,-3345,-16202,-2850,-322,170,619
1,470,54188,-3529,-16203,-2747,-320,180,600
1,471,54193,-3717,-16248,-2696,-318,161,592
1,472,54198,-3759,-16299,-2781,-319,134,588
1,473,54203,-3724,-16319,-2795,-319,118,578
1,474,54208,-3643,-16324,-2672,-318,108,568
1,475,54213,-3609,-16315,-2600,-317,95,557
1,476,54218,-3667,-16305,-2659,-313,77,546
1,477,54223,-3775,-16247,-2737,-308,58,533
1,478,54228,-3692,-16239,-2929,-308,40,520
1,479,54233,-3766,-16092,-2901,-305,40,497
1,480,54238,-3938,-15988,-2685,-303,29,487
1,481,54243,-3788,-16060,-2753,-298,-2,488
1,482,54248,-3543,-16080,-2995,-294,-16,479
1,483,54253,-3477,-16103,-3106,-291,-13,465
1,484,54258,-3566,-16072,-3121,-286,0,446
1,485,54263,-3608,-16067,-3140,-282,12,432
1,486,54268,-3572,-16016,-3105,-276,31,420
1,487,54273,-3464,-15951,-3135,-271,52,408
1,488,54278,-3473,-15918,-3193,-264,73,392
1,489,54283,-3626,-15936,-3170,-260,89,372
1,490,54288,-3676,-15846,-3040,-254,96,356
1,491,54293,-3691,-15748,-2865,-248,96,340
1,492,54298,-3655,-15703,-2887,-241,84,330
1,493,54303,-3742,-15677,-2930,-233,76,310
1,494,54308,-3858,-15630,-2860,-229,57,290
1,495,54313,-3885,-15575,-2863,-220,30,276
1,496,54318,-3803,-15567,-2909,-214,4,263
1,497,54323,-3650,-15562,-2842,-207,-16,246
1,498,54328,-3616,-15504,-2918,-198,-20,226
1,499,54333,-3593,-15504,-2982,-191,-20,207
1,500,54338,-3573,-15501,-3038,-184,-25,190
1,501,54343,-3524,-15460,-3079,-176,-33,169
1,502,54348,-3683,-15356,-3040,-172,-35,150
1,503,54353,-3693,-15428,-3082,-165,-55,142
1,504,54358,-3453,-15455,-3182,-153,-61,128
1,505,54363,-3263,-15357,-3292,-139,-31,100
1,506,54368,-3406,-15359,-3198,-133,1,76
1,507,54373,-3364,-15355,-3208,-123,3,64
1,508,54378,-3332,-15360,-3145,-115,7,48
1,509,54383,-3555,-15365,-2950,-111,13,23
1,510,54388,-3714,-15351,-2761,-101,5,-1
1,511,54393,-3868,-15363,-2834,-86,-19,-21
1,512,54398,-3856,-15322,-3057,-74,-53,-36
1,513,54403,-3637,-15251,-3139,-65,-78,-58
1,514,54408,-3409,-15213,-3006,-56,-88,-79
1,515,54413,-3365,-15253,-2929,-49,-96,-96
1,516,54418,-3231,-15371,-3014,-37,-99,-113
1,517,54423,-3158,-15375,-3125,-27,-87,-137
1,518,54428,-3179,-15327,-3154,-16,-73,-162
1,519,54433,-3120,-15323,-3018,-8,-68,-179
1,520,54438,-2976,-15338,-2869,4,-76,-193
1,521,54443,-3080,-15363,-2748,12,-76,-215
1,522,54448,-3286,-15409,-2658,22,-82,-242
1,523,54453,-3423,-15421,-2660,34,-103,-262
1,524,54458,-3375,-15408,-2644,42,-134,-276
1,525,54463,-3245,-15421,-2658,49,-163,-292
1,526,54468,-3150,-15496,-2716,59,-186,-310
1,527,54473,-3039,-15634,-2841,70,-197,-330
1,528,54478,-2981,-15713,-2937,80,-193,-350
1,529,54483,-2977,-15818,-2997,87,-175,-369
1,530,54488,-2907,-15933,-2988,95,-152,-386
1,531,54493,-2861,-15981,-2956,104,-127,-409
1,532,54498,-2928,-16047,-2871,114,-101,-431
1,533,54503,-3076,-16054,-2758,123,-88,-456
1,534,54508,-3242,-16117,-2593,133,-95,-478
1,535,54513,-3361,-16210,-2560,142,-116,-497
1,536,54518,-3535,-16278,-2520,152,-150,-520
1,537,54523,-3526,-16325,-2467,161,-189,-538
1,538,54528,-3371,-16331,-2516,170,-227,-556
1,539,54533,-3140,-16369,-2591,178,-252,-574
1,540,54538,-2944,-16451,-2673,186,-259,-596
1,541,54543,-2949,-16436,-2756,194,-254,-618
1,542,54548,-3028,-16377,-2851,202,-243,-642
1,543,54553,-3010,-16377,-2837,210,-237,-660
1,544,54558,-2979,-16442,-2826,219,-231,-678
1,545,54563,-2910,-16443,-2792,225,-225,-699
1,546,54568,-2853,-16425,-2716,234,-218,-722
1,547,54573,-2904,-16358,-2696,245,-217,-744
1,548,54578,-2902,-16318,-2815,250,-219,-766
1,549,54583,-2789,-16252,-2779,256,-223,-784
1,550,54588,-2810,-16324,-2626,262,-236,-803
1,551,54593,-2853,-16268,-2546,270,-248,-825
1,552,54598,-2911,-16256,-2642,282,-262,-845
1,553,54603,-2918,-16242,-2811,291,-278,-865
1,554,54608,-2728,-16264,-2891,298,-291,-879
1,555,54613,-2503,-16256,-2811,301,-298,-894
1,556,54618,-2330,-16236,-2665,305,-295,-913
1,557,54623,-2322,-16193,-2572,314,-285,-935
1,558,54628,-2375,-16169,-2593,322,-283,-954
1,559,54633,-2486,-16235,-2623,327,-298,-971
1,560,54638,-2551,-16266,-2516,329,-328,-987
1,561,54643,-2437,-16252,-2458,334,-363,-1002
1,562,54648,-2197,-16380,-2534,342,-385,-1011
1,563,54653,-1879,-16621,-2820,349,-389,-1022
1,564,54658,-1370,-16091,-3050,354,-331,-1071
1,565,54663,-3156,-16204,-2529,300,-320,-1048
1,566,54668,-1642,-16802,-3138,325,-484,-953
1,567,54673,-748,-16547,-3537,358,-373,-1026
1,568,54678,-1179,-16526,-2670,357,-199,-1086
1,569,54683,-1930,-16407,-2426,369,-172,-1105
1,570,54688,-1463,-16515,-3074,368,-207,-1108
1,571,54693,-1591,-16781,-3099,377,-175,-1121
1,572,54698,-1368,-16423,-2069,389,-125,-1182
1,573,54703,-1290,-16436,-2220,397,-159,-1180
1,574,54708,-1129,-16451,-2742,405,-162,-1194
1,575,54713,-1562,-16301,-2660,408,-138,-1219
1,576,54718,-1333,-16297,-2548,404,-169,-1211
1,577,54723,-765,-16398,-2688,403,-182,-1208
1,578,54728,-599,-16369,-2755,407,-141,-1224
1,579,54733,-637,-16310,-3166,414,-73,-1237
1,580,54738,-825,-16104,-3485,418,1,-1244
1,581,54743,-491,-16063,-3531,415,53,-1224
1,582,54748,-153,-16043,-3122,413,135,-1224
1,583,54753,-88,-16107,-2579,416,217,-1231
1,584,54758,-487,-16186,-2212,425,270,-1246
1,585,54763,-1255,-16072,-1997,432,268,-1264
1,586,54768,-1512,-16124,-2037,438,191,-1251
1,587,54773,-1349,-16099,-1863,440,101,-1241
1,588,54778,-917,-16155,-1548,437,3,-1223
1,589,54783,-453,-16180,-1246,432,-82,-1207
1,590,54788,-1283,-16449,-1194,411,-195,-1156
1,591,54793,854,-16510,-2633,455,-320,-1116
1,592,54798,-454,-15969,-1759,427,-158,-1192
1,593,54803,-1024,-16128,-622,404,-295,-1066
1,594,54808,-1200,-16131,-687,376,-542,-936
1,595,54813,-1090,-17490,-1482,330,-760,-833
1,596,54818,3407,-17712,-3196,377,-718,-946
1,597,54823,1807,-17082,-2571,429,-304,-1111
1,598,54828,113,-16908,-975,423,-48,-1241
1,599,54833,-962,-16679,-408,431,-142,-1209
1,600,54838,270,-22098,-1391,416,-326,-1131
1,601,54843,-25803,-14021,-3049,394,-463,-1321
1,602,54848,-32768,-8159,17939,178,-1601,-1598
1,603,54853,-29165,1456,-8349,129,-4467,-81
1,604,54858,13090,-8161,-24827,-121,-4846,1113
1,605,54863,32767,-12883,-29094,-352,-3294,1864
1,606,54868,31486,-26461,-11477,-570,-1005,1311
1,607,54873,10564,-21252,-417,-247,1288,9
1,608,54878,-7623,-16932,1684,-75,3678,-779
1,609,54883,-16858,-11397,-6959,131,4300,-263
1,610,54888,-7673,-14378,-10112,-83,3692,283
1,611,54893,-954,-15763,-887,-267,2511,561
1,612,54898,-1008,-19229,12467,-401,1444,453
1,613,54903,-7133,-18656,14475,-225,829,160
1,614,54908,-9171,-16107,3592,37,314,117
1,615,54913,-6682,-15084,-7599,45,-87,267
1,616,54918,-2043,-15137,-8166,-128,-458,370
1,617,54923,2880,-17166,341,-296,-972,518
1,618,54928,5802,-18674,5626,-261,-1178,529
1,619,54933,5914,-18635,1339,-109,-756,389
1,620,54938,3214,-17232,-8066,0,-32,234
1,621,54943,373,-16349,-11660,-38,535,199
1,622,54948,-1506,-16083,-5598,-169,779,214
1,623,54953,-761,-16918,3527,-250,604,352
1,624,54958,2052,-18298,5341,-193,342,461
1,625,54963,2262,-18128,-211,-57,404,371
1,626,54968,-937,-17258,-5754,-6,618,224
1,627,54973,-4894,-16159,-4536,-69,649,156
1,628,54978,-4715,-15945,781,-160,278,269
1,629,54983,-195,-16966,3699,-183,-201,453
1,630,54988,3789,-17911,1134,-119,-328,473
1,631,54993,3376,-17690,-3558,-43,-61,316
1,632,54998,-608,-16680,-5223,-32,227,169
1,633,55003,-2983,-15994,-2992,-81,210,181
1,634,55008,-1523,-16193,-11,-131,-23,320
1,635,55013,1958,-17001,588,-122,-175,433
1,636,55018,3260,-17528,-1353,-74,-25,364
1,637,55023,913,-17111,-3058,-30,237,215
1,638,55028,-1861,-16527,-2777,-30,278,172
1,639,55033,-2299,-16095,-1439,-62,108,234
1,640,55038,-183,-16467,-504,-87,-68,335
1,641,55043,1857,-16927,-859,-67,-56,352
1,642,55048,1874,-16854,-1968,-35,115,268
1,643,55053,304,-16556,-2627,-17,237,193
1,644,55058,-919,-16152,-2272,-22,210,184
1,645,55063,-635,-16169,-1518,-47,105,236
1,646,55068,499,-16503,-1066,-51,66,274
1,647,55073,1121,-16617,-1231,-32,136,250
1,648,55078,745,-16497,-1766,-11,212,200
1,649,55083,69,-16244,-2189,-5,212,178
1,650,55088,-388,-16232,-1796,-13,163,189
1,651,55093,-366,-16229,-980,-21,119,201
1,652,55098,-6,-16322,-534,-18,68,207
1,653,55103,375,-16396,-947,-6,22,199
1,654,55108,278,-16403,-1582,4,-10,178
1,655,55113,-295,-16343,-1533,3,-38,157
1,656,55118,-681,-16211,-1030,-1,-93,150
1,657,55123,-239,-16268,-925,0,-183,170
1,658,55128,481,-16494,-1219,6,-236,184
1,659,55133,593,-16535,-1585,13,-221,160
1,660,55138,182,-16462,-1730,17,-192,130
1,661,55143,-128,-16506,-1758,19,-196,127
1,662,55148,76,-16618,-1930,17,-205,135
1,663,55153,486,-16572,-2126,18,-167,137
1,664,55158,753,-16463,-2319,23,-87,132
1,665,55163,707,-16349,-2428,32,20,116
1,666,55168,373,-16286,-2330,35,104,101
1,667,55173,58,-16243,-2096,36,150,92
1,668,55178,-206,-16233,-1801,38,167,92
1,669,55183,-282,-16221,-1657,41,171,91
1,670,55188,-214,-16160,-1686,49,165,87
1,671,55193,-223,-16138,-1631,53,147,83
1,672,55198,-208,-16216,-1524,52,115,76
1,673,55203,-126,-16186,-1400,51,71,75
1,674,55208,34,-16206,-1378,54,36,79
1,675,55213,-41,-16205,-1238,58,27,72
1,676,55218,-313,-16166,-1209,60,5,59
1,677,55223,-439,-16211,-1412,63,-51,59
1,678,55228,-363,-16222,-1537,59,-113,63
1,679,55233,-242,-16204,-1561,59,-147,64
1,680,55238,-87,-16138,-1581,61,-155,63
1,681,55243,101,-16141,-1740,64,-150,62
1,682,55248,193,-16260,-2060,68,-135,59
1,683,55253,98,-16244,-2196,67,-110,51
1,684,55258,-5,-16204,-2037,66,-74,45
1,685,55263,-18,-16129,-1842,64,-41,49
1,686,55268,14,-16126,-1876,66,-3,51
1,687,55273,-45,-16152,-1990,71,37,44
1,688,55278,-106,-16072,-1991,69,58,39
1,689,55283,-242,-16008,-1859,69,58,40
1,690,55288,-297,-16069,-1688,69,47,42
1,691,55293,-263,-16077,-1550,70,40,40
1,692,55298,-233,-16077,-1562,71,30,43
1,693,55303,-233,-16075,-1591,73,10,42
1,694,55308,-391,-16071,-1584,73,-13,36
1,695,55313,-584,-16046,-1488,75,-47,32
1,696,55318,-582,-16073,-1436,72,-87,38
1,697,55323,-329,-16045,-1511,71,-126,45
1,698,55328,-191,-16032,-1634,74,-148,45
1,699,55333,-346,-16088,-1771,72,-142,35
1,700,55338,-484,-16104,-1803,72,-140,27
1,701,55343,-349,-16067,-1828,72,-151,34
1,702,55348,-102,-16140,-1945,72,-147,42
1,703,55353,-13,-16224,-1999,70,-111,37
1,704,55358,-157,-16256,-1992,70,-64,28
1,705,55363,-347,-16271,-2009,72,-31,24
1,706,55368,-404,-16289,-2068,70,-10,25
1,707,55373,-295,-16326,-2090,69,14,24
1,708,55378,-261,-16358,-1992,69,44,24
1,709,55383,-290,-16347,-1892,66,75,20
1,710,55388,-395,-16345,-1706,68,93,18
1,711,55393,-499,-16342,-1725,69,99,12
1,712,55398,-641,-16353,-1706,66,101,9
1,713,55403,-710,-16378,-1561,64,93,6
1,714,55408,-630,-16358,-1455,64,65,7
1,715,55413,-548,-16408,-1486,62,32,11
1,716,55418,-593,-16441,-1505,63,5,6
1,717,55423,-657,-16303,-1510,62,-19,3
1,718,55428,-704,-16396,-1443,57,-38,0
1,719,55433,-698,-16491,-1394,54,-63,-1
1,720,55438,-508,-16528,-1429,51,-94,1
1,721,55443,-434,-16550,-1590,52,-113,-2
1,722,55448,-421,-16559,-1758,51,-112,-7
1,723,55453,-423,-16572,-1951,48,-93,-9
1,724,55458,-328,-16538,-2107,48,-62,-13
1,725,55463,-163,-16485,-2137,44,-23,-10
1,726,55468,-101,-16515,-2131,42,27,-10
1,727,55473,-160,-16488,-2075,41,82,-19
1,728,55478,-575,-16422,-1998,41,160,-27
1,729,55483,-614,-16336,-1983,38,182,-27
1,730,55488,-591,-16291,-1856,36,199,-27
1,731,55493,-470,-16317,-1638,32,209,-28
1,732,55498,-505,-16343,-1398,29,200,-26
1,733,55503,-577,-16357,-1312,29,167,-29
1,734,55508,-807,-16340,-1271,25,124,-37
1,735,55513,-897,-16295,-1266,22,69,-40
1,736,55518,-917,-16343,-1143,20,11,-35
1,737,55523,-731,-16383,-1113,17,-45,-29
1,738,55528,-471,-16461,-1196,16,-104,-28
1,739,55533,-411,-16492,-1355,15,-142,-31
1,740,55538,-422,-16483,-1544,8,-161,-34
1,741,55543,-452,-16475,-1656,7,-169,-35
1,742,55548,-356,-16472,-1780,5,-162,-34
1,743,55553,-198,-16480,-1885,2,-138,-32
1,744,55558,-40,-16512,-1973,0,-103,-31
1,745,55563,-75,-16505,-2008,-4,-59,-35
1,746,55568,-194,-16440,-1979,-5,-10,-36
1,747,55573,-357,-16397,-1896,-8,39,-37
1,748,55578,-452,-16331,-1824,-8,72,-39
1,749,55583,-502,-16378,-1718,-10,86,-37
1,750,55588,-564,-16386,-1611,-13,86,-39
1,751,55593,-684,-16431,-1489,-16,80,-39
1,752,55598,-717,-16359,-1456,-15,63,-38
1,753,55603,-635,-16349,-1489,-16,39,-37
1,754,55608,-561,-16366,-1520,-19,16,-35
1,755,55613,-472,-16361,-1521,-20,-5,-34
1,756,55618,-529,-16376,-1392,-22,-19,-34
1,757,55623,-510,-16346,-1322,-24,-34,-37
1,758,55628,-450,-16330,-1399,-25,-55,-36
1,759,55633,-385,-16336,-1559,-25,-72,-33
1,760,55638,-423,-16314,-1589,-29,-79,-34
1,761,55643,-419,-16312,-1543,-30,-82,-32
1,762,55648,-356,-16333,-1536,-32,-78,-31
1,763,55653,-302,-16359,-1644,-33,-67,-29
1,764,55658,-257,-16351,-1715,-35,-52,-27
1,765,55663,-250,-16315,-1745,-35,-30,-28
1,766,55668,-295,-16310,-1776,-38,-8,-29
1,767,55673,-372,-16328,-1756,-38,14,-28
1,768,55678,-375,-16278,-1767,-37,36,-28
1,769,55683,-362,-16289,-1771,-38,54,-23
1,770,55688,-466,-16267,-1688,-39,68,-27
1,771,55693,-508,-16218,-1585,-38,71,-27
1,772,55698,-589,-16215,-1499,-38,57,-25
1,773,55703,-659,-16240,-1544,-39,37,-28
1,774,55708,-578,-16254,-1617,-39,16,-25
1,775,55713,-538,-16253,-1708,-39,5,-21
1,776,55718,-458,-16231,-1644,-39,2,-22
1,777,55723,-364,-16214,-1659,-38,-2,-21
1,778,55728,-351,-16244,-1655,-38,-5,-16
1,779,55733,-425,-16261,-1661,-39,0,-20
1,780,55738,-469,-16261,-1640,-39,5,-22
1,781,55743,-522,-16241,-1578,-39,-1,-19
1,782,55748,-460,-16267,-1522,-39,-9,-17
1,783,55753,-397,-16329,-1569,-38,-17,-15
1,784,55758,-415,-16402,-1578,-39,-17,-14
1,785,55763,-477,-16395,-1602,-40,-11,-19
1,786,55768,-411,-16369,-1610,-39,-2,-17
1,787,55773,-360,-16345,-1646,-39,10,-12
1,788,55778,-348,-16363,-1666,-39,20,-12
1,789,55783,-329,-16408,-1635,-39,24,-14
1,790,55788,-380,-16405,-1619,-40,26,-16
1,791,55793,-428,-16340,-1629,-41,32,-15
1,792,55798,-397,-16290,-1629,-39,37,-14
1,793,55803,-304,-16277,-1667,-40,44,-11
1,794,55808,-338,-16266,-1656,-40,52,-12
1,795,55813,-384,-16259,-1583,-38,46,-12
1,796,55818,-436,-16250,-1515,-38,30,-10
1,797,55823,-427,-16221,-1551,-36,14,-8
1,798,55828,-425,-16213,-1567,-36,2,-6
1,799,55833,-412,-16243,-1574,-36,-10,-5
1,800,55838,-405,-16206,-1544,-33,-21,-6
1,801,55843,-391,-16210,-1577,-34,-35,-4
1,802,55848,-352,-16230,-1613,-35,-48,-2
1,803,55853,-311,-16255,-1668,-34,-49,-2
1,804,55858,-358,-16284,-1657,-34,-42,-4
1,805,55863,-326,-16283,-1668,-34,-35,-3
1,806,55868,-235,-16264,-1730,-30,-25,1
1,807,55873,-138,-16235,-1803,-31,-7,2
1,808,55878,-189,-16193,-1790,-32,15,-2
1,809,55883,-303,-16158,-1739,-32,36,-4
1,810,55888,-397,-16111,-1578,-32,43,-1
1,811,55893,-424,-16141,-1532,-31,39,1
1,812,55898,-441,-16161,-1560,-28,31,3
1,813,55903,-443,-16123,-1600,-28,20,3
1,814,55908,-454,-16120,-1567,-26,4,5
1,815,55913,-471,-16180,-1499,-28,-16,6
1,816,55918,-452,-16197,-1474,-28,-36,7
1,817,55923,-468,-16239,-1449,-26,-53,9
1,818,55928,-403,-16211,-1434,-26,-71,12
1,819,55933,-358,-16266,-1479,-26,-85,11
1,820,55938,-349,-16328,-1390,-25,-103,10
1,821,55943,-434,-16377,-1312,-28,-124,10
1,822,55948,-475,-16366,-1268,-27,-147,11
1,823,55953,-543,-16308,-1358,-26,-169,11
1,824,55958,-585,-16257,-1521,-26,-185,13
1,825,55963,-537,-16241,-1698,-26,-195,17
1,826,55968,-367,-16259,-1835,-26,-197,18
1,827,55973,-187,-16276,-1992,-24,-181,21
1,828,55978,-82,-16299,-2200,-24,-144,23
1,829,55983,25,-16328,-2281,-22,-88,21
1,830,55988,-27,-16352,-2276,-21,-22,16
1,831,55993,-190,-16323,-2215,-21,42,13
1,832,55998,-326,-16321,-2118,-18,95,13
1,833,56003,-411,-16425,-2039,-15,132,14
1,834,56008,-490,-16502,-1942,-13,158,12
1,835,56013,-558,-16486,-1870,-14,168,13
1,836,56018,-606,-16494,-1738,-12,170,15
1,837,56023,-555,-16448,-1640,-12,170,16
1,838,56028,-557,-16489,-1526,-10,161,17
1,839,56033,-626,-16491,-1437,-10,140,17
1,840,56038,-783,-16489,-1316,-11,115,13
1,841,56043,-799,-16463,-1236,-9,71,12
1,842,56048,-680,-16431,-1212,-10,19,18
1,843,56053,-575,-16422,-1324,-10,-26,21
1,844,56058,-441,-16432,-1415,-8,-57,20
1,845,56063,-451,-16383,-1465,-9,-75,19
1,846,56068,-353,-16426,-1568,-10,-86,22
1,847,56073,-270,-16460,-1648,-9,-85,24
1,848,56078,-207,-16476,-1705,-9,-68,24
1,849,56083,-254,-16461,-1773,-11,-42,21
1,850,56088,-310,-16478,-1841,-11,-18,20
1,851,56093,-340,-16438,-1835,-10,7,19
1,852,56098,-353,-16399,-1805,-11,26,22
1,853,56103,-385,-16388,-1839,-11,44,22
1,854,56108,-455,-16371,-1779,-10,58,21
1,855,56113,-611,-16340,-1715,-9,60,19
1,856,56118,-659,-16301,-1709,-7,50,20
1,857,56123,-601,-16305,-1742,-6,35,21
1,858,56128,-588,-16345,-1725,-4,24,21
1,859,56133,-495,-16291,-1748,-2,7,23
1,860,56138,-493,-16329,-1696,-3,-5,24
1,861,56143,-500,-16282,-1626,-2,-11,21
1,862,56148,-494,-16238,-1623,-2,-21,21
1,863,56153,-499,-16233,-1711,-1,-32,21
1,864,56158,-473,-16276,-1719,0,-41,20
1,865,56163,-481,-16280,-1729,-2,-50,20
1,866,56168,-470,-16308,-1688,-1,-56,21
1,867,56173,-371,-16312,-1723,0,-60,22
1,868,56178,-274,-16251,-1745,2,-52,22
1,869,56183,-302,-16296,-1802,3,-40,21
1,870,56188,-327,-16332,-1850,1,-19,19
1,871,56193,-360,-16340,-1894,-1,0,18
1,872,56198,-366,-16309,-1881,1,19,18
1,873,56203,-280,-16287,-1964,1,43,17
1,874,56208,-326,-16296,-1979,2,71,17
1,875,56213,-411,-16317,-1886,2,99,15
1,876,56218,-538,-16302,-1763,2,112,13
1,877,56223,-607,-16298,-1757,2,109,14
1,878,56228,-652,-16302,-1676,3,100,14
1,879,56233,-687,-16279,-1676,5,86,13
1,880,56238,-690,-16272,-1582,5,62,12
1,881,56243,-640,-16237,-1553,4,35,13
1,882,56248,-592,-16223,-1508,5,9,13
1,883,56253,-464,-16293,-1617,7,-31,14
1,884,56258,-437,-16276,-1684,7,-48,12
1,885,56263,-416,-16252,-1716,5,-55,9
1,886,56268,-411,-16207,-1681,3,-56,8
1,887,56273,-344,-16197,-1690,3,-58,11
1,888,56278,-311,-16253,-1709,4,-54,13
1,889,56283,-375,-16290,-1760,5,-49,10
1,890,56288,-377,-16284,-1827,3,-42,7
1,891,56293,-394,-16298,-1839,2,-34,8
1,892,56298,-361,-16296,-1817,3,-23,10
1,893,56303,-338,-16371,-1829,2,-6,9
1,894,56308,-335,-16404,-1837,3,16,8
1,895,56313,-392,-16366,-1891,4,33,4
1,896,56318,-430,-16361,-1890,5,45,3
1,897,56323,-473,-16358,-1886,4,56,3
1,898,56328,-490,-16411,-1830,3,63,6
1,899,56333,-517,-16409,-1661,3,62,4
1,900,56338,-564,-16379,-1580,3,51,3
1,901,56343,-580,-16353,-1552,5,32,3
1,902,56348,-590,-16275,-1607,6,10,3
1,903,56353,-584,-16275,-1618,4,-16,1
1,904,56358,-527,-16253,-1584,5,-41,0
1,905,56363,-490,-16231,-1611,4,-62,4
1,906,56368,-448,-16297,-1643,5,-77,5
1,907,56373,-355,-16282,-1684,4,-80,5
1,908,56378,-255,-16283,-1766,3,-77,4
1,909,56383,-305,-16233,-1798,4,-70,2
1,910,56388,-322,-16204,-1784,4,-57,1
1,911,56393,-427,-16254,-1809,3,-46,0
1,912,56398,-455,-16329,-1814,4,-36,0
1,913,56403,-412,-16395,-1883,3,-26,0
1,914,56408,-371,-16317,-1917,6,-11,1
1,915,56413,-298,-16327,-1935,7,5,1
1,916,56418,-280,-16306,-1990,5,28,1
1,917,56423,-364,-16313,-1991,6,53,-2
1,918,56428,-497,-16378,-1918,5,71,-4
1,919,56433,-593,-16395,-1783,5,78,-6
1,920,56438,-627,-16383,-1645,5,81,-8
1,921,56443,-609,-16327,-1620,7,79,-5
1,922,56448,-588,-16321,-1625,7,68,-4
1,923,56453,-602,-16301,-1585,8,50,-7
1,924,56458,-619,-16249,-1490,7,20,-7
1,925,56463,-578,-16229,-1529,6,-8,-4
1,926,56468,-500,-16216,-1636,7,-25,-8
1,927,56473,-534,-16163,-1670,5,-35,-7
1,928,56478,-473,-16146,-1654,7,-42,-6
1,929,56483,-477,-16225,-1612,7,-53,-6
1,930,56488,-503,-16322,-1564,6,-64,-6
1,931,56493,-463,-16298,-1661,6,-73,-7
1,932,56498,-444,-16239,-1725,8,-76,-7
1,933,56503,-401,-16248,-1834,8,-69,-6
1,934,56508,-428,-16329,-1838,8,-61,-7
1,935,56513,-443,-16423,-1844,7,-46,-8
1,936,56518,-420,-16409,-1890,5,-29,-8
1,937,56523,-354,-16397,-1944,9,-5,-4
1,938,56528,-325,-16393,-1963,8,29,-7
1,939,56533,-305,-16389,-1960,6,59,-10
1,940,56538,-364,-16389,-1882,8,79,-10
1,941,56543,-496,-16362,-1744,8,87,-9
1,942,56548,-626,-16340,-1635,7,87,-12
1,943,56553,-663,-16345,-1536,9,77,-11
1,944,56558,-688,-16311,-1459,8,59,-11
1,945,56563,-623,-16325,-1378,9,29,-8
1,946,56568,-569,-16308,-1443,10,-6,-6
1,947,56573,-547,-16253,-1444,10,-35,-5
1,948,56578,-540,-16276,-1496,9,-58,-5
1,949,56583,-452,-16319,-1579,10,-72,-4
1,950,56588,-383,-16312,-1626,9,-74,-5
1,951,56593,-313,-16322,-1682,8,-72,-3
1,952,56598,-295,-16280,-1711,7,-65,-3
1,953,56603,-331,-16318,-1799,7,-52,-5
1,954,56608,-317,-16315,-1757,8,-33,-3
1,955,56613,-346,-16314,-1729,7,-11,-3
1,956,56618,-375,-16318,-1730,7,10,-4
1,957,56623,-409,-16367,-1755,5,24,-4
1,958,56628,-499,-16419,-1756,6,33,-4
1,959,56633,-537,-16401,-1748,7,39,-4
1,960,56638,-530,-16349,-1723,8,42,-5
1,961,56643,-496,-16301,-1649,6,48,-3
1,962,56648,-456,-16288,-1634,7,57,-3
1,963,56653,-487,-16310,-1599,9,56,-4
1,964,56658,-583,-16325,-1544,9,44,-5
1,965,56663,-619,-16286,-1542,7,23,-4
1,966,56668,-613,-16226,-1555,7,-1,-4
1,967,56673,-561,-16225,-1560,7,-21,-1
1,968,56678,-462,-16209,-1559,7,-35,-1
1,969,56683,-449,-16214,-1604,7,-45,-1
1,970,56688,-379,-16239,-1599,8,-55,0
1,971,56693,-330,-16208,-1617,9,-64,2
1,972,56698,-305,-16204,-1715,9,-65,3
1,973,56703,-362,-16190,-1767,9,-55,2
1,974,56708,-447,-16212,-1717,6,-46,2
1,975,56713,-527,-16322,-1634,4,-41,0
1,976,56718,-554,-16394,-1629,2,-38,1
1,977,56723,-467,-16394,-1628,3,-31,2
1,978,56728,-344,-16355,-1653,4,-18,4
1,979,56733,-349,-16333,-1807,4,-4,4
1,980,56738,-419,-16324,-1818,6,9,1
1,981,56743,-469,-16287,-1791,4,14,0
1,982,56748,-404,-16297,-1756,4,12,3
1,983,56753,-394,-16266,-1796,4,13,3
1,984,56758,-385,-16281,-1813,7,22,2
1,985,56763,-469,-16251,-1830,9,27,2
1,986,56768,-609,-16295,-1790,6,27,1
1,987,56773,-641,-16339,-1618,2,24,4
1,988,56778,-564,-16389,-1506,1,22,4
1,989,56783,-563,-16376,-1442,2,22,4
1,990,56788,-551,-16371,-1462,4,16,1
1,991,56793,-622,-16341,-1592,5,3,-3
1,992,56798,-687,-16342,-1651,3,-18,-3
1,993,56803,-541,-16367,-1631,1,-37,3
1,994,56808,-309,-16362,-1605,0,-48,7
1,995,56813,-217,-16383,-1720,1,-42,8
1,996,56818,-253,-16380,-1797,4,-26,4
1,997,56823,-394,-16369,-1790,5,-15,0
1,998,56828,-491,-16338,-1728,4,-16,3
1,999,56833,-575,-16392,-1646,2,-21,2
