event_id,seq,ts_us,ax,ay,az,gx,gy,gz
1,0,546808,2375,-16200,-1285,-5,-95,3
1,1,546813,2241,-16155,-1289,0,-115,3
1,2,546818,2275,-16071,-1418,4,-130,1
1,3,546823,2428,-15991,-1468,8,-142,-3
1,4,546828,2631,-16003,-1427,9,-149,0
1,5,546833,2632,-16030,-1424,9,-150,-1
1,6,546838,2698,-16025,-1486,8,-143,-6
1,7,546843,2727,-16037,-1576,4,-133,-3
1,8,546848,2825,-16065,-1661,0,-117,1
1,9,546853,2969,-16045,-1540,0,-96,2
1,10,546858,3104,-16082,-1463,-7,-74,3
1,11,546863,3197,-16093,-1419,-11,-49,6
1,12,546868,3231,-16112,-1436,-16,-21,9
1,13,546873,3139,-16143,-1493,-21,9,12
1,14,546878,3049,-16139,-1491,-25,39,17
1,15,546883,2917,-16118,-1513,-27,61,24
1,16,546888,2797,-16159,-1485,-30,77,26
1,17,546893,2680,-16134,-1471,-30,83,26
1,18,546898,2591,-16143,-1402,-31,79,26
1,19,546903,2471,-16175,-1273,-28,69,25
1,20,546908,2427,-16145,-1260,-24,54,24
1,21,546913,2319,-16188,-1222,-22,30,22
1,22,546918,2311,-16201,-1308,-16,7,17
1,23,546923,2273,-16156,-1304,-10,-19,13
1,24,546928,2311,-16203,-1305,-4,-48,11
1,25,546933,2391,-16130,-1407,-2,-71,9
1,26,546938,2506,-16134,-1439,3,-88,6
1,27,546943,2592,-16126,-1495,6,-100,6
1,28,546948,2646,-16131,-1441,7,-106,4
1,29,546953,2751,-16074,-1430,8,-102,2
1,30,546958,2805,-16108,-1533,7,-92,1
1,31,546963,3021,-16025,-1384,6,-73,4
1,32,546968,2823,-16087,-1440,-2,-53,9
1,33,546973,3006,-16086,-1553,-5,-33,8
1,34,546978,2930,-16042,-1385,-4,-7,15
1,35,546983,2875,-16051,-1406,-9,13,17
1,36,546988,2810,-16063,-1437,-15,29,15
1,37,546993,2664,-16105,-1412,-16,41,19
1,38,546998,2552,-16170,-1428,-16,47,20
1,39,547003,2599,-16147,-1502,-15,45,20
1,40,547008,2538,-16174,-1466,-13,35,19
1,41,547013,2531,-16252,-1411,-8,19,16
1,42,547018,2497,-16276,-1360,-5,5,14
1,43,547023,2545,-16221,-1371,-2,-12,12
1,44,547028,2602,-16234,-1409,1,-26,11
1,45,547033,2672,-16211,-1456,4,-36,9
1,46,547038,2704,-16213,-1425,5,-41,7
1,47,547043,2743,-16196,-1457,6,-41,8
1,48,547048,2782,-16166,-1448,6,-34,7
1,49,547053,2810,-16148,-1428,5,-26,9
1,50,547058,2792,-16176,-1415,3,-18,10
1,51,547063,2815,-16171,-1365,0,-6,11
1,52,547068,2765,-16168,-1402,-1,6,11
1,53,547073,2792,-16157,-1382,-4,14,13
1,54,547078,2773,-16137,-1381,-5,25,14
1,55,547083,2663,-16142,-1354,-5,32,16
1,56,547088,2559,-16113,-1491,-3,38,16
1,57,547093,2532,-16111,-1469,-2,40,13
1,58,547098,2503,-16112,-1382,-4,34,11
1,59,547103,2534,-16111,-1301,-2,29,10
1,60,547108,2485,-16068,-1264,0,23,9
1,61,547113,2437,-16098,-1406,3,13,8
1,62,547118,2427,-16148,-1411,4,2,7
1,63,547123,2401,-16086,-1332,7,-9,5
1,64,547128,2378,-16077,-1381,8,-19,1
1,65,547133,2437,-16077,-1462,10,-33,0
1,66,547138,2535,-16093,-1501,15,-42,-1
1,67,547143,2602,-16060,-1449,16,-47,-4
1,68,547148,2674,-16123,-1323,18,-51,-4
1,69,547153,2778,-16128,-1313,18,-50,-4
1,70,547158,2759,-16127,-1348,15,-45,-4
1,71,547163,2774,-16132,-1420,13,-37,-2
1,72,547168,2786,-16090,-1410,14,-30,0
1,73,547173,2826,-16029,-1363,16,-27,1
1,74,547178,2945,-16060,-1358,12,-17,-3
1,75,547183,2896,-16096,-1396,10,-5,1
1,76,547188,2819,-16070,-1425,7,7,4
1,77,547193,2740,-16089,-1425,5,18,2
1,78,547198,2666,-16107,-1546,6,30,5
1,79,547203,2601,-16119,-1591,5,33,6
1,80,547208,2635,-16179,-1536,5,35,7
1,81,547213,2603,-16172,-1417,8,29,3
1,82,547218,2553,-16205,-1381,8,20,-2
1,83,547223,2571,-16231,-1393,10,11,-1
1,84,547228,2573,-16189,-1422,14,1,0
1,85,547233,2590,-16170,-1482,14,-9,-1
1,86,547238,2581,-16182,-1535,16,-17,-4
1,87,547243,2566,-16217,-1570,19,-24,-6
1,88,547248,2598,-16214,-1542,23,-28,-7
1,89,547253,2636,-16163,-1410,22,-28,-7
1,90,547258,2716,-16181,-1277,19,-25,-8
1,91,547263,2815,-16162,-1323,20,-21,-7
1,92,547268,2859,-16144,-1423,16,-13,-5
1,93,547273,2798,-16170,-1466,13,-8,-5
1,94,547278,2768,-16158,-1513,14,-3,-5
1,95,547283,2735,-16112,-1487,14,6,-4
1,96,547288,2831,-16098,-1423,14,15,-3
1,97,547293,2901,-16048,-1422,10,26,-3
1,98,547298,2907,-16026,-1419,7,36,-1
1,99,547303,2941,-16000,-1424,6,50,2
1,100,547308,2885,-16000,-1421,3,66,3
1,101,547313,2796,-16013,-1428,0,79,4
1,102,547318,2730,-16054,-1381,-3,91,6
1,103,547323,2684,-16066,-1376,-4,97,8
1,104,547328,2547,-16093,-1440,-3,96,10
1,105,547333,2420,-16104,-1451,-3,88,8
1,106,547338,2351,-16151,-1359,1,72,6
1,107,547343,2384,-16140,-1322,5,52,3
1,108,547348,2392,-16162,-1315,9,27,1
1,109,547353,2452,-16145,-1290,12,1,0
1,110,547358,2539,-16171,-1289,18,-31,-3
1,111,547363,2604,-16130,-1351,18,-38,-5
1,112,547368,2678,-16120,-1432,19,-42,-3
1,113,547373,2746,-16124,-1444,19,-41,-1
1,114,547378,2833,-16136,-1447,17,-33,-1
1,115,547383,2935,-16123,-1476,14,-20,-1
1,116,547388,2953,-16134,-1474,11,-5,0
1,117,547393,2902,-16187,-1411,5,13,3
1,118,547398,2861,-16198,-1418,1,32,6
1,119,547403,2862,-16184,-1465,-2,51,11
1,120,547408,2783,-16147,-1440,-7,69,11
1,121,547413,2692,-16128,-1480,-11,79,12
1,122,547418,2607,-16181,-1492,-10,85,13
1,123,547423,2486,-16206,-1454,-8,87,14
1,124,547428,2314,-16243,-1444,-8,81,14
1,125,547433,2277,-16264,-1452,-7,69,11
1,126,547438,2270,-16281,-1468,-6,50,8
1,127,547443,2279,-16293,-1454,-1,28,4
1,128,547448,2268,-16316,-1388,3,6,1
1,129,547453,2257,-16307,-1367,9,-18,0
1,130,547458,2346,-16273,-1421,9,-35,-1
1,131,547463,2417,-16270,-1432,11,-49,-5
1,132,547468,2523,-16197,-1407,13,-57,-9
1,133,547473,2617,-16190,-1315,14,-58,-10
1,134,547478,2769,-16140,-1396,12,-51,-8
1,135,547483,2850,-16105,-1381,8,-35,-3
1,136,547488,2549,-16199,-1580,-1,-19,-1
1,137,547493,2813,-16152,-1598,0,0,-8
1,138,547498,2519,-16115,-1360,-3,26,1
1,139,547503,2570,-16199,-1682,-13,38,2
1,140,547508,2697,-16180,-1712,-10,44,0
1,141,547513,2558,-16196,-1496,-6,55,3
1,142,547518,2504,-16227,-1432,-8,50,1
1,143,547523,2474,-16239,-1322,-9,43,-3
1,144,547528,2416,-16230,-1242,-8,35,-1
1,145,547533,2450,-16220,-1343,-7,21,-3
1,146,547538,2475,-16187,-1391,-3,6,-6
1,147,547543,2472,-16112,-1288,0,-9,-7
1,148,547548,2564,-16087,-1297,1,-22,-9
1,149,547553,2630,-16062,-1353,0,-30,-8
1,150,547558,2673,-16011,-1332,-1,-27,-8
1,151,547563,2759,-16025,-1394,-3,-19,-8
1,152,547568,2723,-16042,-1372,-5,-10,-5
1,153,547573,2738,-16061,-1353,-6,-1,-4
1,154,547578,2750,-16074,-1505,-9,11,-3
1,155,547583,2718,-16030,-1561,-11,24,-1
1,156,547588,2653,-16037,-1467,-13,32,1
1,157,547593,2634,-16038,-1370,-14,36,1
1,158,547598,2606,-16062,-1302,-16,36,2
1,159,547603,2570,-16013,-1347,-15,35,0
1,160,547608,2519,-16022,-1398,-15,28,0
1,161,547613,2585,-16028,-1389,-14,19,2
1,162,547618,2614,-16009,-1344,-11,11,0
1,163,547623,2583,-16050,-1373,-9,-1,0
1,164,547628,2603,-16039,-1355,-9,-7,-1
1,165,547633,2642,-16050,-1419,-9,-11,-2
1,166,547638,2634,-16081,-1489,-8,-15,0
1,167,547643,2640,-16021,-1424,-6,-20,1
1,168,547648,2692,-16054,-1340,-3,-25,-1
1,169,547653,2701,-16046,-1286,-6,-24,-3
1,170,547658,2742,-16063,-1338,-8,-24,1
1,171,547663,2771,-16057,-1444,-10,-24,1
1,172,547668,2822,-16069,-1371,-9,-22,2
1,173,547673,2880,-16094,-1326,-12,-16,3
1,174,547678,2961,-16088,-1335,-15,-7,5
1,175,547683,2965,-16112,-1457,-18,6,6
1,176,547688,2928,-16136,-1530,-19,21,9
1,177,547693,2842,-16199,-1513,-22,34,14
1,178,547698,2736,-16230,-1489,-24,44,15
1,179,547703,2703,-16285,-1471,-23,50,14
1,180,547708,2656,-16265,-1500,-23,47,15
1,181,547713,2556,-16298,-1523,-23,40,15
1,182,547718,2519,-16331,-1468,-22,27,13
1,183,547723,2477,-16313,-1396,-20,13,11
1,184,547728,2424,-16327,-1446,-16,-5,8
1,185,547733,2449,-16305,-1464,-11,-19,7
1,186,547738,2442,-16278,-1553,-11,-33,4
1,187,547743,2478,-16272,-1569,-8,-46,3
1,188,547748,2574,-16278,-1495,-4,-55,1
1,189,547753,2632,-16245,-1481,-5,-55,-1
1,190,547758,2709,-16201,-1409,-5,-48,0
1,191,547763,2680,-16179,-1375,-6,-39,3
1,192,547768,2682,-16163,-1444,-11,-26,3
1,193,547773,2714,-16120,-1507,-14,-13,5
1,194,547778,2792,-16075,-1461,-17,1,3
1,195,547783,2808,-16084,-1403,-20,16,6
1,196,547788,2740,-16095,-1335,-23,31,8
1,197,547793,2581,-16138,-1371,-26,46,10
1,198,547798,2546,-16146,-1444,-29,57,12
1,199,547803,2504,-16151,-1518,-28,59,15
1,200,547808,2436,-16188,-1429,-27,53,12
1,201,547813,2380,-16209,-1345,-24,44,8
1,202,547818,2322,-16240,-1376,-20,30,6
1,203,547823,2289,-16258,-1386,-20,13,4
1,204,547828,2226,-16215,-1448,-14,-4,3
1,205,547833,2255,-16184,-1477,-13,-23,-1
1,206,547838,2301,-16160,-1441,-8,-44,-3
1,207,547843,2449,-16166,-1423,-3,-60,-7
1,208,547848,2550,-16131,-1499,-2,-69,-8
1,209,547853,2590,-16117,-1490,-2,-72,-8
1,210,547858,2663,-16118,-1474,-3,-66,-9
1,211,547863,2688,-16109,-1445,-5,-52,-7
1,212,547868,2760,-16043,-1425,-6,-35,-4
1,213,547873,2837,-16076,-1412,-11,-15,-3
1,214,547878,2827,-16068,-1466,-15,4,0
1,215,547883,2743,-16051,-1519,-20,21,1
1,216,547888,2651,-16063,-1507,-21,33,2
1,217,547893,2632,-16092,-1451,-20,40,4
1,218,547898,2551,-16107,-1363,-22,42,4
1,219,547903,2522,-16117,-1331,-22,40,3
1,220,547908,2500,-16157,-1429,-22,31,2
1,221,547913,2530,-16189,-1555,-19,16,2
1,222,547918,2550,-16196,-1521,-13,3,2
1,223,547923,2551,-16188,-1446,-8,-11,-5
1,224,547928,2590,-16220,-1450,-7,-17,-6
1,225,547933,2635,-16263,-1441,-8,-23,-4
1,226,547938,2629,-16234,-1511,-7,-23,-2
1,227,547943,2671,-16217,-1602,-6,-25,-2
1,228,547948,2731,-16179,-1552,-3,-28,-4
1,229,547953,2787,-16148,-1481,-3,-27,-4
1,230,547958,2815,-16107,-1453,-8,-17,-5
1,231,547963,2783,-16115,-1414,-10,-7,-3
1,232,547968,2758,-16116,-1469,-10,4,-1
1,233,547973,2806,-16092,-1522,-13,13,1
1,234,547978,2743,-16087,-1536,-14,24,2
1,235,547983,2723,-16098,-1518,-15,34,3
1,236,547988,2713,-16148,-1482,-17,40,4
1,237,547993,2583,-16152,-1479,-16,46,4
1,238,547998,2555,-16180,-1429,-15,43,4
1,239,548003,2597,-16183,-1423,-13,37,5
1,240,548008,2625,-16147,-1386,-14,32,4
1,241,548013,2630,-16131,-1436,-14,25,1
1,242,548018,2541,-16140,-1486,-12,17,1
1,243,548023,2516,-16167,-1497,-10,17,2
1,244,548028,2539,-16169,-1481,-10,12,1
1,245,548033,2562,-16159,-1494,-10,9,2
1,246,548038,2646,-16164,-1465,-7,9,-1
1,247,548043,2655,-16155,-1441,-8,8,-1
1,248,548048,2525,-16153,-1546,-10,7,1
1,249,548053,2468,-16196,-1601,-8,4,0
1,250,548058,2459,-16142,-1567,-5,1,-1
1,251,548063,2472,-16145,-1571,-5,-4,-2
1,252,548068,2516,-16149,-1449,-4,-10,-2
1,253,548073,2545,-16175,-1413,-2,-13,-3
1,254,548078,2512,-16191,-1488,-2,-18,-4
1,255,548083,2548,-16216,-1498,0,-23,-6
1,256,548088,2610,-16190,-1459,1,-25,-5
1,257,548093,2687,-16172,-1382,1,-25,-5
1,258,548098,2767,-16203,-1422,-2,-21,-4
1,259,548103,2744,-16178,-1478,-2,-15,-5
1,260,548108,2634,-16166,-1556,-4,1,-2
1,261,548113,2706,-16130,-1544,-5,7,-2
1,262,548118,2772,-16162,-1466,-5,12,-1
1,263,548123,2768,-16131,-1382,-7,16,1
1,264,548128,2767,-16086,-1378,-9,23,1
1,265,548133,2684,-16048,-1369,-8,29,3
1,266,548138,2648,-16031,-1554,-7,30,3
1,267,548143,2631,-16036,-1572,-9,30,2
1,268,548148,2603,-16061,-1535,-9,28,2
1,269,548153,2535,-16102,-1481,-7,27,3
1,270,548158,2510,-16117,-1434,-6,28,1
1,271,548163,2432,-16111,-1382,-6,24,4
1,272,548168,2371,-16118,-1449,-5,17,2
1,273,548173,2424,-16119,-1483,-2,6,0
1,274,548178,2546,-16099,-1368,-1,-6,-1
1,275,548183,2611,-16109,-1366,0,-14,-5
1,276,548188,2583,-16136,-1402,-1,-17,-5
1,277,548193,2551,-16124,-1514,0,-15,-3
1,278,548198,2571,-16103,-1521,0,-10,-2
1,279,548203,2600,-16078,-1537,2,-5,-3
1,280,548208,2624,-16075,-1546,1,0,-3
1,281,548213,2685,-16123,-1456,-1,7,-2
1,282,548218,2702,-16150,-1388,-3,14,-4
1,283,548223,2685,-16181,-1411,-6,21,-2
1,284,548228,2613,-16168,-1448,-8,24,0
1,285,548233,2621,-16150,-1434,-6,27,0
1,286,548238,2608,-16142,-1442,-6,30,2
1,287,548243,2563,-16180,-1460,-7,29,0
1,288,548248,2514,-16166,-1517,-6,28,2
1,289,548253,2428,-16224,-1566,-3,23,1
1,290,548258,2374,-16255,-1593,-2,15,-3
1,291,548263,2429,-16230,-1496,0,3,-4
1,292,548268,2493,-16239,-1407,3,-9,-3
1,293,548273,2557,-16247,-1351,5,-19,-6
1,294,548278,2535,-16247,-1422,5,-28,-8
1,295,548283,2525,-16237,-1490,6,-32,-7
1,296,548288,2567,-16202,-1468,11,-37,-8
1,297,548293,2653,-16164,-1540,12,-36,-8
1,298,548298,2737,-16153,-1526,10,-33,-7
1,299,548303,2776,-16121,-1429,8,-27,-8
1,300,548308,2732,-16112,-1382,6,-16,-6
1,301,548313,2762,-16091,-1391,3,-8,-4
1,302,548318,2785,-16055,-1413,1,5,-3
1,303,548323,2764,-16083,-1405,-1,9,-3
1,304,548328,2754,-16057,-1433,-3,11,-1
1,305,548333,2791,-16066,-1437,-4,12,0
1,306,548338,2805,-16083,-1447,-2,14,1
1,307,548343,2783,-16063,-1461,-3,19,1
1,308,548348,2711,-16056,-1467,-4,24,1
1,309,548353,2710,-16075,-1491,-4,29,3
1,310,548358,2733,-16052,-1517,-4,34,5
1,311,548363,2745,-16045,-1628,-7,37,6
1,312,548368,2680,-16056,-1610,-6,38,8
1,313,548373,2614,-16048,-1569,-4,38,9
1,314,548378,2626,-16061,-1481,-4,36,10
1,315,548383,2588,-16059,-1405,-4,32,10
1,316,548388,2557,-16060,-1467,-5,28,10
1,317,548393,2504,-16063,-1604,-6,21,15
1,318,548398,2535,-16106,-1474,0,0,17
1,319,548403,2734,-16037,-1200,8,-22,11
1,320,548408,2875,-15932,-1215,6,-40,14
1,321,548413,2718,-15884,-1004,7,-55,20
1,322,548418,2784,-15802,-336,10,-75,23
1,323,548423,3161,-15732,186,3,-95,29
1,324,548428,3534,-15727,-156,-10,-102,35
1,325,548433,3528,-15649,-767,-17,-98,46
1,326,548438,3192,-15473,-1055,-19,-98,60
1,327,548443,2518,-15649,-1253,-26,-103,67
1,328,548448,1966,-16197,-1770,-35,-115,75
1,329,548453,2168,-16405,-1713,-27,-136,81
1,330,548458,3012,-16443,-1512,-27,-166,77
1,331,548463,3673,-16587,-1839,-38,-177,84
1,332,548468,2891,-16879,-1404,-48,-164,117
1,333,548473,2871,-17321,-3357,-78,-176,103
1,334,548478,3903,-17101,-2660,-44,-164,99
1,335,548483,3411,-17038,-1856,-58,-106,137
1,336,548488,3930,-17152,-2514,-100,-61,144
1,337,548493,3981,-17053,-2251,-102,14,167
1,338,548498,3516,-17047,-2503,-121,99,200
1,339,548503,2857,-16964,-2864,-136,161,227
1,340,548508,2470,-16937,-3404,-150,191,239
1,341,548513,2347,-16828,-3282,-149,190,248
1,342,548518,2076,-16729,-2603,-141,172,261
1,343,548523,1663,-16649,-1938,-148,129,277
1,344,548528,1445,-16837,-3089,-161,81,285
1,345,548533,1288,-16662,-2762,-121,28,299
1,346,548538,675,-16583,-2369,-114,-35,320
1,347,548543,502,-16742,-2670,-122,-117,320
1,348,548548,857,-16556,-1946,-92,-185,318
1,349,548553,534,-16405,-1593,-96,-234,328
1,350,548558,964,-16258,-2551,-109,-289,330
1,351,548563,1131,-15813,-1902,-100,-324,345
1,352,548568,1589,-15749,-2745,-123,-342,362
1,353,548573,1554,-15510,-2101,-105,-322,381
1,354,548578,1700,-15248,-1598,-113,-287,390
1,355,548583,1003,-15472,-2409,-151,-227,411
1,356,548588,374,-15453,-2371,-162,-185,428
1,357,548593,933,-15437,-3119,-178,-170,433
1,358,548598,1271,-15265,-2398,-162,-155,452
1,359,548603,1361,-15072,-1366,-160,-148,468
1,360,548608,1098,-15219,-1611,-189,-133,484
1,361,548613,685,-15198,-1656,-192,-112,503
1,362,548618,584,-15082,-1736,-199,-88,521
1,363,548623,392,-15132,-1879,-217,-66,542
1,364,548628,369,-15156,-1987,-229,-51,552
1,365,548633,255,-15222,-1908,-231,-39,560
1,366,548638,-523,-15375,-1932,-240,-32,574
1,367,548643,-826,-15670,-2542,-241,-44,593
1,368,548648,-1564,-15740,-2148,-217,-79,615
1,369,548653,-1622,-15687,-1798,-203,-167,607
1,370,548658,-744,-15734,-1757,-197,-261,585
1,371,548663,-979,-15929,-1572,-191,-319,590
1,372,548668,-995,-16070,-1814,-191,-363,594
1,373,548673,-770,-15949,-2069,-189,-384,597
1,374,548678,-642,-15881,-2395,-196,-384,609
1,375,548683,-445,-15926,-2543,-201,-374,618
1,376,548688,-233,-15978,-2304,-201,-353,620
1,377,548693,71,-15923,-2033,-214,-314,629
1,378,548698,-446,-16286,-2722,-234,-258,648
1,379,548703,-1090,-16380,-2472,-221,-238,656
1,380,548708,-842,-16397,-2287,-225,-264,653
1,381,548713,-757,-16669,-2900,-230,-282,661
1,382,548718,-1269,-16534,-1703,-210,-304,673
1,383,548723,-1213,-16703,-2579,-230,-362,658
1,384,548728,-1493,-16534,-1944,-217,-429,652
1,385,548733,-1326,-17009,-3636,-228,-488,652
1,386,548738,-1713,-16677,-1947,-176,-541,664
1,387,548743,-938,-16765,-2615,-205,-607,646
1,388,548748,-146,-16901,-3478,-195,-653,646
1,389,548753,-305,-16591,-2095,-145,-659,661
1,390,548758,-1,-16641,-2583,-174,-658,658
1,391,548763,68,-16554,-2695,-183,-624,673
1,392,548768,38,-16650,-2999,-189,-558,691
1,393,548773,-301,-16481,-2677,-187,-499,705
1,394,548778,-242,-16453,-3061,-200,-448,716
1,395,548783,-892,-16426,-2487,-200,-421,730
1,396,548788,-1045,-16564,-2482,-203,-425,726
1,397,548793,-1716,-16764,-2246,-199,-439,736
1,398,548798,-1799,-16895,-2555,-191,-480,740
1,399,548803,-1635,-16776,-2393,-174,-545,742
1,400,548808,-1609,-16776,-2440,-162,-616,738
1,401,548813,-1057,-16741,-2476,-154,-677,728
1,402,548818,-1302,-16767,-2153,-148,-704,731
1,403,548823,-582,-16698,-2335,-152,-699,729
1,404,548828,-556,-16639,-2498,-151,-652,745
1,405,548833,-503,-16553,-2604,-160,-584,759
1,406,548838,-639,-16661,-3333,-177,-518,772
1,407,548843,-467,-16462,-2625,-169,-462,787
1,408,548848,-1241,-16557,-2230,-177,-414,803
1,409,548853,-1403,-16642,-2045,-183,-406,795
1,410,548858,-1553,-16715,-2640,-186,-401,799
1,411,548863,-2572,-16699,-2529,-170,-451,811
1,412,548868,-2471,-16734,-2609,-162,-511,802
1,413,548873,-2252,-16625,-2395,-146,-568,800
1,414,548878,-1919,-16455,-1897,-136,-621,795
1,415,548883,-1241,-16480,-2556,-134,-648,791
1,416,548888,-1985,-16385,-1878,-120,-641,803
1,417,548893,-1498,-16336,-2746,-132,-630,799
1,418,548898,-1268,-16184,-2706,-127,-601,808
1,419,548903,-1192,-16149,-2645,-129,-557,815
1,420,548908,-1185,-16203,-2573,-138,-511,815
1,421,548913,-1463,-16364,-2716,-142,-463,820
1,422,548918,-2091,-16390,-2331,-140,-416,828
1,423,548923,-2130,-16366,-2585,-146,-383,827
1,424,548928,-2910,-16456,-2844,-144,-366,840
1,425,548933,-3050,-16397,-2766,-130,-385,836
1,426,548938,-3408,-16408,-2443,-117,-431,830
1,427,548943,-2713,-16410,-2382,-111,-492,812
1,428,548948,-2523,-16366,-1964,-98,-533,806
1,429,548953,-2216,-16358,-2391,-100,-544,800
1,430,548958,-2309,-16082,-2637,-93,-525,804
1,431,548963,-2119,-15965,-2965,-100,-483,799
1,432,548968,-2265,-15906,-3045,-104,-424,806
1,433,548973,-2733,-16017,-2814,-104,-361,813
1,434,548978,-2683,-16120,-2471,-104,-328,805
1,435,548983,-2736,-16142,-2446,-103,-296,801
1,436,548988,-3441,-16225,-2344,-107,-276,802
1,437,548993,-3387,-16228,-3019,-104,-293,789
1,438,548998,-4032,-15976,-2171,-82,-309,789
1,439,549003,-3589,-16065,-2720,-90,-343,766
1,440,549008,-3284,-15926,-2194,-69,-371,759
1,441,549013,-3597,-15954,-2311,-72,-372,757
1,442,549018,-2897,-15830,-2687,-73,-381,735
1,443,549023,-2671,-15697,-2706,-69,-351,732
1,444,549028,-3353,-15732,-2439,-78,-304,733
1,445,549033,-2791,-15862,-3148,-86,-276,714
1,446,549038,-3409,-15770,-2280,-67,-226,728
1,447,549043,-3178,-15962,-2660,-85,-198,711
1,448,549048,-3222,-15969,-2553,-79,-181,703
1,449,549053,-3629,-15917,-2465,-74,-161,699
1,450,549058,-3508,-15937,-2811,-79,-160,679
1,451,549063,-3758,-15928,-2856,-72,-151,670
1,452,549068,-4189,-16062,-3040,-72,-141,665
1,453,549073,-4130,-16018,-2845,-62,-160,647
1,454,549078,-3881,-16031,-3013,-53,-172,639
1,455,549083,-4832,-15987,-2382,-39,-190,632
1,456,549088,-4116,-16165,-3161,-50,-237,585
1,457,549093,-4216,-16116,-3015,-26,-263,579
1,458,549098,-4445,-16032,-2869,-23,-282,566
1,459,549103,-3426,-15875,-3137,-15,-310,533
1,460,549108,-3987,-15825,-2855,-12,-285,531
1,461,549113,-3770,-15734,-2967,-11,-264,514
1,462,549118,-3676,-15721,-3194,-6,-240,501
1,463,549123,-3853,-15628,-2915,1,-208,493
1,464,549128,-4324,-15646,-3012,0,-184,483
1,465,549133,-4547,-15615,-2917,-2,-181,465
1,466,549138,-4405,-15623,-3049,1,-193,446
1,467,549143,-4371,-15444,-2175,14,-207,421
1,468,549148,-4089,-15675,-2863,1,-226,390
1,469,549153,-4283,-15550,-2086,27,-244,382
1,470,549158,-4433,-15714,-2851,15,-242,363
1,471,549163,-4157,-15583,-2811,24,-250,339
1,472,549168,-4186,-15526,-2885,24,-249,328
1,473,549173,-3891,-15460,-2655,33,-254,311
1,474,549178,-3685,-15386,-2348,34,-254,291
1,475,549183,-3440,-15313,-2368,30,-234,273
1,476,549188,-3418,-15206,-2581,27,-204,260
1,477,549193,-3422,-15008,-2522,27,-168,246
1,478,549198,-3460,-14854,-2493,15,-123,233
1,479,549203,-3144,-14724,-2612,7,-76,216
1,480,549208,-3177,-14602,-2391,3,-23,206
1,481,549213,-3258,-14620,-2553,-10,30,192
1,482,549218,-3516,-14648,-2567,-13,76,179
1,483,549223,-3908,-14669,-2592,-17,113,163
1,484,549228,-4132,-14721,-2624,-24,132,142
1,485,549233,-4388,-14850,-2627,-20,136,125
1,486,549238,-4863,-15018,-2570,-16,121,105
1,487,549243,-4679,-15083,-2489,-4,74,75
1,488,549248,-4842,-15227,-2525,10,25,49
1,489,549253,-5118,-15273,-2599,19,-39,17
1,490,549258,-5203,-15393,-2933,29,-108,-15
1,491,549263,-5204,-15522,-3008,45,-179,-46
1,492,549268,-4957,-15613,-2751,62,-244,-77
1,493,549273,-4291,-15558,-2740,73,-298,-112
1,494,549278,-4088,-15457,-2616,82,-322,-141
1,495,549283,-3895,-15331,-2760,86,-329,-166
1,496,549288,-3733,-15222,-2610,87,-325,-193
1,497,549293,-3219,-15102,-2410,80,-289,-218
1,498,549298,-3088,-14985,-2229,70,-228,-235
1,499,549303,-3084,-14888,-2225,61,-162,-254
1,500,549308,-3543,-14985,-2624,47,-88,-270
1,501,549313,-3685,-15054,-2943,41,-36,-290
1,502,549318,-3772,-15171,-2736,42,-8,-312
1,503,549323,-3908,-15353,-2467,41,-5,-340
1,504,549328,-3951,-15510,-2258,42,-18,-370
1,505,549333,-4033,-15659,-2439,47,-41,-401
1,506,549338,-4005,-15666,-2551,56,-72,-431
1,507,549343,-3681,-15693,-2532,60,-98,-460
1,508,549348,-3255,-15678,-2597,60,-115,-491
1,509,549353,-3016,-15630,-2562,66,-106,-521
1,510,549358,-3147,-15636,-2626,69,-75,-546
1,511,549363,-3180,-15556,-2694,70,-32,-565
1,512,549368,-2860,-15359,-2725,66,9,-587
1,513,549373,-2640,-15265,-2496,63,45,-610
1,514,549378,-2778,-15280,-2058,62,83,-635
1,515,549383,-3031,-15297,-1818,52,115,-660
1,516,549388,-3208,-15306,-1951,39,134,-688
1,517,549393,-3104,-15396,-2555,42,140,-709
1,518,549398,-3192,-15327,-2216,63,139,-726
1,519,549403,-2925,-15434,-2400,61,113,-756
1,520,549408,-2743,-15439,-1856,69,84,-784
1,521,549413,-2256,-15559,-1989,63,60,-822
1,522,549418,-1743,-15551,-2022,73,58,-848
1,523,549423,-1673,-15620,-2098,72,83,-862
1,524,549428,-1605,-15677,-2394,63,118,-882
1,525,549433,-1186,-15610,-2600,59,165,-905
1,526,549438,-1286,-15423,-2245,58,234,-914
1,527,549443,-1033,-15314,-2382,44,310,-932
1,528,549448,-1416,-15222,-2027,42,388,-944
1,529,549453,-2359,-15456,-2029,29,462,-952
1,530,549458,-2925,-15741,-2619,26,501,-965
1,531,549463,-2818,-15772,-2743,43,495,-979
1,532,549468,-2514,-15866,-2473,58,442,-1006
1,533,549473,-2642,-16065,-1925,76,364,-1040
1,534,549478,-2985,-16284,-1708,89,277,-1079
1,535,549483,-2882,-16347,-2002,104,187,-1116
1,536,549488,-2051,-16217,-2122,122,117,-1143
1,537,549493,-1516,-16152,-1941,136,85,-1159
1,538,549498,-1265,-16091,-1991,143,68,-1182
1,539,549503,-673,-15847,-1511,156,81,-1210
1,540,549508,-274,-15755,-1658,132,113,-1227
1,541,549513,148,-15721,-2099,118,180,-1241
1,542,549518,1159,-15133,-503,133,283,-1255
1,543,549523,1258,-14940,-609,84,429,-1249
1,544,549528,-697,-15054,-835,49,605,-1231
1,545,549533,-2271,-15498,-2544,15,733,-1231
1,546,549538,-3012,-15579,-3575,23,768,-1225
1,547,549543,-2728,-15806,-3156,59,702,-1243
1,548,549548,-2354,-16131,-1423,108,554,-1291
1,549,549553,-2622,-16646,-621,129,376,-1340
1,550,549558,-2947,-17073,-1288,145,196,-1387
1,551,549563,-2626,-17046,-1584,184,26,-1421
1,552,549568,-1459,-17072,-2569,210,-106,-1438
1,553,549573,-925,-16994,-2273,240,-194,-1453
1,554,549578,330,-16931,-2209,250,-252,-1493
1,555,549583,949,-16873,-2000,243,-238,-1510
1,556,549588,965,-16899,-2134,223,-171,-1514
1,557,549593,2630,-16224,-1704,200,62,-1530
1,558,549598,3297,-16047,-1477,182,224,-1532
1,559,549603,3452,-15840,-684,160,403,-1534
1,560,549608,1873,-16173,-1259,93,609,-1501
1,561,549613,-400,-16854,-3340,45,781,-1452
1,562,549618,-1266,-16978,-3338,74,831,-1438
1,563,549623,-514,-17226,-3000,100,761,-1466
1,564,549628,-193,-17687,-2080,147,629,-1502
1,565,549633,-686,-18080,-1074,192,463,-1527
1,566,549638,-1549,-18427,-1733,208,280,-1546
1,567,549643,-1263,-18431,-2496,251,78,-1574
1,568,549648,7,-17978,-2125,305,-104,-1600
1,569,549653,1124,-17794,-2155,322,-231,-1619
1,570,549658,2429,-17549,-2267,338,-303,-1641
1,571,549663,3091,-17254,-1848,343,-298,-1646
1,572,549668,3441,-17014,-2168,315,-231,-1641
1,573,549673,4015,-16495,-1991,300,-108,-1627
1,574,549678,4555,-15963,-1319,276,63,-1607
1,575,549683,5088,-15780,-1520,232,257,-1591
1,576,549688,5005,-15690,-846,194,473,-1574
1,577,549693,4285,-16158,-1285,141,693,-1541
1,578,549698,2587,-16773,-1958,107,874,-1504
1,579,549703,2460,-16968,-2072,116,949,-1504
1,580,549708,1661,-17249,-1934,118,970,-1474
1,581,549713,-856,-17957,-2366,121,882,-1454
1,582,549718,577,-17918,-2860,201,644,-1526
1,583,549723,1074,-17549,-900,293,404,-1546
1,584,549728,1270,-17657,-1139,294,190,-1546
1,585,549733,976,-17807,-1244,322,4,-1552
1,586,549738,2628,-17186,-1338,371,-153,-1593
1,587,549743,4602,-16675,-1707,375,-213,-1602
1,588,549748,4896,-16594,-1500,353,-173,-1578
1,589,549753,6564,-16169,-1439,334,-87,-1579
1,590,549758,6978,-15769,-1060,299,92,-1543
1,591,549763,5796,-15886,-1676,228,321,-1488
1,592,549768,4948,-16299,-2842,184,534,-1455
1,593,549773,4563,-16440,-2585,180,704,-1416
1,594,549778,5164,-16586,-2347,170,792,-1387
1,595,549783,5507,-16749,-1387,186,818,-1370
1,596,549788,4774,-17006,-435,195,804,-1357
1,597,549793,4142,-17101,-808,197,761,-1349
1,598,549798,4148,-16868,-1172,201,702,-1328
1,599,549803,3654,-16142,-987,205,645,-1304
1,600,549808,-7259,-19380,3949,207,158,-1211
1,601,549813,-32768,-32768,531,862,-2782,-1191
1,602,549818,-32768,-22981,20759,1819,-6163,-2674
1,603,549823,5798,2778,-31117,877,-8047,-4677
1,604,549828,32767,9687,-32768,954,-5329,-3413
1,605,549833,7825,-5561,-1303,573,1603,968
1,606,549838,-5434,-13448,18953,-344,1640,1886
1,607,549843,31311,-21542,32767,148,463,937
1,608,549848,28974,-5517,26083,179,1280,1020
1,609,549853,20139,-9093,-17718,-2162,4831,1628
1,610,549858,-2071,-11328,-32768,-3125,6268,2087
1,611,549863,-24442,-22471,-12769,-1372,4680,2180
1,612,549868,-17421,-18710,27495,311,1951,1020
1,613,549873,9316,-15864,30238,305,1020,256
1,614,549878,42,-16313,4032,-548,1542,757
1,615,549883,-5733,-17344,-17700,-743,1251,876
1,616,549888,-2572,-14299,-11306,-275,182,528
1,617,549893,-2541,-16401,416,-40,-633,442
1,618,549898,-1876,-17554,11321,109,-1091,420
1,619,549903,5453,-16503,4664,-19,-1164,271
1,620,549908,9045,-15194,-6459,-105,-982,383
1,621,549913,3549,-15488,-9314,-64,-841,607
1,622,549918,2478,-15785,-4228,21,-872,579
1,623,549923,4177,-15422,1883,80,-965,487
1,624,549928,9192,-14831,2451,12,-869,395
1,625,549933,9587,-15453,-2415,-88,-579,457
1,626,549938,5494,-15551,-2749,-61,-197,566
1,627,549943,3062,-15567,-2637,-109,-34,601
1,628,549948,5164,-15781,-1854,-138,-35,554
1,629,549953,8392,-15296,331,-97,-48,490
1,630,549958,8671,-15754,979,-119,30,505
1,631,549963,5074,-16650,348,-193,221,541
1,632,549968,3836,-17006,-2020,-225,310,556
1,633,549973,4555,-16382,-2337,-187,312,556
1,634,549978,7076,-16053,-2801,-184,280,519
1,635,549983,4922,-16732,-1515,-177,302,508
1,636,549988,3102,-17445,-1672,-161,278,480
1,637,549993,1073,-17449,-1325,-133,233,485
1,638,549998,2478,-17321,-2985,-130,122,466
1,639,550003,3417,-16950,-2643,-60,0,455
1,640,550008,3474,-16789,-1290,-3,-157,418
1,641,550013,2724,-17372,-1692,-1,-296,375
1,642,550018,2140,-17346,-1942,28,-417,349
1,643,550023,4521,-16690,-1614,75,-512,314
1,644,550028,4877,-16537,-1648,69,-479,341
1,645,550033,4632,-16762,-1888,57,-409,335
1,646,550038,5305,-16297,-1570,71,-375,301
1,647,550043,5929,-16016,-1745,44,-307,291
1,648,550048,5727,-16173,-1932,24,-207,304
1,649,550053,2174,-15792,-762,-21,-65,354
1,650,550058,8657,-16359,-1503,-32,-68,291
1,651,550063,7325,-14424,1299,91,-34,307
1,652,550068,-127,-17735,-2519,-113,145,414
1,653,550073,3106,-16650,-3806,0,75,223
1,654,550078,7250,-14179,549,125,86,198
1,655,550083,2541,-16158,-1580,-49,213,304
1,656,550088,3685,-16064,157,-16,90,244
1,657,550093,3181,-16123,-1173,-22,39,236
1,658,550098,2635,-16053,-1000,-3,16,260
1,659,550103,4064,-14912,-1035,7,-117,300
1,660,550108,3946,-15190,-1495,-14,-298,496
1,661,550113,2334,-15543,-662,23,-598,749
1,662,550118,1671,-17465,-2352,65,-941,900
1,663,550123,2556,-17103,-3402,212,-954,730
1,664,550128,4444,-15434,-684,255,-553,342
1,665,550133,4452,-15551,-1412,93,-138,101
1,666,550138,2529,-15963,-1772,65,-92,116
1,667,550143,3273,-15977,-1526,99,-147,88
1,668,550148,4022,-15768,-1417,106,-108,56
1,669,550153,3753,-15656,-1173,97,-77,53
1,670,550158,4265,-15777,-2038,80,-48,52
1,671,550163,3112,-15771,-1376,97,8,61
1,672,550168,3414,-15668,-1126,84,25,33
1,673,550173,3242,-15890,-1259,62,22,42
1,674,550178,3449,-15916,-1187,59,18,37
1,675,550183,3587,-15915,-1271,64,21,26
1,676,550188,3382,-15966,-1255,68,23,20
1,677,550193,3096,-16094,-1563,71,18,11
1,678,550198,3306,-16026,-1532,85,2,-1
1,679,550203,3253,-16104,-1650,87,-4,-9
1,680,550208,3286,-16145,-1566,96,-19,-18
1,681,550213,3223,-16206,-1619,98,-32,-29
1,682,550218,3159,-16239,-1810,100,-48,-45
1,683,550223,3209,-16120,-1745,105,-61,-54
1,684,550228,3176,-16109,-1686,102,-72,-63
1,685,550233,3427,-16038,-1510,101,-80,-73
1,686,550238,3487,-16051,-1473,95,-77,-79
1,687,550243,3572,-16083,-1703,88,-70,-84
1,688,550248,3589,-15995,-1630,93,-59,-87
1,689,550253,3662,-15856,-1382,91,-40,-89
1,690,550258,3638,-15855,-1552,78,-20,-93
1,691,550263,3762,-15803,-1432,74,1,-97
1,692,550268,3727,-15848,-1393,69,28,-96
1,693,550273,3681,-15832,-1279,65,52,-97
1,694,550278,3429,-15878,-1304,60,72,-101
1,695,550283,3454,-15905,-1528,55,82,-103
1,696,550288,3284,-15980,-1600,56,85,-104
1,697,550293,3261,-15974,-1488,59,76,-108
1,698,550298,3307,-15990,-1398,61,59,-113
1,699,550303,3375,-16011,-1405,59,44,-117
1,700,550308,3363,-16051,-1603,58,32,-121
1,701,550313,3415,-16055,-1681,59,23,-122
1,702,550318,3461,-16028,-1737,58,17,-121
1,703,550323,3575,-15979,-1826,55,16,-126
1,704,550328,3655,-16002,-1947,51,24,-126
1,705,550333,3730,-16042,-1865,49,40,-124
1,706,550338,3771,-16017,-1697,45,61,-125
1,707,550343,3564,-16070,-1609,35,87,-122
1,708,550348,3421,-16119,-1740,33,105,-119
1,709,550353,3017,-16287,-1898,35,88,-117
1,710,550358,3728,-16041,-1081,58,36,-126
1,711,550363,3256,-16142,-1230,37,32,-114
1,712,550368,3225,-16062,-1123,42,-10,-120
1,713,550373,3575,-15922,-1301,48,-39,-129
1,714,550378,3740,-15806,-1511,40,-31,-128
1,715,550383,3920,-15702,-1597,24,-10,-129
1,716,550388,3893,-15803,-1797,11,14,-122
1,717,550393,4247,-15743,-1531,18,41,-118
1,718,550398,4343,-15680,-1447,6,93,-109
1,719,550403,4488,-15707,-1681,-11,151,-99
1,720,550408,4600,-15764,-1731,-21,210,-87
1,721,550413,4564,-15731,-1488,-30,264,-75
1,722,550418,4415,-15743,-1313,-46,314,-66
1,723,550423,4069,-15709,-1341,-58,355,-56
1,724,550428,3599,-15781,-1667,-70,388,-51
1,725,550433,3188,-15864,-1999,-77,403,-48
1,726,550438,2437,-16012,-1869,-71,389,-41
1,727,550443,2320,-16045,-1733,-66,332,-52
1,728,550448,2224,-16144,-1737,-59,265,-55
1,729,550453,2308,-16153,-1546,-40,186,-62
1,730,550458,2449,-16231,-1492,-24,104,-66
1,731,550463,2332,-16365,-1432,-13,32,-69
1,732,550468,2481,-16257,-1496,-2,-31,-71
1,733,550473,2790,-16193,-1685,3,-78,-72
1,734,550478,3072,-16074,-1697,7,-108,-70
1,735,550483,3582,-15901,-1682,4,-121,-78
1,736,550488,3771,-15887,-1652,0,-111,-72
1,737,550493,3765,-15864,-1403,-5,-80,-63
1,738,550498,4177,-15776,-1456,-19,-41,-61
1,739,550503,4223,-15736,-1675,-31,24,-47
1,740,550508,4060,-15694,-1524,-38,84,-34
1,741,550513,4076,-15686,-1613,-53,140,-29
1,742,550518,3777,-15774,-1620,-66,192,-17
1,743,550523,3516,-15898,-1542,-78,229,-9
1,744,550528,3352,-16017,-1480,-84,253,-3
1,745,550533,3104,-16094,-1417,-85,261,4
1,746,550538,2838,-16142,-1595,-85,244,4
1,747,550543,2800,-16176,-1735,-79,207,0
1,748,550548,2815,-16197,-1570,-73,164,0
1,749,550553,2233,-16322,-1105,-66,120,3
1,750,550558,2653,-16319,-1534,-69,69,-12
1,751,550563,2360,-16345,-1702,-62,38,-10
1,752,550568,2215,-16382,-1903,-56,-1,-11
1,753,550573,2669,-16251,-1893,-44,-49,-18
1,754,550578,2825,-16216,-1589,-38,-79,-15
1,755,550583,2980,-16146,-1406,-32,-105,-19
1,756,550588,3218,-16080,-1331,-32,-124,-23
1,757,550593,3282,-16086,-1647,-41,-123,-19
1,758,550598,3495,-15981,-1708,-45,-103,-19
1,759,550603,3706,-15885,-1725,-47,-80,-11
1,760,550608,3854,-15819,-1609,-55,-35,-4
1,761,550613,3922,-15828,-1525,-68,16,4
1,762,550618,3863,-15849,-1444,-77,65,12
1,763,550623,3611,-15963,-1464,-87,114,21
1,764,550628,3377,-15973,-1458,-97,150,27
1,765,550633,3159,-15968,-1388,-98,165,31
1,766,550638,2956,-16033,-1374,-98,162,34
1,767,550643,2751,-16069,-1363,-98,143,35
1,768,550648,2642,-16121,-1472,-92,111,32
1,769,550653,2476,-16153,-1625,-89,73,32
1,770,550658,2518,-16103,-1718,-80,24,26
1,771,550663,2679,-16065,-1581,-70,-19,21
1,772,550668,2846,-16044,-1589,-66,-52,18
1,773,550673,3004,-16029,-1523,-62,-77,17
1,774,550678,3228,-16031,-1537,-61,-88,18
1,775,550683,3384,-15968,-1623,-61,-87,19
1,776,550688,3473,-15944,-1535,-64,-72,23
1,777,550693,3560,-15916,-1533,-69,-47,27
1,778,550698,3606,-15909,-1505,-72,-17,32
1,779,550703,3649,-15947,-1607,-80,15,35
1,780,550708,3567,-15972,-1652,-87,46,40
1,781,550713,3465,-16017,-1674,-88,66,46
1,782,550718,3369,-16048,-1526,-90,81,49
1,783,550723,3295,-16068,-1385,-90,87,53
1,784,550728,3193,-16057,-1339,-89,82,56
1,785,550733,3159,-15981,-1307,-89,71,59
1,786,550738,3103,-15964,-1486,-88,55,58
1,787,550743,2971,-16024,-1663,-84,32,57
1,788,550748,3168,-16022,-1815,-80,7,50
1,789,550753,2994,-16025,-1505,-72,-12,54
1,790,550758,3048,-16088,-1478,-70,-26,51
1,791,550763,3253,-16026,-1444,-64,-34,52
1,792,550768,3139,-16035,-1628,-59,-38,57
1,793,550773,3149,-15965,-1723,-56,-48,55
1,794,550778,3068,-15955,-1715,-56,-56,55
1,795,550783,3010,-15976,-1700,-55,-60,53
1,796,550788,3155,-15989,-1625,-54,-63,51
1,797,550793,3284,-16007,-1593,-52,-60,52
1,798,550798,3328,-15972,-1522,-48,-52,58
1,799,550803,3402,-16010,-1482,-47,-50,58
1,800,550808,3458,-16008,-1524,-50,-46,59
1,801,550813,3391,-15974,-1526,-50,-39,61
1,802,550818,3186,-16028,-1661,-56,-29,63
1,803,550823,3236,-16069,-1801,-52,-32,64
1,804,550828,4211,-15834,-1311,-37,-30,55
1,805,550833,3139,-16111,-1517,-60,13,74
1,806,550838,3538,-16174,-1779,-50,-4,63
1,807,550843,3442,-16054,-1653,-41,4,68
1,808,550848,3207,-16137,-1778,-51,17,74
1,809,550853,3254,-16097,-1715,-47,11,71
1,810,550858,3106,-16141,-1519,-41,8,71
1,811,550863,2939,-16146,-1518,-35,-5,70
1,812,550868,2950,-16115,-1596,-32,-22,66
1,813,550873,2964,-16136,-1728,-29,-39,67
1,814,550878,2961,-16117,-1666,-23,-60,66
1,815,550883,3099,-16129,-1528,-17,-77,62
1,816,550888,3123,-16178,-1452,-17,-85,59
1,817,550893,3271,-16114,-1517,-12,-92,57
1,818,550898,3341,-16071,-1603,-8,-92,60
1,819,550903,3308,-16069,-1654,-8,-92,60
1,820,550908,3440,-16064,-1554,-6,-93,60
1,821,550913,3507,-16071,-1556,-7,-87,62
1,822,550918,3607,-16001,-1528,-9,-77,63
1,823,550923,3584,-15957,-1565,-11,-59,64
1,824,550928,3598,-15944,-1566,-12,-37,67
1,825,550933,3596,-15914,-1591,-17,-15,70
1,826,550938,3753,-15871,-1555,-21,10,72
1,827,550943,3780,-15872,-1636,-27,45,76
1,828,550948,3603,-15893,-1616,-31,79,80
1,829,550953,3267,-15917,-1731,-35,110,83
1,830,550958,3070,-15982,-1814,-37,128,84
1,831,550963,2843,-16055,-1839,-35,136,84
1,832,550968,2677,-16100,-1789,-31,126,84
1,833,550973,2554,-16151,-1733,-25,100,81
1,834,550978,2525,-16163,-1714,-15,60,73
1,835,550983,2489,-16175,-1731,-8,14,66
1,836,550988,2549,-16169,-1735,3,-28,59
1,837,550993,2699,-16140,-1786,13,-64,54
1,838,550998,2965,-16087,-1753,18,-91,52
1,839,551003,3188,-16064,-1747,19,-104,48
1,840,551008,3352,-16042,-1723,20,-104,45
1,841,551013,3430,-16047,-1734,19,-91,47
1,842,551018,3526,-15996,-1763,14,-66,50
1,843,551023,3625,-15946,-1706,12,-37,53
1,844,551028,3629,-15924,-1652,8,-5,54
1,845,551033,3621,-15902,-1637,2,25,59
1,846,551038,3471,-15913,-1633,-5,53,63
1,847,551043,3273,-15922,-1652,-8,73,63
1,848,551048,3144,-15919,-1695,-11,83,64
1,849,551053,3094,-15912,-1598,-11,90,64
1,850,551058,3122,-15923,-1557,-11,88,64
1,851,551063,2997,-15972,-1590,-5,84,61
1,852,551068,2996,-15902,-1619,-8,69,60
1,853,551073,2725,-16048,-2057,-13,61,60
1,854,551078,2630,-16026,-1923,4,37,55
1,855,551083,2630,-16064,-1783,9,12,52
1,856,551088,2621,-16152,-1720,7,-14,49
1,857,551093,2844,-16118,-1574,14,-41,44
1,858,551098,3059,-16131,-1764,21,-74,37
1,859,551103,3157,-16086,-1808,22,-77,36
1,860,551108,3193,-16035,-1752,21,-74,35
1,861,551113,3148,-16029,-1756,21,-64,34
1,862,551118,3033,-16070,-1770,18,-51,34
1,863,551123,2950,-16104,-1811,17,-41,37
1,864,551128,3051,-16156,-1822,17,-38,37
1,865,551133,3190,-16065,-1679,18,-42,35
1,866,551138,3283,-16050,-1628,17,-46,32
1,867,551143,3277,-16042,-1628,15,-43,31
1,868,551148,3206,-16046,-1730,13,-37,30
1,869,551153,3251,-15984,-1801,9,-25,33
1,870,551158,3307,-15932,-1732,8,-8,36
1,871,551163,3327,-15957,-1721,5,12,39
1,872,551168,3229,-16003,-1734,2,32,38
1,873,551173,3132,-16036,-1772,1,42,37
1,874,551178,3020,-16039,-1856,0,47,36
1,875,551183,2985,-16079,-1886,0,44,36
1,876,551188,3043,-16094,-1718,4,37,36
1,877,551193,3075,-16074,-1671,3,29,35
1,878,551198,2961,-16111,-1740,2,24,31
1,879,551203,2892,-16070,-1848,3,19,30
1,880,551208,2837,-16029,-1848,6,12,29
1,881,551213,2893,-15993,-1835,8,3,27
1,882,551218,3003,-15980,-1704,11,-3,27
1,883,551223,3067,-15953,-1627,9,-4,24
1,884,551228,3019,-16009,-1641,9,0,25
1,885,551233,2907,-16029,-1748,9,0,23
1,886,551238,2888,-15980,-1796,9,-2,22
1,887,551243,2932,-16020,-1850,7,-2,21
1,888,551248,3217,-15975,-1587,13,-7,18
1,889,551253,3283,-16017,-1694,6,6,20
1,890,551258,2909,-16101,-1831,3,14,22
1,891,551263,3012,-16067,-1799,9,11,14
1,892,551268,2808,-16124,-1717,3,17,21
1,893,551273,2994,-16124,-1672,2,9,19
1,894,551278,3169,-16069,-1561,4,8,16
1,895,551283,3126,-16081,-1659,4,9,15
1,896,551288,3046,-16046,-1686,4,7,12
1,897,551293,2939,-16016,-1845,0,9,10
1,898,551298,2824,-16017,-1833,3,10,13
1,899,551303,2903,-15956,-1828,3,12,14
1,900,551308,2955,-15970,-1825,3,15,9
1,901,551313,2907,-16039,-1858,4,13,8
1,902,551318,2933,-16078,-1912,3,5,5
1,903,551323,2843,-16059,-1787,4,0,5
1,904,551328,2899,-16084,-1733,7,-6,3
1,905,551333,3004,-16039,-1603,7,-10,2
1,906,551338,3136,-16029,-1567,5,-8,2
1,907,551343,3153,-15930,-1646,3,-5,1
1,908,551348,3080,-15963,-1765,1,2,-2
1,909,551353,3041,-15979,-1839,-1,10,-1
1,910,551358,3032,-15949,-1787,-2,20,0
1,911,551363,3031,-15972,-1740,-4,30,1
1,912,551368,3063,-15987,-1682,-6,38,2
1,913,551373,3037,-16049,-1643,-10,45,-1
1,914,551378,2955,-16101,-1742,-9,46,-1
1,915,551383,2852,-16097,-1735,-9,36,-2
1,916,551388,2819,-16125,-1710,-7,24,-3
1,917,551393,2941,-16121,-1660,-5,12,-6
1,918,551398,2956,-16097,-1666,-4,0,-6
1,919,551403,2930,-16044,-1735,-5,-5,-8
1,920,551408,2908,-16098,-1823,-3,-10,-11
1,921,551413,2801,-16124,-1854,-4,-11,-12
1,922,551418,2850,-16057,-1838,-3,-11,-11
1,923,551423,2948,-16076,-1828,-3,-14,-12
1,924,551428,2970,-16076,-1762,-3,-16,-15
1,925,551433,2951,-16071,-1735,-2,-20,-14
1,926,551438,2972,-16036,-1652,-3,-23,-17
1,927,551443,3057,-15984,-1645,-4,-22,-19
1,928,551448,3059,-15975,-1727,-4,-17,-18
1,929,551453,3108,-15960,-1731,-6,-13,-17
1,930,551458,3142,-15952,-1720,-9,-1,-18
1,931,551463,3149,-15915,-1679,-13,10,-17
1,932,551468,3173,-15875,-1639,-14,22,-15
1,933,551473,3154,-15917,-1644,-15,36,-14
1,934,551478,3036,-15937,-1704,-19,46,-14
1,935,551483,2997,-15950,-1707,-19,50,-13
1,936,551488,2961,-16026,-1713,-21,49,-12
1,937,551493,2904,-16028,-1697,-22,45,-14
1,938,551498,2816,-16059,-1695,-23,38,-17
1,939,551503,2750,-16110,-1681,-22,28,-17
1,940,551508,2760,-16060,-1635,-18,18,-19
1,941,551513,2841,-16049,-1769,-15,5,-19
1,942,551518,2885,-16086,-1829,-15,-13,-23
1,943,551523,2931,-16117,-1826,-11,-29,-26
1,944,551528,2956,-16162,-1769,-10,-40,-27
1,945,551533,3021,-16177,-1816,-9,-45,-27
1,946,551538,3108,-16149,-1873,-9,-46,-28
1,947,551543,3150,-16053,-1883,-10,-39,-26
1,948,551548,3167,-16023,-1834,-8,-33,-25
1,949,551553,3160,-16069,-1793,-8,-26,-26
1,950,551558,3227,-16014,-1714,-13,-21,-26
1,951,551563,3310,-15999,-1710,-15,-11,-24
1,952,551568,3340,-15985,-1756,-18,6,-20
1,953,551573,3338,-15976,-1771,-20,19,-18
1,954,551578,3285,-15944,-1736,-21,31,-15
1,955,551583,3190,-15926,-1691,-25,45,-14
1,956,551588,3167,-15897,-1702,-27,56,-16
1,957,551593,3083,-15887,-1768,-31,65,-12
1,958,551598,3079,-15961,-1770,-29,70,-9
1,959,551603,3029,-15969,-1738,-30,71,-8
1,960,551608,2950,-15968,-1668,-30,68,-10
1,961,551613,2843,-16039,-1658,-29,60,-12
1,962,551618,2686,-16057,-1723,-28,48,-11
1,963,551623,2597,-16057,-1812,-25,29,-12
1,964,551628,2610,-16073,-1901,-21,6,-12
1,965,551633,2634,-16052,-1881,-15,-17,-17
1,966,551638,2688,-16084,-1763,-9,-43,-23
1,967,551643,2753,-16090,-1748,-8,-59,-25
1,968,551648,2891,-16099,-1762,-4,-69,-26
1,969,551653,3052,-16072,-1771,-3,-71,-25
1,970,551658,3136,-16022,-1769,-5,-62,-24
1,971,551663,3296,-16004,-1739,-9,-51,-24
1,972,551668,3367,-16018,-1727,-10,-33,-22
1,973,551673,3386,-15996,-1788,-15,-5,-19
1,974,551678,3407,-15988,-1810,-21,20,-15
1,975,551683,3303,-15993,-1797,-23,46,-9
1,976,551688,3151,-16021,-1812,-27,66,-9
1,977,551693,3096,-16024,-1747,-29,75,-8
1,978,551698,3011,-16029,-1718,-29,77,-4
1,979,551703,2991,-16040,-1653,-26,69,-3
1,980,551708,2923,-16026,-1603,-26,58,-6
1,981,551713,2849,-16025,-1667,-23,46,-6
1,982,551718,2730,-16023,-1768,-22,31,-9
1,983,551723,2649,-16019,-1863,-19,17,-11
1,984,551728,2650,-16017,-1877,-15,3,-12
1,985,551733,2674,-16010,-1735,-11,-13,-13
1,986,551738,2753,-15949,-1690,-8,-26,-15
1,987,551743,2858,-15968,-1597,-5,-33,-15
1,988,551748,2916,-15939,-1638,-6,-39,-16
1,989,551753,3047,-15946,-1707,-7,-42,-16
1,990,551758,3144,-15947,-1765,-8,-39,-16
1,991,551763,3135,-15956,-1854,-9,-30,-15
1,992,551768,3338,-15942,-1758,-8,-17,-13
1,993,551773,3383,-15942,-1753,-13,5,-9
1,994,551778,3347,-16055,-1846,-19,28,-4
1,995,551783,3406,-16019,-1823,-18,47,-4
1,996,551788,3258,-16028,-1796,-23,69,1
1,997,551793,3204,-16064,-1832,-27,79,3
1,998,551798,3159,-16137,-1787,-27,86,4
1,999,551803,3065,-16184,-1833,-27,88,6
