event_id,seq,ts_us,ax,ay,az,gx,gy,gz
2,0,98557,4550,-12900,-8368,-48,-102,-36
2,1,98562,4663,-12917,-8610,-44,-109,-36
2,2,98567,4605,-13002,-8844,-47,-105,-33
2,3,98572,4531,-13017,-8689,-42,-109,-34
2,4,98577,4700,-12934,-8459,-37,-120,-40
2,5,98582,4788,-12837,-8427,-36,-115,-42
2,6,98587,4676,-12853,-8550,-41,-98,-38
2,7,98592,4544,-12924,-8707,-42,-89,-39
2,8,98597,4692,-12851,-8798,-39,-87,-45
2,9,98602,4831,-12749,-8788,-39,-81,-47
2,10,98607,4748,-12810,-8864,-40,-75,-47
2,11,98612,4605,-12864,-8813,-34,-80,-47
2,12,98617,4504,-12927,-8768,-23,-93,-50
2,13,98622,4480,-12949,-8771,-9,-115,-54
2,14,98627,4540,-12920,-8675,5,-138,-56
2,15,98632,4574,-12936,-8605,14,-157,-58
2,16,98637,4627,-12890,-8599,24,-165,-64
2,17,98642,4665,-12860,-8629,22,-160,-65
2,18,98647,4593,-12821,-8686,20,-147,-70
2,19,98652,4252,-12729,-8362,9,-136,-86
2,20,98657,4896,-13345,-9258,-19,-131,-120
2,21,98662,5044,-13028,-8940,20,-135,-112
2,22,98667,4912,-12929,-8638,19,-103,-89
2,23,98672,4316,-13094,-8477,-7,-64,-80
2,24,98677,4592,-12721,-8613,4,-68,-99
2,25,98682,4483,-12883,-8732,-5,-56,-99
2,26,98687,4251,-13027,-8773,-9,-50,-94
2,27,98692,4449,-12868,-8588,4,-65,-104
2,28,98697,4658,-12804,-8629,14,-76,-112
2,29,98702,4478,-12947,-8699,13,-80,-108
2,30,98707,4244,-13124,-8806,18,-91,-106
2,31,98712,4543,-12966,-8632,50,-145,-118
2,32,98717,4476,-13028,-8558,56,-161,-121
2,33,98722,4356,-13087,-8602,63,-177,-123
2,34,98727,4370,-13065,-8736,68,-185,-127
2,35,98732,4569,-12985,-8849,71,-186,-131
2,36,98737,4710,-12877,-8792,70,-176,-136
2,37,98742,4685,-12855,-8710,64,-163,-140
2,38,98747,4512,-12916,-8690,58,-148,-142
2,39,98752,4335,-13018,-8765,54,-140,-146
2,40,98757,4319,-13028,-8782,56,-141,-151
2,41,98762,4425,-13002,-8760,63,-144,-157
2,42,98767,4575,-12882,-8733,64,-143,-159
2,43,98772,4585,-12919,-8738,61,-137,-160
2,44,98777,4533,-12992,-8718,59,-131,-159
2,45,98782,4418,-13046,-8718,58,-129,-161
2,46,98787,4389,-12979,-8724,60,-129,-165
2,47,98792,4400,-12946,-8708,64,-135,-167
2,48,98797,4411,-12964,-8642,68,-141,-168
2,49,98802,4412,-12982,-8706,70,-147,-169
2,50,98807,4304,-13036,-8840,73,-154,-170
2,51,98812,4321,-12951,-8862,79,-164,-173
2,52,98817,4440,-12841,-8806,83,-169,-177
2,53,98822,4440,-12858,-8695,81,-169,-179
2,54,98827,4421,-12843,-8698,79,-164,-181
2,55,98832,4544,-12830,-8734,78,-164,-185
2,56,98837,4589,-12874,-8587,76,-159,-190
2,57,98842,4565,-12973,-8612,68,-149,-191
2,58,98847,4530,-13010,-8678,63,-139,-191
2,59,98852,4556,-12985,-8707,63,-131,-196
2,60,98857,4608,-12929,-8784,64,-130,-198
2,61,98862,4543,-12983,-8712,63,-130,-196
2,62,98867,4480,-13009,-8680,68,-142,-194
2,63,98872,4445,-12964,-8703,76,-158,-195
2,64,98877,4419,-12985,-8704,85,-183,-192
2,65,98882,4470,-13084,-8680,93,-207,-193
2,66,98887,4629,-13134,-8661,102,-222,-195
2,67,98892,4696,-13172,-8738,104,-231,-195
2,68,98897,4692,-13225,-8705,101,-228,-197
2,69,98902,4761,-13219,-8623,97,-215,-201
2,70,98907,4786,-13217,-8697,86,-193,-201
2,71,98912,4704,-13204,-8793,77,-171,-204
2,72,98917,4591,-13248,-8701,72,-161,-207
2,73,98922,4487,-13251,-8549,71,-154,-208
2,74,98927,4400,-13261,-8670,68,-153,-211
2,75,98932,4341,-13296,-8759,68,-156,-212
2,76,98937,4382,-13241,-8729,73,-165,-214
2,77,98942,4471,-13202,-8711,80,-174,-217
2,78,98947,4542,-13189,-8723,82,-181,-216
2,79,98952,4460,-13289,-8848,78,-187,-215
2,80,98957,4431,-13321,-8785,85,-194,-216
2,81,98962,4495,-13251,-8797,87,-195,-216
2,82,98967,4560,-13196,-8788,87,-192,-218
2,83,98972,4642,-13231,-8759,85,-185,-221
2,84,98977,4610,-13301,-8827,75,-175,-220
2,85,98982,4624,-13241,-8734,69,-162,-223
2,86,98987,4684,-13143,-8723,68,-155,-224
2,87,98992,4644,-13120,-8665,64,-146,-223
2,88,98997,4653,-13123,-8761,61,-136,-223
2,89,99002,4737,-12994,-8733,58,-134,-224
2,90,99007,4804,-12955,-8713,57,-137,-225
2,91,99012,4763,-12976,-8644,60,-141,-222
2,92,99017,4617,-13004,-8741,63,-151,-212
2,93,99022,4595,-13018,-8767,69,-165,-210
2,94,99027,4716,-12933,-8783,77,-183,-210
2,95,99032,4832,-12884,-8864,85,-195,-209
2,96,99037,4843,-12741,-8762,90,-203,-207
2,97,99042,4731,-12791,-8619,89,-204,-202
2,98,99047,4628,-12872,-8499,85,-205,-195
2,99,99052,4609,-12970,-8604,85,-210,-190
2,100,99057,4727,-12971,-8694,93,-217,-194
2,101,99062,4851,-12880,-8653,96,-217,-199
2,102,99067,4946,-12813,-8559,89,-205,-197
2,103,99072,4969,-12855,-8632,77,-186,-190
2,104,99077,4866,-12861,-8649,71,-169,-185
2,105,99082,4761,-12905,-8696,68,-163,-182
2,106,99087,4687,-12941,-8589,65,-159,-180
2,107,99092,4692,-13015,-8540,63,-157,-177
2,108,99097,4752,-12957,-8550,64,-151,-176
2,109,99102,4806,-12951,-8738,67,-151,-173
2,110,99107,4808,-13000,-8751,65,-149,-169
2,111,99112,4753,-12973,-8617,64,-148,-165
2,112,99117,4748,-13020,-8646,63,-148,-160
2,113,99122,4690,-12974,-8712,67,-149,-154
2,114,99127,4606,-12897,-8808,69,-154,-149
2,115,99132,4669,-12799,-8749,72,-165,-148
2,116,99137,4703,-12902,-7818,82,-182,-146
2,117,99142,4251,-12850,-7389,94,-204,-141
2,118,99147,4070,-13035,-9767,74,-201,-114
2,119,99152,4129,-13194,-9495,87,-227,-117
2,120,99157,4941,-12846,-8608,112,-250,-138
2,121,99162,5293,-12593,-8210,97,-193,-138
2,122,99167,4985,-12752,-8825,55,-138,-123
2,123,99172,4392,-12976,-8665,38,-114,-114
2,124,99177,4149,-12914,-8035,34,-99,-116
2,125,99182,4623,-12784,-8585,27,-65,-117
2,126,99187,4728,-12705,-9092,12,-30,-110
2,127,99192,4564,-12816,-8935,-1,-14,-102
2,128,99197,4395,-12974,-8345,-1,-19,-98
2,129,99202,4199,-13081,-8302,0,-25,-89
2,130,99207,4138,-13102,-8667,4,-37,-74
2,131,99212,4237,-13043,-8847,16,-64,-67
2,132,99217,4635,-13012,-8698,27,-90,-64
2,133,99222,4747,-12972,-8433,27,-97,-62
2,134,99227,4620,-12976,-8562,21,-84,-54
2,135,99232,4455,-13013,-8748,16,-72,-48
2,136,99237,4463,-13029,-8614,10,-65,-47
2,137,99242,4658,-12955,-8472,7,-53,-46
2,138,99247,4804,-12898,-8543,-2,-29,-43
2,139,99252,4713,-12972,-8664,-14,-5,-38
2,140,99257,4613,-12994,-8703,-23,10,-34
2,141,99262,4598,-13089,-8514,-27,16,-29
2,142,99267,4674,-13090,-8414,-30,21,-24
2,143,99272,4725,-13051,-8548,-31,24,-17
2,144,99277,4740,-13003,-8681,-33,27,-11
2,145,99282,4770,-13021,-8703,-36,29,-7
2,146,99287,4836,-13065,-8604,-36,29,-1
2,147,99292,4859,-13073,-8629,-39,33,4
2,148,99297,4873,-13047,-8620,-39,36,7
2,149,99302,4818,-13034,-8708,-37,33,12
2,150,99307,4794,-13026,-8646,-36,30,15
2,151,99312,4879,-12982,-8579,-31,24,18
2,152,99317,4868,-12990,-8663,-28,19,24
2,153,99322,4884,-13001,-8795,-27,11,30
2,154,99327,4928,-12999,-8779,-21,-1,35
2,155,99332,4965,-13038,-8690,-19,-7,38
2,156,99337,4931,-13060,-8617,-16,-8,44
2,157,99342,4946,-13032,-8662,-17,-6,49
2,158,99347,4873,-13059,-8693,-22,-2,53
2,159,99352,4849,-13099,-8638,-25,5,57
2,160,99357,4896,-13099,-8595,-28,14,60
2,161,99362,4846,-13133,-8668,-33,24,62
2,162,99367,4799,-13158,-8747,-40,34,65
2,163,99372,4754,-13181,-8701,-44,41,68
2,164,99377,4715,-13147,-8652,-46,48,69
2,165,99382,4724,-13111,-8666,-46,51,69
2,166,99387,4661,-13128,-8610,-48,46,75
2,167,99392,4607,-13143,-8544,-45,41,78
2,168,99397,4660,-13053,-8574,-41,33,81
2,169,99402,4685,-13062,-8612,-38,25,84
2,170,99407,4664,-13124,-8544,-37,20,86
2,171,99412,4669,-13177,-8507,-40,19,87
2,172,99417,4741,-13106,-8563,-42,29,87
2,173,99422,4809,-13011,-8694,-50,45,90
2,174,99427,4862,-12967,-8771,-63,65,90
2,175,99432,4859,-12986,-8748,-72,85,89
2,176,99437,4831,-13008,-8629,-78,103,90
2,177,99442,4710,-13084,-8695,-86,114,93
2,178,99447,4645,-13133,-8672,-86,112,97
2,179,99452,4656,-13112,-8618,-81,105,97
2,180,99457,4703,-13081,-8566,-76,96,99
2,181,99462,4761,-13087,-8600,-74,88,101
2,182,99467,4718,-13028,-8672,-67,69,108
2,183,99472,4730,-13041,-8643,-62,63,107
2,184,99477,4730,-13057,-8708,-61,56,110
2,185,99482,4713,-12988,-8748,-59,51,109
2,186,99487,4794,-12924,-8751,-57,49,109
2,187,99492,4765,-12917,-8754,-58,50,108
2,188,99497,4780,-12920,-8721,-59,52,110
2,189,99502,4776,-12895,-8648,-60,55,113
2,190,99507,4754,-12875,-8733,-64,59,114
2,191,99512,4736,-12925,-8775,-67,60,115
2,192,99517,4722,-12962,-8737,-66,61,114
2,193,99522,4729,-12971,-8639,-66,60,114
2,194,99527,4713,-12973,-8648,-68,65,115
2,195,99532,4692,-12976,-8772,-71,71,116
2,196,99537,4666,-13033,-8810,-76,76,117
2,197,99542,4722,-13080,-8779,-77,79,115
2,198,99547,4744,-13037,-8728,-79,87,110
2,199,99552,4674,-13037,-8822,-83,97,111
2,200,99557,4589,-13064,-8870,-82,97,114
2,201,99562,4657,-13052,-8763,-76,85,110
2,202,99567,4646,-12995,-8713,-68,69,110
2,203,99572,4552,-13006,-8785,-59,50,114
2,204,99577,4521,-12998,-8809,-48,27,115
2,205,99582,4619,-12960,-8713,-40,5,114
2,206,99587,4662,-12980,-8634,-38,-3,112
2,207,99592,4672,-12899,-8671,-39,6,111
2,208,99597,4711,-12820,-8789,-44,23,109
2,209,99602,4764,-12753,-8802,-57,51,104
2,210,99607,4790,-12798,-8794,-71,79,100
2,211,99612,4669,-12897,-8708,-87,109,98
2,212,99617,4581,-12922,-8714,-98,134,97
2,213,99622,4564,-12885,-8799,-104,149,95
2,214,99627,4625,-12883,-8849,-106,157,93
2,215,99632,4635,-12874,-8812,-106,154,92
2,216,99637,4623,-12907,-8751,-102,147,92
2,217,99642,4542,-12914,-8732,-97,134,93
2,218,99647,4497,-12935,-8851,-89,114,93
2,219,99652,4505,-12926,-8852,-77,91,95
2,220,99657,4581,-12922,-8794,-67,67,94
2,221,99662,4690,-12884,-8708,-60,51,91
2,222,99667,4737,-12872,-8783,-57,46,89
2,223,99672,4722,-12940,-8891,-56,48,87
2,224,99677,4748,-12957,-8926,-59,54,83
2,225,99682,4861,-12859,-8861,-60,61,79
2,226,99687,4907,-12800,-8807,-64,73,75
2,227,99692,4809,-12801,-8847,-71,89,73
2,228,99697,4738,-12836,-8854,-76,98,71
2,229,99702,4791,-12797,-8772,-75,101,68
2,230,99707,4826,-12729,-8696,-76,101,65
2,231,99712,4801,-12749,-8757,-77,98,68
2,232,99717,4715,-12836,-8818,-72,92,66
2,233,99722,4698,-12852,-8791,-66,75,66
2,234,99727,4726,-12858,-8752,-62,61,66
2,235,99732,4702,-12921,-8790,-58,50,63
2,236,99737,4725,-12963,-8868,-50,38,62
2,237,99742,4750,-12917,-8945,-46,27,59
2,238,99747,4754,-12971,-8950,-42,16,59
2,239,99752,4703,-13028,-8856,-37,9,56
2,240,99757,4701,-13013,-8785,-30,-2,50
2,241,99762,4688,-13034,-8886,-28,-9,49
2,242,99767,4610,-13041,-8902,-27,-15,46
2,243,99772,4680,-13000,-8861,-24,-12,41
2,244,99777,4754,-12848,-8881,-25,-8,36
2,245,99782,4752,-12821,-8947,-28,-1,33
2,246,99787,4696,-12821,-8968,-34,10,33
2,247,99792,4694,-12730,-8866,-34,13,28
2,248,99797,4695,-12726,-8801,-36,13,27
2,249,99802,4602,-12812,-8917,-38,13,29
2,250,99807,4567,-12802,-8949,-36,9,26
2,251,99812,4638,-12743,-8930,-31,2,24
2,252,99817,4643,-12743,-8905,-30,-1,23
2,253,99822,4560,-12789,-8988,-30,-4,21
2,254,99827,4523,-12819,-9008,-23,-8,17
2,255,99832,4627,-12853,-8993,-22,-13,14
2,256,99837,4619,-12918,-9064,-22,-17,13
2,257,99842,4566,-12895,-8995,-13,-25,10
2,258,99847,4597,-12868,-8906,-6,-35,5
2,259,99852,4552,-12935,-8901,-4,-40,5
2,260,99857,4560,-12940,-8900,-2,-48,4
2,261,99862,4623,-12910,-8875,0,-52,1
2,262,99867,4672,-12797,-8790,4,-51,-1
2,263,99872,4738,-12700,-8805,0,-43,-2
2,264,99877,4713,-12713,-8871,-10,-27,-5
2,265,99882,4656,-12774,-8913,-18,-14,-8
2,266,99887,4634,-12764,-8850,-20,-4,-10
2,267,99892,4670,-12675,-8782,-20,3,-13
2,268,99897,4649,-12674,-8839,-23,8,-16
2,269,99902,4565,-12738,-8908,-22,8,-14
2,270,99907,4510,-12794,-8925,-20,2,-15
2,271,99912,4572,-12836,-8857,-13,-10,-18
2,272,99917,4560,-12833,-8865,-6,-20,-21
2,273,99922,4543,-12854,-8928,-2,-28,-23
2,274,99927,4586,-12778,-8937,3,-32,-24
2,275,99932,4601,-12774,-8953,5,-34,-24
2,276,99937,4598,-12769,-8929,6,-34,-27
2,277,99942,4590,-12738,-8899,3,-30,-30
2,278,99947,4534,-12758,-8861,0,-25,-30
2,279,99952,4498,-12769,-8869,-1,-18,-32
2,280,99957,4583,-12751,-8977,-3,-10,-33
2,281,99962,4633,-12716,-9017,-6,-4,-33
2,282,99967,4553,-12732,-8939,-6,-1,-35
2,283,99972,4500,-12799,-8839,-5,-1,-36
2,284,99977,4494,-12835,-8880,-3,-7,-33
2,285,99982,4471,-12859,-8923,1,-13,-35
2,286,99987,4535,-12839,-8925,4,-23,-36
2,287,99992,4630,-12847,-8970,9,-28,-38
2,288,99997,4653,-12859,-9005,10,-30,-38
2,289,100002,4641,-12872,-9017,10,-27,-41
2,290,100007,4638,-12844,-9011,12,-23,-43
2,291,100012,4651,-12783,-8955,12,-19,-43
2,292,100017,4665,-12787,-8879,13,-18,-45
2,293,100022,4565,-12870,-8872,10,-16,-48
2,294,100027,4436,-12926,-8873,7,-17,-47
2,295,100032,4483,-12934,-8876,10,-18,-48
2,296,100037,4569,-12860,-8917,10,-16,-49
2,297,100042,4596,-12840,-8951,6,-11,-50
2,298,100047,4584,-12877,-8950,0,-3,-52
2,299,100052,4594,-12935,-8920,0,5,-53
2,300,100057,4622,-12914,-8944,-5,14,-54
2,301,100062,4573,-12904,-9000,-6,13,-52
2,302,100067,4572,-12936,-8968,-5,11,-53
2,303,100072,4635,-12896,-8892,-3,5,-56
2,304,100077,4643,-12815,-8968,2,0,-57
2,305,100082,4659,-12844,-9021,6,-5,-56
2,306,100087,4630,-12892,-9058,11,-19,-57
2,307,100092,4654,-12906,-8965,17,-31,-56
2,308,100097,4720,-12859,-8918,24,-43,-56
2,309,100102,4724,-12886,-9030,30,-53,-56
2,310,100107,4749,-12865,-9099,34,-64,-55
2,311,100112,4729,-12940,-8984,34,-71,-55
2,312,100117,4810,-12969,-8840,34,-73,-57
2,313,100122,4846,-12933,-8843,32,-65,-58
2,314,100127,4796,-12934,-9002,26,-55,-58
2,315,100132,4756,-12959,-8996,19,-46,-59
2,316,100137,4806,-12879,-8892,15,-31,-60
2,317,100142,4794,-12844,-8864,8,-18,-60
2,318,100147,4687,-12913,-8923,3,-8,-60
2,319,100152,4611,-12934,-9010,-1,-4,-60
2,320,100157,4630,-12956,-9024,2,-11,-61
2,321,100162,4671,-12902,-8950,6,-19,-64
2,322,100167,4656,-12902,-8918,11,-26,-65
2,323,100172,4515,-12954,-8947,11,-33,-62
2,324,100177,4484,-13004,-9074,16,-46,-58
2,325,100182,4585,-12996,-9036,27,-64,-62
2,326,100187,4678,-13004,-8933,31,-75,-63
2,327,100192,4710,-12995,-8926,34,-82,-64
2,328,100197,4650,-12990,-8997,34,-86,-64
2,329,100202,4645,-12975,-9069,36,-88,-64
2,330,100207,4728,-12944,-9044,36,-89,-65
2,331,100212,4772,-12881,-8863,34,-87,-65
2,332,100217,4723,-12867,-8895,29,-80,-66
2,333,100222,4639,-12877,-8910,22,-69,-66
2,334,100227,4671,-12862,-8996,20,-63,-66
2,335,100232,4718,-12828,-8991,13,-52,-68
2,336,100237,4582,-12702,-8829,-4,-32,-79
2,337,100242,4635,-12934,-9060,-16,-30,-87
2,338,100247,4688,-12944,-9100,-3,-36,-87
2,339,100252,4640,-12807,-8906,11,-47,-77
2,340,100257,4645,-12832,-9006,12,-57,-73
2,341,100262,4720,-12804,-9030,20,-69,-73
2,342,100267,4741,-12854,-9001,24,-79,-74
2,343,100272,4646,-12945,-8974,24,-84,-74
2,344,100277,4695,-12889,-8963,29,-90,-76
2,345,100282,4801,-12792,-8889,27,-91,-75
2,346,100287,4806,-12815,-8892,23,-84,-76
2,347,100292,4816,-12757,-8924,19,-77,-79
2,348,100297,4777,-12769,-8990,15,-65,-78
2,349,100302,4739,-12770,-9090,12,-61,-77
2,350,100307,4717,-12709,-8993,10,-65,-78
2,351,100312,4626,-12749,-8886,13,-67,-73
2,352,100317,4598,-12783,-9039,12,-70,-68
2,353,100322,4518,-12751,-9094,15,-78,-65
2,354,100327,4606,-12730,-9087,19,-84,-62
2,355,100332,4684,-12716,-9016,21,-89,-62
2,356,100337,4686,-12737,-9015,22,-89,-59
2,357,100342,4610,-12718,-8959,21,-88,-58
2,358,100347,4577,-12721,-9010,22,-84,-59
2,359,100352,4606,-12727,-9024,20,-86,-60
2,360,100357,4604,-12673,-8894,20,-84,-61
2,361,100362,4644,-12683,-8804,19,-81,-59
2,362,100367,4638,-12716,-8936,15,-73,-61
2,363,100372,4663,-12752,-8967,11,-64,-59
2,364,100377,4696,-12774,-8892,9,-57,-59
2,365,100382,4701,-12761,-8834,5,-48,-59
2,366,100387,4685,-12813,-8900,-2,-39,-59
2,367,100392,4600,-12870,-8894,-4,-34,-54
2,368,100397,4611,-12939,-8867,-4,-34,-53
2,369,100402,4634,-12951,-8881,-2,-38,-49
2,370,100407,4610,-12950,-8863,1,-43,-48
2,371,100412,4589,-12945,-8910,5,-49,-45
2,372,100417,4589,-12974,-8929,7,-57,-42
2,373,100422,4625,-12909,-8869,10,-65,-42
2,374,100427,4683,-12853,-8863,16,-68,-43
2,375,100432,4703,-12819,-8886,13,-68,-42
2,376,100437,4647,-12875,-8930,15,-66,-40
2,377,100442,4604,-12850,-8888,18,-66,-39
2,378,100447,4602,-12827,-8865,16,-63,-36
2,379,100452,4643,-12828,-8846,16,-60,-37
2,380,100457,4634,-12836,-8821,14,-55,-35
2,381,100462,4612,-12879,-8909,11,-48,-35
2,382,100467,4625,-12867,-8970,9,-41,-33
2,383,100472,4649,-12828,-8968,10,-35,-29
2,384,100477,4656,-12853,-8884,10,-31,-28
2,385,100482,4612,-12941,-8971,11,-29,-23
2,386,100487,4559,-12999,-9025,15,-36,-19
2,387,100492,4625,-12986,-9047,24,-47,-16
2,388,100497,4635,-13048,-9004,34,-59,-16
2,389,100502,4640,-13089,-8971,39,-73,-10
2,390,100507,4693,-13107,-8995,44,-83,-8
2,391,100512,4712,-13038,-8882,51,-84,-7
2,392,100517,4756,-13022,-8764,51,-80,-8
2,393,100522,4767,-12975,-8722,47,-69,-7
2,394,100527,4810,-12945,-8684,45,-48,-7
2,395,100532,4805,-12873,-8808,36,-25,-9
2,396,100537,4797,-12831,-8814,27,1,-9
2,397,100542,4765,-12893,-8801,19,22,-8
2,398,100547,4748,-12907,-8749,14,37,-11
2,399,100552,4731,-12775,-8751,11,49,-14
2,400,100557,4745,-12658,-8811,6,60,-12
2,401,100562,4667,-12774,-8857,1,68,-7
2,402,100567,4581,-12879,-8958,2,69,-5
2,403,100572,4622,-12827,-8961,12,54,-2
2,404,100577,4730,-12771,-8942,25,33,5
2,405,100582,4666,-12866,-8947,35,7,14
2,406,100587,4522,-12893,-8894,46,-21,21
2,407,100592,4557,-12857,-8882,58,-44,25
2,408,100597,4615,-12814,-8941,66,-60,30
2,409,100602,4607,-12786,-8939,69,-66,32
2,410,100607,4604,-12831,-8916,69,-66,36
2,411,100612,4667,-12743,-8856,68,-56,39
2,412,100617,4642,-12745,-8845,59,-42,41
2,413,100622,4625,-12759,-8917,49,-26,48
2,414,100627,4784,-12595,-8877,42,-9,56
2,415,100632,4988,-12389,-8871,38,4,57
2,416,100637,4945,-12381,-8901,30,19,64
2,417,100642,4639,-12445,-9044,18,33,77
2,418,100647,4705,-12342,-9090,14,38,90
2,419,100652,5180,-11965,-9038,21,34,94
2,420,100657,5337,-11809,-9095,26,37,98
2,421,100662,4989,-12053,-9389,15,39,117
2,422,100667,4673,-12269,-9423,15,28,136
2,423,100672,4691,-12355,-9249,35,-4,151
2,424,100677,4792,-12331,-9070,54,-42,164
2,425,100682,4710,-12498,-9223,62,-76,182
2,426,100687,4616,-12636,-9354,71,-107,203
2,427,100692,4938,-12563,-9436,89,-135,215
2,428,100697,5125,-12210,-9263,105,-149,225
2,429,100702,4884,-12237,-9234,103,-157,241
2,430,100707,4347,-12587,-9130,97,-162,267
2,431,100712,4073,-12839,-9040,102,-184,290
2,432,100717,4028,-12958,-9017,113,-208,312
2,433,100722,4093,-13003,-8953,122,-229,335
2,434,100727,4117,-13077,-8912,125,-243,353
2,435,100732,4084,-13138,-8955,123,-241,372
2,436,100737,3950,-13258,-9103,114,-222,392
2,437,100742,3906,-13296,-9071,104,-200,407
2,438,100747,3917,-13283,-8879,93,-177,422
2,439,100752,3950,-13278,-8789,81,-150,436
2,440,100757,3752,-13395,-8857,64,-119,450
2,441,100762,3424,-13605,-8939,50,-91,464
2,442,100767,3341,-13696,-8854,39,-71,480
2,443,100772,3531,-13584,-8796,28,-50,497
2,444,100777,3647,-13460,-8875,18,-30,513
2,445,100782,3444,-13511,-8872,9,-16,531
2,446,100787,3149,-13678,-8833,3,-10,548
2,447,100792,3192,-13705,-8771,5,-10,563
2,448,100797,3346,-13526,-8710,9,-15,579
2,449,100802,3451,-13428,-8804,10,-21,598
2,450,100807,3308,-13544,-8852,16,-34,615
2,451,100812,3183,-13645,-8873,27,-55,630
2,452,100817,3174,-13663,-8815,39,-79,645
2,453,100822,3230,-13602,-8773,54,-99,660
2,454,100827,3262,-13550,-8801,71,-122,672
2,455,100832,3122,-13621,-8812,80,-140,687
2,456,100837,3027,-13672,-8844,90,-155,705
2,457,100842,3118,-13610,-8781,102,-167,716
2,458,100847,3217,-13532,-8597,111,-176,724
2,459,100852,3055,-13697,-8536,109,-174,738
2,460,100857,2840,-13840,-8597,104,-162,755
2,461,100862,2993,-13651,-8675,108,-148,763
2,462,100867,3508,-13335,-8739,111,-130,764
2,463,100872,3608,-13304,-8763,100,-95,764
2,464,100877,3347,-13437,-8766,73,-40,751
2,465,100882,2704,-13425,-8328,25,42,716
2,466,100887,2012,-14106,-8850,11,43,748
2,467,100892,2189,-13893,-8722,73,-12,764
2,468,100897,2520,-13659,-8607,106,-50,772
2,469,100902,2451,-13672,-8490,108,-58,790
2,470,100907,2313,-13795,-8521,112,-62,803
2,471,100912,2208,-13765,-8611,120,-68,803
2,472,100917,2124,-13788,-8756,127,-70,804
2,473,100922,2011,-13853,-8673,133,-71,812
2,474,100927,1999,-13859,-8603,139,-68,814
2,475,100932,1955,-13860,-8554,140,-58,813
2,476,100937,1868,-13832,-8478,139,-38,813
2,477,100942,1819,-13874,-8486,132,-12,811
2,478,100947,1728,-13856,-8379,122,15,810
2,479,100952,1684,-13858,-8453,116,39,805
2,480,100957,1662,-13924,-8533,111,62,800
2,481,100962,1581,-14059,-8408,105,73,798
2,482,100967,1445,-14200,-8280,107,73,792
2,483,100972,1438,-14239,-8234,112,79,788
2,484,100977,1484,-14294,-8391,117,75,786
2,485,100982,1464,-14378,-8339,126,59,776
2,486,100987,1387,-14553,-8165,137,41,766
2,487,100992,1395,-14632,-8104,139,33,750
2,488,100997,1466,-14615,-8229,141,31,740
2,489,101002,1645,-14581,-8350,147,34,734
2,490,101007,1681,-14441,-8196,128,75,717
2,491,101012,1577,-14458,-8102,116,108,706
2,492,101017,1645,-14360,-8063,109,131,687
2,493,101022,1544,-14334,-8068,99,150,672
2,494,101027,1280,-14416,-7994,89,162,660
2,495,101032,1194,-14530,-7912,81,170,647
2,496,101037,1236,-14513,-8021,79,172,631
2,497,101042,1248,-14447,-8125,79,174,616
2,498,101047,1289,-14346,-8094,74,183,600
2,499,101052,1382,-14168,-8129,64,201,586
2,500,101057,1535,-13954,-8297,57,219,576
2,501,101062,2265,-13697,-8700,51,227,560
2,502,101067,939,-13816,-7604,40,253,542
2,503,101072,978,-14451,-8777,-3,275,535
2,504,101077,601,-14108,-8402,42,234,504
2,505,101082,1469,-13842,-8108,69,168,485
2,506,101087,1116,-13895,-7905,65,146,480
2,507,101092,930,-14059,-8421,56,141,471
2,508,101097,879,-14041,-8543,65,129,451
2,509,101102,997,-13944,-8331,75,106,427
2,510,101107,1232,-13982,-8200,64,102,405
2,511,101112,1009,-14056,-8053,50,116,384
2,512,101117,993,-14080,-8228,39,129,363
2,513,101122,834,-14164,-8428,32,135,342
2,514,101127,935,-14177,-8339,26,136,314
2,515,101132,1048,-14209,-8111,19,139,289
2,516,101137,986,-14212,-8116,6,151,267
2,517,101142,961,-14224,-8266,-6,170,243
2,518,101147,850,-14284,-8479,-19,182,217
2,519,101152,1054,-14164,-8410,-26,186,193
2,520,101157,1073,-14198,-8341,-35,191,167
2,521,101162,958,-14222,-8368,-43,196,138
2,522,101167,796,-14324,-8499,-48,193,113
2,523,101172,653,-14314,-8335,-52,185,86
2,524,101177,818,-14148,-8202,-55,178,59
2,525,101182,1008,-13959,-8229,-63,185,36
2,526,101187,1144,-13793,-8319,-73,200,11
2,527,101192,1060,-13801,-8423,-88,217,-13
2,528,101197,968,-13825,-8462,-103,230,-37
2,529,101202,1071,-13839,-8484,-111,234,-62
2,530,101207,1150,-13815,-8394,-112,230,-86
2,531,101212,1144,-13849,-8488,-114,220,-110
2,532,101217,1078,-13834,-8438,-115,208,-138
2,533,101222,1074,-13811,-8492,-115,191,-163
2,534,101227,1189,-13692,-8468,-111,174,-190
2,535,101232,1425,-13587,-8376,-110,165,-216
2,536,101237,1556,-13590,-8565,-119,159,-238
2,537,101242,1589,-13576,-8694,-122,153,-264
2,538,101247,1688,-13551,-8677,-120,140,-289
2,539,101252,1637,-13572,-8579,-122,128,-316
2,540,101257,1606,-13665,-8522,-126,116,-341
2,541,101262,1630,-13644,-8575,-124,102,-365
2,542,101267,1823,-13559,-8602,-119,82,-393
2,543,101272,1835,-13666,-8666,-122,64,-418
2,544,101277,1643,-13773,-8650,-126,53,-443
2,545,101282,1616,-13772,-8648,-123,38,-465
2,546,101287,1655,-13727,-8742,-122,24,-489
2,547,101292,1757,-13635,-8804,-115,9,-514
2,548,101297,1811,-13620,-8788,-117,-5,-541
2,549,101302,1709,-13693,-8830,-120,-18,-567
2,550,101307,1640,-13693,-8817,-123,-32,-592
2,551,101312,1781,-13618,-8863,-125,-41,-623
2,552,101317,1805,-13658,-9030,-119,-50,-654
2,553,101322,1865,-13600,-8919,-112,-62,-688
2,554,101327,1772,-13776,-8968,-126,-68,-709
2,555,101332,1483,-13955,-8934,-134,-76,-729
2,556,101337,1721,-13850,-8749,-120,-100,-764
2,557,101342,2071,-13572,-8620,-112,-116,-798
2,558,101347,2229,-13522,-8722,-128,-113,-827
2,559,101352,2287,-13550,-8849,-148,-97,-854
2,560,101357,2450,-13429,-9113,-163,-77,-883
2,561,101362,2616,-13370,-9317,-172,-56,-914
2,562,101367,2584,-13437,-9203,-184,-45,-946
2,563,101372,2217,-13709,-8875,-198,-41,-970
2,564,101377,1706,-14070,-8849,-204,-54,-992
2,565,101382,1634,-14211,-8892,-195,-88,-1017
2,566,101387,2078,-14043,-8876,-169,-139,-1052
2,567,101392,2598,-13786,-8813,-153,-185,-1091
2,568,101397,2613,-13920,-8898,-153,-214,-1118
2,569,101402,2174,-14467,-9126,-164,-238,-1144
2,570,101407,1781,-15001,-9300,-163,-275,-1170
2,571,101412,1941,-15119,-9019,-144,-335,-1211
2,572,101417,2330,-14903,-8458,-119,-395,-1258
2,573,101422,2414,-14730,-8237,-111,-436,-1294
2,574,101427,2178,-14825,-8500,-121,-464,-1318
2,575,101432,2135,-14990,-8657,-125,-498,-1350
2,576,101437,2600,-14876,-8399,-119,-535,-1397
2,577,101442,3237,-14651,-8155,-124,-552,-1453
2,578,101447,3321,-14852,-8380,-165,-531,-1499
2,579,101452,2969,-15295,-8856,-215,-492,-1530
2,580,101457,3050,-15151,-8846,-237,-467,-1574
2,581,101462,3643,-14621,-8789,-253,-452,-1629
2,582,101467,4118,-14258,-8795,-279,-441,-1681
2,583,101472,3964,-14458,-9050,-312,-438,-1716
2,584,101477,3318,-14706,-8846,-329,-453,-1738
2,585,101482,3190,-14665,-9386,-329,-497,-1772
2,586,101487,3736,-14238,-9325,-314,-563,-1823
2,587,101492,4296,-13572,-8848,-291,-630,-1886
2,588,101497,4709,-13390,-8898,-303,-655,-1920
2,589,101502,4630,-13221,-9692,-317,-680,-1944
2,590,101507,4707,-12621,-10418,-313,-719,-1986
2,591,101512,5155,-12042,-10091,-301,-762,-2050
2,592,101517,5368,-11665,-9878,-309,-787,-2105
2,593,101522,5187,-11359,-10337,-334,-778,-2132
2,594,101527,5078,-10584,-10473,-338,-772,-2163
2,595,101532,5447,-9889,-10682,-340,-801,-2212
2,596,101537,5835,-9561,-10715,-346,-829,-2250
2,597,101542,5601,-9203,-10261,-356,-848,-2252
2,598,101547,4021,-5009,-12111,-364,-888,-2241
2,599,101552,3695,1145,-11530,-172,-1018,-2306
2,600,101557,-18030,-14810,22779,-510,-166,-1771
2,601,101562,-32768,-24431,-6940,-1532,694,651
2,602,101567,-14508,-7664,-31979,-391,-254,768
2,603,101572,32767,11742,-26585,1254,-1764,-878
2,604,101577,32767,12504,4714,557,-895,-1059
2,605,101582,2718,-17932,-927,-1859,1623,531
2,606,101587,-28922,-29826,-16762,-1976,2594,1109
2,607,101592,-13612,-16020,-19302,-652,1593,286
2,608,101597,25234,-5523,-8969,301,54,-749
2,609,101602,30101,-2356,8958,130,252,-652
2,610,101607,4632,-15849,-6729,-978,1350,227
2,611,101612,-10093,-22220,-20866,-948,1350,432
2,612,101617,3824,-15873,-15052,-33,260,-137
2,613,101622,20155,-8488,-1174,399,-352,-441
2,614,101627,18637,-8397,-1257,13,41,-168
2,615,101632,6958,-14314,-13795,-464,573,172
2,616,101637,-459,-17504,-15297,-414,517,187
2,617,101642,3545,-16116,-9379,-111,142,-38
2,618,101647,10794,-11333,-4047,63,20,-140
2,619,101652,10724,-10320,-8740,-125,226,-3
2,620,101657,4997,-13092,-14167,-296,355,107
2,621,101662,2124,-14675,-11058,-213,226,48
2,622,101667,4638,-12474,-8080,-65,109,-38
2,623,101672,6054,-10135,-10097,-37,75,20
2,624,101677,6135,-9867,-11042,-52,9,0
2,625,101682,5709,-10674,-11317,-71,-33,-46
2,626,101687,4051,-11005,-10779,-97,20,-15
2,627,101692,4716,-10084,-11914,-84,27,-15
2,628,101697,6821,-8748,-11931,-43,-4,-68
2,629,101702,6929,-9017,-11693,-63,4,-79
2,630,101707,5203,-10125,-11963,-103,52,-58
2,631,101712,4532,-10599,-11949,-84,39,-63
2,632,101717,5260,-10588,-11163,-40,-9,-73
2,633,101722,6101,-10742,-10677,-28,-27,-61
2,634,101727,6444,-11108,-11077,-38,-8,-40
2,635,101732,6723,-11257,-11183,-52,15,-32
2,636,101737,6514,-11628,-10760,-72,40,-21
2,637,101742,6381,-11873,-9872,-87,72,-6
2,638,101747,6423,-11988,-9709,-100,102,10
2,639,101752,6622,-12027,-10215,-110,119,20
2,640,101757,6849,-11997,-10270,-107,109,22
2,641,101762,6804,-12034,-9286,-105,102,29
2,642,101767,6294,-12181,-9630,-109,107,47
2,643,101772,6057,-12261,-9837,-99,84,55
2,644,101777,6353,-12146,-9537,-78,38,53
2,645,101782,6818,-11896,-9178,-59,5,49
2,646,101787,6639,-11981,-9554,-62,-3,57
2,647,101792,5951,-12402,-10069,-66,-12,66
2,648,101797,5645,-12571,-9843,-47,-43,63
2,649,101802,5776,-12419,-9486,-35,-72,64
2,650,101807,5908,-12243,-9548,-32,-74,71
2,651,101812,5790,-12209,-9786,-31,-75,75
2,652,101817,5425,-12516,-9948,-32,-82,76
2,653,101822,5016,-12697,-9290,-20,-105,77
2,654,101827,5631,-12169,-9118,14,-129,59
2,655,101832,5773,-12062,-9662,2,-104,60
2,656,101837,5105,-12446,-10089,-21,-70,69
2,657,101842,5108,-12400,-9842,-11,-67,54
2,658,101847,5455,-11995,-9282,-3,-54,41
2,659,101852,5432,-11873,-9434,-18,-20,43
2,660,101857,5143,-11971,-9743,-25,-3,48
2,661,101862,4925,-12087,-9751,-18,-12,43
2,662,101867,4984,-12071,-9602,-3,-28,40
2,663,101872,5104,-11871,-9408,8,-39,40
2,664,101877,5227,-11668,-9549,10,-38,42
2,665,101882,5230,-11517,-9733,13,-31,41
2,666,101887,5365,-11483,-9753,12,-22,41
2,667,101892,5376,-11436,-9701,9,-7,39
2,668,101897,5462,-11383,-9822,4,14,38
2,669,101902,5453,-11385,-9995,1,34,37
2,670,101907,5300,-11510,-10099,-2,49,35
2,671,101912,5280,-11542,-9978,-2,57,33
2,672,101917,5427,-11430,-9840,4,63,30
2,673,101922,5564,-11296,-9894,4,72,28
2,674,101927,5505,-11336,-10011,5,77,33
2,675,101932,5425,-11382,-10047,10,71,32
2,676,101937,5430,-11431,-10014,19,64,32
2,677,101942,5535,-11331,-10010,28,56,35
2,678,101947,5697,-11237,-9992,34,48,36
2,679,101952,5694,-11248,-9950,40,41,36
2,680,101957,5564,-11307,-9984,41,41,38
2,681,101962,5459,-11395,-10006,43,39,43
2,682,101967,5547,-11436,-10008,49,35,43
2,683,101972,5733,-11387,-10168,53,32,44
2,684,101977,5736,-11474,-10231,52,32,44
2,685,101982,5610,-11626,-10143,50,36,43
2,686,101987,5507,-11680,-10034,52,38,40
2,687,101992,5570,-11583,-10028,58,37,40
2,688,101997,5687,-11559,-10056,61,38,40
2,689,102002,5666,-11672,-10069,62,32,39
2,690,102007,5625,-11784,-9981,66,25,36
2,691,102012,5630,-11832,-10056,72,20,34
2,692,102017,5671,-11855,-10148,74,17,35
2,693,102022,5771,-11832,-10074,77,9,32
2,694,102027,5865,-11741,-9961,79,7,27
2,695,102032,5889,-11748,-9983,77,13,28
2,696,102037,5898,-11769,-10087,72,22,29
2,697,102042,5858,-11774,-10082,70,27,27
2,698,102047,5895,-11745,-10034,69,28,24
2,699,102052,5861,-11754,-9956,67,31,24
2,700,102057,5694,-11888,-9973,61,32,24
2,701,102062,5656,-11958,-9995,56,35,23
2,702,102067,5799,-11891,-9962,59,40,18
2,703,102072,5952,-11824,-10121,53,52,15
2,704,102077,5855,-11901,-10267,42,63,18
2,705,102082,5590,-11992,-10165,40,64,18
2,706,102087,5513,-12015,-9980,44,54,12
2,707,102092,5432,-11987,-9907,53,32,12
2,708,102097,5310,-11945,-10047,65,8,13
2,709,102102,5347,-11908,-10018,75,-21,12
2,710,102107,5491,-11822,-9959,87,-50,7
2,711,102112,5606,-11762,-10019,92,-62,3
2,712,102117,5610,-11709,-10173,88,-62,5
2,713,102122,5545,-11727,-10165,83,-62,2
2,714,102127,5524,-11786,-9984,78,-58,0
2,715,102132,5563,-11734,-9843,74,-49,-4
2,716,102137,5597,-11668,-9917,65,-34,-10
2,717,102142,5565,-11707,-10072,51,-17,-11
2,718,102147,5475,-11798,-10138,37,1,-15
2,719,102152,5494,-11720,-9973,23,24,-20
2,720,102157,5599,-11679,-9960,11,49,-21
2,721,102162,5565,-11688,-10071,-2,67,-19
2,722,102167,5404,-11808,-10143,-12,76,-19
2,723,102172,5360,-11868,-10062,-13,72,-21
2,724,102177,5371,-11855,-9960,-11,61,-24
2,725,102182,5422,-11827,-10011,-11,50,-24
2,726,102187,5449,-11833,-10114,-7,39,-25
2,727,102192,5447,-11832,-10058,-2,22,-26
2,728,102197,5406,-11765,-9956,2,4,-29
2,729,102202,5358,-11767,-9927,11,-16,-25
2,730,102207,5368,-11745,-9969,20,-38,-26
2,731,102212,5482,-11779,-10092,29,-63,-30
2,732,102217,5651,-11764,-10134,36,-81,-32
2,733,102222,5747,-11704,-10067,34,-84,-34
2,734,102227,5785,-11654,-10065,31,-75,-38
2,735,102232,5839,-11562,-10035,23,-66,-39
2,736,102237,5756,-11528,-10053,15,-54,-39
2,737,102242,5620,-11539,-10081,9,-46,-37
2,738,102247,5602,-11590,-9972,5,-46,-38
2,739,102252,5681,-11570,-9889,2,-43,-39
2,740,102257,5811,-11559,-9977,1,-40,-40
2,741,102262,5992,-11578,-10010,-4,-35,-40
2,742,102267,5905,-11759,-10005,-14,-25,-40
2,743,102272,5752,-11851,-9955,-16,-22,-38
2,744,102277,5713,-11804,-9924,-13,-30,-38
2,745,102282,5684,-11766,-9881,-6,-44,-38
2,746,102287,5573,-11791,-9833,1,-62,-36
2,747,102292,5449,-11831,-9840,11,-87,-35
2,748,102297,5386,-11817,-9890,26,-117,-34
2,749,102302,5354,-11800,-9963,38,-145,-34
2,750,102307,5435,-11801,-9987,47,-168,-34
2,751,102312,5515,-11778,-9835,56,-181,-38
2,752,102317,5603,-11804,-9869,55,-180,-43
2,753,102322,5524,-11798,-9976,43,-165,-44
2,754,102327,5521,-11961,-10059,24,-147,-48
2,755,102332,5868,-11891,-10095,22,-125,-58
2,756,102337,5945,-11620,-9864,11,-81,-61
2,757,102342,5635,-11720,-9806,-15,-42,-52
2,758,102347,5359,-11824,-9772,-28,-21,-50
2,759,102352,5274,-11824,-9760,-30,-15,-52
2,760,102357,5300,-11801,-9771,-27,-20,-51
2,761,102362,5323,-11792,-9742,-28,-22,-50
2,762,102367,5409,-11797,-9754,-29,-26,-50
2,763,102372,5446,-11800,-9804,-31,-27,-47
2,764,102377,5422,-11739,-9971,-31,-22,-47
2,765,102382,5418,-11743,-9991,-33,-20,-49
2,766,102387,5356,-11735,-9880,-32,-22,-48
2,767,102392,5275,-11699,-9823,-27,-31,-48
2,768,102397,5191,-11669,-9878,-20,-42,-47
2,769,102402,5176,-11686,-9920,-12,-56,-45
2,770,102407,5230,-11670,-9940,-3,-75,-45
2,771,102412,5407,-11622,-9874,6,-91,-46
2,772,102417,5483,-11613,-9792,8,-96,-46
2,773,102422,5501,-11615,-9944,5,-89,-43
2,774,102427,5488,-11670,-9992,-5,-78,-44
2,775,102432,5533,-11621,-9944,-14,-56,-46
2,776,102437,5662,-11480,-9818,-22,-31,-46
2,777,102442,5667,-11482,-9871,-37,-5,-45
2,778,102447,5532,-11596,-9907,-49,12,-38
2,779,102452,5440,-11719,-9889,-55,19,-36
2,780,102457,5471,-11648,-9862,-53,17,-36
2,781,102462,5541,-11575,-9835,-49,10,-33
2,782,102467,5505,-11599,-9908,-49,6,-31
2,783,102472,5464,-11732,-9978,-46,1,-29
2,784,102477,5500,-11723,-9947,-40,-10,-28
2,785,102482,5545,-11647,-9940,-33,-22,-25
2,786,102487,5484,-11581,-9944,-26,-32,-24
2,787,102492,5424,-11542,-9955,-19,-47,-22
2,788,102497,5408,-11613,-9904,-9,-62,-20
2,789,102502,5454,-11622,-9997,-1,-77,-18
2,790,102507,5490,-11630,-10036,4,-87,-18
2,791,102512,5578,-11628,-9997,6,-91,-18
2,792,102517,5597,-11617,-9995,4,-85,-19
2,793,102522,5606,-11648,-9955,-1,-72,-17
2,794,102527,5636,-11654,-10049,-14,-50,-16
2,795,102532,5642,-11599,-10166,-29,-23,-16
2,796,102537,5657,-11551,-10085,-33,-1,-18
2,797,102542,5451,-11697,-9917,-50,26,-14
2,798,102547,5289,-11788,-9980,-48,25,-11
2,799,102552,5301,-11771,-9999,-39,10,-8
2,800,102557,5455,-11748,-9992,-31,-5,-6
2,801,102562,5504,-11714,-9923,-25,-16,-7
2,802,102567,5433,-11728,-10058,-21,-20,-3
2,803,102572,5403,-11735,-10165,-20,-23,-2
2,804,102577,5433,-11738,-10149,-18,-26,-3
2,805,102582,5461,-11665,-10016,-16,-27,-4
2,806,102587,5472,-11667,-10010,-12,-28,-5
2,807,102592,5493,-11651,-10093,-10,-27,-4
2,808,102597,5418,-11697,-10176,-11,-28,-2
2,809,102602,5386,-11754,-10135,-9,-34,2
2,810,102607,5425,-11732,-9983,-5,-39,1
2,811,102612,5454,-11615,-9952,1,-45,5
2,812,102617,5480,-11634,-10070,-1,-41,9
2,813,102622,5496,-11689,-10108,-2,-38,9
2,814,102627,5617,-11633,-10140,-4,-32,8
2,815,102632,5687,-11592,-10109,-8,-19,6
2,816,102637,5622,-11580,-10161,-12,-5,4
2,817,102642,5583,-11517,-10090,-14,3,6
2,818,102647,5481,-11591,-10084,-18,9,6
2,819,102652,5403,-11635,-10014,-17,13,4
2,820,102657,5526,-11539,-10002,-12,10,5
2,821,102662,5568,-11525,-10055,-11,7,8
2,822,102667,5502,-11593,-10041,-8,4,6
2,823,102672,5500,-11586,-9992,-5,2,7
2,824,102677,5444,-11567,-10014,-4,2,8
2,825,102682,5451,-11532,-10101,-5,5,10
2,826,102687,5496,-11520,-10075,-3,8,10
2,827,102692,5548,-11476,-10066,-3,10,9
2,828,102697,5503,-11522,-10093,-3,11,10
2,829,102702,5432,-11590,-10052,-1,8,11
2,830,102707,5443,-11551,-9955,6,1,10
2,831,102712,5503,-11551,-10022,11,-7,12
2,832,102717,5563,-11569,-10068,14,-14,13
2,833,102722,5598,-11575,-9983,20,-22,12
2,834,102727,5590,-11632,-9910,22,-24,13
2,835,102732,5555,-11690,-9953,20,-19,13
2,836,102737,5600,-11636,-9990,16,-12,9
2,837,102742,5703,-11536,-10038,12,2,5
2,838,102747,5791,-11566,-10047,6,19,5
2,839,102752,5671,-11629,-9994,1,31,5
2,840,102757,5559,-11684,-9909,-3,38,4
2,841,102762,5458,-11720,-9918,0,35,6
2,842,102767,5463,-11658,-9939,6,23,6
2,843,102772,5507,-11561,-9936,14,11,7
2,844,102777,5580,-11509,-9948,21,-3,7
2,845,102782,5553,-11516,-10066,26,-13,11
2,846,102787,5470,-11595,-10052,28,-19,11
2,847,102792,5506,-11618,-10047,30,-23,8
2,848,102797,5551,-11497,-10072,36,-23,7
2,849,102802,5567,-11436,-10166,38,-21,6
2,850,102807,5530,-11457,-10161,33,-17,5
2,851,102812,5460,-11493,-9973,29,-10,2
2,852,102817,5418,-11518,-9896,28,-3,0
2,853,102822,5419,-11587,-10027,29,-2,1
2,854,102827,5415,-11673,-10121,30,-4,4
2,855,102832,5389,-11710,-9993,31,-9,1
2,856,102837,5450,-11700,-9900,29,-10,-2
2,857,102842,5533,-11589,-9977,28,-5,-4
2,858,102847,5602,-11593,-10149,25,5,-3
2,859,102852,5585,-11632,-10079,19,14,-4
2,860,102857,5530,-11663,-9924,15,20,-5
2,861,102862,5430,-11666,-9885,16,25,-6
2,862,102867,5396,-11735,-9960,16,23,-4
2,863,102872,5421,-11790,-9970,17,16,-4
2,864,102877,5472,-11801,-9937,19,9,-7
2,865,102882,5479,-11768,-9908,22,6,-8
2,866,102887,5542,-11698,-9992,22,9,-8
2,867,102892,5541,-11668,-10035,19,13,-10
2,868,102897,5470,-11649,-9955,19,14,-11
2,869,102902,5402,-11630,-9891,18,12,-11
2,870,102907,5401,-11574,-9941,23,6,-11
2,871,102912,5416,-11603,-9961,25,-2,-12
2,872,102917,5452,-11705,-9954,25,-8,-12
2,873,102922,5509,-11700,-9926,25,-7,-13
2,874,102927,5629,-11635,-10122,20,3,-14
2,875,102932,5677,-11582,-10202,18,13,-15
2,876,102937,5603,-11574,-10136,15,18,-14
2,877,102942,5407,-11616,-9925,13,16,-15
2,878,102947,5328,-11637,-9965,18,8,-13
2,879,102952,5309,-11678,-10045,29,-9,-13
2,880,102957,5396,-11710,-10040,36,-30,-11
2,881,102962,5558,-11807,-9893,36,-44,-12
2,882,102967,5759,-11816,-9855,32,-35,-15
2,883,102972,5810,-11755,-10094,23,-8,-19
2,884,102977,5766,-11723,-10171,12,16,-21
2,885,102982,5686,-11779,-9992,3,33,-24
2,886,102987,5642,-11828,-9790,-2,40,-25
2,887,102992,5494,-11853,-9886,1,34,-25
2,888,102997,5293,-11901,-10053,8,18,-26
2,889,103002,5292,-11879,-9943,15,-3,-24
2,890,103007,5519,-11788,-9832,25,-19,-23
2,891,103012,5736,-11772,-9931,26,-24,-24
2,892,103017,5758,-11853,-10072,18,-16,-27
2,893,103022,5645,-11891,-10131,12,-7,-27
2,894,103027,5627,-11843,-10010,11,1,-29
2,895,103032,5576,-11842,-10027,9,6,-32
2,896,103037,5354,-11846,-10158,6,10,-34
2,897,103042,5432,-11880,-10002,6,17,-31
2,898,103047,5421,-11884,-9995,23,-27,-37
2,899,103052,5404,-11845,-9977,31,-46,-36
2,900,103057,5496,-11776,-9960,34,-49,-33
2,901,103062,5554,-11801,-10044,36,-59,-32
2,902,103067,5574,-11851,-10180,35,-59,-31
2,903,103072,5554,-11893,-10229,31,-57,-30
2,904,103077,5621,-11766,-10033,27,-52,-33
2,905,103082,5672,-11623,-9842,23,-41,-38
2,906,103087,5550,-11600,-9906,15,-24,-37
2,907,103092,5489,-11692,-10050,3,-8,-35
2,908,103097,5486,-11672,-10056,-3,2,-35
2,909,103102,5537,-11652,-9927,-3,7,-37
2,910,103107,5509,-11673,-9924,-9,12,-36
2,911,103112,5428,-11722,-9925,-11,11,-37
2,912,103117,5406,-11685,-9970,-11,7,-35
2,913,103122,5421,-11678,-9997,-10,4,-36
2,914,103127,5510,-11579,-9885,-9,2,-37
2,915,103132,5543,-11528,-9932,-12,7,-36
2,916,103137,5477,-11550,-10064,-16,12,-34
2,917,103142,5442,-11568,-10021,-17,9,-32
2,918,103147,5540,-11568,-9882,-12,-1,-33
2,919,103152,5590,-11553,-9886,-8,-10,-32
2,920,103157,5596,-11620,-10020,-8,-16,-29
2,921,103162,5598,-11677,-10106,-8,-24,-29
2,922,103167,5652,-11565,-9996,-1,-31,-28
2,923,103172,5700,-11526,-9891,0,-33,-30
2,924,103177,5622,-11509,-9882,-5,-27,-27
2,925,103182,5603,-11559,-9911,-9,-22,-25
2,926,103187,5631,-11554,-9935,-7,-18,-28
2,927,103192,5690,-11592,-9895,-10,-15,-26
2,928,103197,5674,-11723,-9910,-17,-10,-27
2,929,103202,5639,-11782,-9956,-20,-3,-28
2,930,103207,5679,-11755,-10044,-19,-1,-31
2,931,103212,5733,-11723,-10043,-19,-2,-29
2,932,103217,5690,-11662,-10033,-21,1,-29
2,933,103222,5585,-11672,-9951,-20,1,-31
2,934,103227,5487,-11702,-9981,-17,-2,-31
2,935,103232,5381,-11644,-10008,-9,-4,-32
2,936,103237,5539,-11619,-9976,-4,-14,-29
2,937,103242,5587,-11626,-9979,3,-40,-25
2,938,103247,5488,-11652,-10014,7,-54,-24
2,939,103252,5438,-11655,-10081,14,-66,-22
2,940,103257,5445,-11636,-9964,19,-75,-18
2,941,103262,5450,-11683,-9938,22,-80,-16
2,942,103267,5456,-11715,-10009,18,-80,-16
2,943,103272,5526,-11669,-10055,17,-70,-16
2,944,103277,5611,-11551,-10019,9,-51,-18
2,945,103282,5612,-11516,-9992,-5,-19,-21
2,946,103287,5527,-11571,-9959,-17,8,-22
2,947,103292,5479,-11656,-9974,-28,30,-23
2,948,103297,5487,-11701,-9924,-33,41,-24
2,949,103302,5419,-11703,-9909,-37,43,-20
2,950,103307,5487,-11655,-9851,-36,44,-20
2,951,103312,5586,-11629,-9965,-33,43,-17
2,952,103317,5601,-11616,-10069,-33,40,-16
2,953,103322,5546,-11687,-10014,-32,36,-16
2,954,103327,5506,-11724,-9907,-26,29,-15
2,955,103332,5478,-11650,-9975,-19,22,-14
2,956,103337,5535,-11615,-10053,-14,14,-11
2,957,103342,5516,-11617,-10047,-5,-2,-8
2,958,103347,5574,-11679,-9997,2,-16,-8
2,959,103352,5646,-11651,-9948,8,-25,-6
2,960,103357,5695,-11675,-10031,12,-34,-5
2,961,103362,5715,-11670,-10036,14,-39,-6
2,962,103367,5744,-11627,-9989,17,-36,-4
2,963,103372,5750,-11597,-10020,16,-28,-3
2,964,103377,5680,-11600,-10025,13,-18,-3
2,965,103382,5686,-11603,-9941,14,-14,-4
2,966,103387,5711,-11664,-9833,15,-14,-5
2,967,103392,5667,-11689,-9870,12,-15,-5
2,968,103397,5630,-11682,-9914,10,-10,-1
2,969,103402,5646,-11642,-9945,11,-3,-3
2,970,103407,5717,-11560,-10021,9,4,-4
2,971,103412,5662,-11576,-9977,6,12,-4
2,972,103417,5565,-11595,-9954,5,15,-4
2,973,103422,5433,-11636,-9899,6,13,-3
2,974,103427,5393,-11649,-9903,9,3,-3
2,975,103432,5410,-11688,-9978,14,-8,2
2,976,103437,5458,-11674,-9992,23,-21,3
2,977,103442,5553,-11630,-10014,27,-28,1
2,978,103447,5497,-11682,-10089,28,-30,5
2,979,103452,5445,-11690,-10038,29,-32,7
2,980,103457,5482,-11694,-9997,31,-35,8
2,981,103462,5539,-11640,-9957,33,-34,9
2,982,103467,5573,-11619,-9962,31,-28,9
2,983,103472,5531,-11661,-9954,27,-24,10
2,984,103477,5540,-11690,-9886,24,-18,10
2,985,103482,5564,-11681,-9872,21,-10,11
2,986,103487,5558,-11626,-9898,17,2,10
2,987,103492,5548,-11657,-9945,11,13,8
2,988,103497,5494,-11687,-9958,5,26,9
2,989,103502,5513,-11655,-9984,0,37,8
2,990,103507,5505,-11674,-9947,-3,46,8
2,991,103512,5451,-11645,-9930,-7,51,8
2,992,103517,5487,-11635,-10017,-6,50,9
2,993,103522,5544,-11595,-10072,-4,44,9
2,994,103527,5530,-11617,-9996,-1,38,12
2,995,103532,5530,-11578,-9878,1,30,13
2,996,103537,5583,-11538,-9961,6,22,15
2,997,103542,5560,-11579,-10079,12,14,19
2,998,103547,5543,-11560,-10036,17,-1,19
2,999,103552,5557,-11522,-9871,25,-17,20
