event_id,seq,ts_ms,ax,ay,az,gx,gy,gz
1,0,31365,-1202,-16380,-599,0,-42,25
1,1,31370,-1268,-16363,-564,1,-21,27
1,2,31375,-1355,-16339,-562,-1,3,29
1,3,31380,-1278,-16382,-662,3,51,31
1,4,31385,-1181,-16358,-650,2,70,30
1,5,31390,-1085,-16298,-555,3,77,31
1,6,31395,-1026,-16233,-498,6,72,33
1,7,31400,-1043,-16252,-442,6,68,31
1,8,31405,-1059,-16300,-448,4,59,30
1,9,31410,-1016,-16274,-367,2,48,34
1,10,31415,-1008,-16265,-185,0,30,37
1,11,31420,-1028,-16339,-74,-1,-1,36
1,12,31425,-1067,-16420,7,-2,-36,36
1,13,31430,-1153,-16450,45,-4,-70,38
1,14,31435,-1174,-16560,59,-7,-95,37
1,15,31440,-1275,-16597,100,-11,-110,43
1,16,31445,-1363,-16645,76,-13,-114,39
1,17,31450,-1427,-16611,-77,-14,-116,39
1,18,31455,-1414,-16578,-374,-16,-109,41
1,19,31460,-1355,-16551,-600,-16,-92,40
1,20,31465,-1327,-16521,-663,-17,-61,42
1,21,31470,-1364,-16493,-626,-18,-30,42
1,22,31475,-1381,-16462,-675,-17,0,43
1,23,31480,-1345,-16380,-801,-15,39,42
1,24,31485,-1313,-16354,-826,-11,82,41
1,25,31490,-1323,-16342,-711,-10,121,42
1,26,31495,-1274,-16311,-551,-11,140,41
1,27,31500,-1219,-16240,-500,-10,147,41
1,28,31505,-1217,-16200,-415,-9,145,42
1,29,31510,-1233,-16243,-308,-8,133,41
1,30,31515,-1293,-16276,-248,-9,121,42
1,31,31520,-1226,-16242,-191,-11,94,44
1,32,31525,-1234,-16242,-140,-12,62,43
1,33,31530,-1229,-16228,-158,-14,33,39
1,34,31535,-1239,-16239,-235,-16,4,39
1,35,31540,-1196,-16225,-334,-13,-19,42
1,36,31545,-1222,-16227,-327,-15,-33,44
1,37,31550,-1372,-16278,-199,-19,-43,42
1,38,31555,-1479,-16303,-128,-22,-56,39
1,39,31560,-1422,-16357,-299,-20,-60,39
1,40,31565,-1348,-16349,-443,-20,-51,40
1,41,31570,-1373,-16376,-454,-19,-33,40
1,42,31575,-1467,-16328,-395,-20,-22,38
1,43,31580,-1470,-16329,-491,-23,-15,34
1,44,31585,-1394,-16303,-731,-18,2,36
1,45,31590,-1375,-16270,-771,-16,30,35
1,46,31595,-1307,-16281,-717,-17,60,36
1,47,31600,-1250,-16286,-642,-16,80,34
1,48,31605,-1226,-16238,-593,-13,86,32
1,49,31610,-1242,-16191,-571,-13,90,31
1,50,31615,-1290,-16168,-518,-11,90,32
1,51,31620,-1316,-16054,-444,-14,83,32
1,52,31625,-1330,-16045,-372,-14,64,30
1,53,31630,-1311,-16010,-402,-13,39,30
1,54,31635,-1239,-16009,-246,-14,16,32
1,55,31640,-1346,-16030,-242,-13,-16,30
1,56,31645,-1352,-16098,-261,-16,-51,29
1,57,31650,-1344,-16181,-446,-14,-83,29
1,58,31655,-1291,-16266,-417,-18,-97,28
1,59,31660,-1511,-16145,19,-19,-104,26
1,60,31665,-1553,-16220,-92,-19,-116,23
1,61,31670,-1524,-16220,-399,-12,-107,24
1,62,31675,-1406,-16244,-666,-11,-83,23
1,63,31680,-1565,-16333,-539,-17,-61,20
1,64,31685,-1580,-16451,-331,-19,-53,18
1,65,31690,-1431,-16501,-511,-17,-51,17
1,66,31695,-1378,-16587,-748,-11,-28,15
1,67,31700,-1276,-16617,-772,-9,10,14
1,68,31705,-1306,-16640,-669,-12,45,15
1,69,31710,-1279,-16659,-541,-13,68,15
1,70,31715,-1269,-16660,-582,-12,80,12
1,71,31720,-1228,-16598,-644,-9,96,11
1,72,31725,-1240,-16611,-587,-8,115,14
1,73,31730,-1248,-16604,-432,-6,128,18
1,74,31735,-1186,-16533,-367,-7,131,17
1,75,31740,-1162,-16491,-304,-9,129,17
1,76,31745,-1177,-16476,-205,-7,123,18
1,77,31750,-1142,-16497,-69,-6,86,19
1,78,31755,-1202,-16515,193,-11,61,18
1,79,31760,-1230,-16516,385,-12,28,17
1,80,31765,-1296,-16503,262,-10,-8,17
1,81,31770,-1231,-16488,34,-12,-35,18
1,82,31775,-1173,-16484,-102,-17,-62,16
1,83,31780,-1141,-16457,-102,-17,-81,18
1,84,31785,-1123,-16531,4,-19,-109,19
1,85,31790,-1178,-16611,-27,-18,-126,20
1,86,31795,-1337,-16660,-22,-21,-127,14
1,87,31800,-1450,-16645,-74,-23,-127,13
1,88,31805,-1492,-16639,-368,-23,-116,17
1,89,31810,-1457,-16664,-651,-23,-90,16
1,90,31815,-1374,-16620,-767,-20,-61,16
1,91,31820,-1282,-16528,-768,-15,-32,15
1,92,31825,-1167,-16436,-859,-15,-6,15
1,93,31830,-1109,-16406,-935,-13,33,17
1,94,31835,-1132,-16385,-882,-9,78,17
1,95,31840,-1125,-16426,-658,-7,116,19
1,96,31845,-1197,-16479,-352,-4,139,22
1,97,31850,-1236,-16496,-99,-3,141,20
1,98,31855,-1263,-16450,-31,-3,131,16
1,99,31860,-1212,-16425,-89,-2,122,18
1,100,31865,-1156,-16439,-89,0,105,20
1,101,31870,-1111,-16445,-23,-3,80,20
1,102,31875,-1043,-16431,-1,-4,46,20
1,103,31880,-1037,-16448,46,-5,6,21
1,104,31885,-1021,-16428,5,-7,-29,19
1,105,31890,-1051,-16445,-18,-9,-55,20
1,106,31895,-1119,-16511,112,-9,-79,25
1,107,31900,-1264,-16523,212,-11,-107,24
1,108,31905,-1374,-16569,280,-13,-137,21
1,109,31910,-1460,-16587,163,-16,-158,20
1,110,31915,-1441,-16541,-143,-16,-161,22
1,111,31920,-1373,-16552,-364,-17,-148,23
1,112,31925,-1302,-16576,-430,-18,-136,24
1,113,31930,-1262,-16552,-455,-16,-129,23
1,114,31935,-1357,-16539,-452,-15,-122,23
1,115,31940,-1478,-16511,-486,-15,-108,20
1,116,31945,-1593,-16495,-529,-14,-83,21
1,117,31950,-1538,-16484,-652,-9,-50,21
1,118,31955,-1456,-16474,-710,-7,-10,22
1,119,31960,-1336,-16470,-713,-5,23,19
1,120,31965,-1315,-16460,-623,-3,43,16
1,121,31970,-1340,-16415,-518,-1,54,13
1,122,31975,-1379,-16386,-461,0,57,18
1,123,31980,-1450,-16332,-390,1,57,17
1,124,31985,-1566,-16321,-247,2,56,16
1,125,31990,-1522,-16406,-188,3,49,14
1,126,31995,-1503,-16461,-70,2,37,16
1,127,32000,-1484,-16462,2,5,13,10
1,128,32005,-1474,-16449,-6,2,-16,10
1,129,32010,-1478,-16445,-171,0,-33,8
1,130,32015,-1517,-16478,-186,0,-46,9
1,131,32020,-1542,-16532,-157,-1,-56,10
1,132,32025,-1523,-16507,-115,1,-62,8
1,133,32030,-1523,-16533,-207,-1,-71,2
1,134,32035,-1549,-16475,-352,-2,-76,2
1,135,32040,-1537,-16485,-439,-1,-71,2
1,136,32045,-1566,-16445,-457,-2,-57,3
1,137,32050,-1553,-16430,-461,-1,-42,3
1,138,32055,-1478,-16400,-510,2,-18,2
1,139,32060,-1494,-16446,-646,5,-3,1
1,140,32065,-1423,-16452,-651,5,10,0
1,141,32070,-1451,-16380,-592,6,25,-2
1,142,32075,-1442,-16388,-507,8,38,-3
1,143,32080,-1402,-16348,-505,10,48,-3
1,144,32085,-1444,-16340,-450,12,54,-1
1,145,32090,-1448,-16333,-381,12,52,-1
1,146,32095,-1468,-16316,-337,14,45,-5
1,147,32100,-1452,-16328,-328,12,36,-7
1,148,32105,-1381,-16337,-320,13,29,-3
1,149,32110,-1333,-16358,-313,15,20,-2
1,150,32115,-1246,-16269,-358,15,-10,-6
1,151,32120,-1248,-16309,-325,12,-23,-8
1,152,32125,-1248,-16311,-293,12,-33,-3
1,153,32130,-1312,-16363,-196,18,-46,-2
1,154,32135,-1430,-16414,-75,15,-61,-4
1,155,32140,-1470,-16435,-86,12,-73,-5
1,156,32145,-1510,-16410,-196,13,-79,-3
1,157,32150,-1489,-16459,-300,14,-73,-4
1,158,32155,-1424,-16499,-359,16,-67,-3
1,159,32160,-1442,-16472,-380,14,-61,-4
1,160,32165,-1494,-16473,-395,14,-58,-6
1,161,32170,-1527,-16475,-390,15,-42,-7
1,162,32175,-1506,-16470,-471,16,-23,-6
1,163,32180,-1488,-16446,-558,19,0,-6
1,164,32185,-1429,-16450,-572,20,25,-6
1,165,32190,-1438,-16425,-526,23,44,-5
1,166,32195,-1407,-16364,-417,21,56,-5
1,167,32200,-1437,-16336,-414,22,64,-6
1,168,32205,-1426,-16354,-418,24,72,-5
1,169,32210,-1457,-16385,-378,24,75,-5
1,170,32215,-1423,-16351,-294,26,76,-7
1,171,32220,-1332,-16380,-210,24,66,-9
1,172,32225,-1277,-16410,-254,24,53,-9
1,173,32230,-1278,-16409,-219,26,40,-7
1,174,32235,-1338,-16379,-162,28,16,-8
1,175,32240,-1329,-16337,-124,26,-10,-8
1,176,32245,-1292,-16304,-142,22,-32,-6
1,177,32250,-1304,-16282,-244,24,-51,-3
1,178,32255,-1331,-16328,-206,24,-68,-4
1,179,32260,-1368,-16356,-172,25,-89,-1
1,180,32265,-1418,-16339,-247,22,-107,-2
1,181,32270,-1480,-16280,-228,22,-122,-4
1,182,32275,-1462,-16317,-256,20,-125,-3
1,183,32280,-1486,-16371,-286,22,-123,-5
1,184,32285,-1494,-16457,-325,26,-117,-4
1,185,32290,-1513,-16512,-362,25,-106,-5
1,186,32295,-1549,-16541,-263,21,-93,-6
1,187,32300,-1562,-16513,-293,21,-78,-7
1,188,32305,-1514,-16494,-460,25,-62,-4
1,189,32310,-1499,-16503,-616,26,-35,-5
1,190,32315,-1459,-16486,-625,25,-8,-8
1,191,32320,-1384,-16459,-538,27,11,-7
1,192,32325,-1387,-16404,-465,29,25,-7
1,193,32330,-1413,-16339,-403,29,37,-8
1,194,32335,-1493,-16329,-352,33,44,-9
1,195,32340,-1477,-16300,-290,30,49,-7
1,196,32345,-1440,-16252,-317,32,52,-5
1,197,32350,-1423,-16232,-349,31,46,-6
1,198,32355,-1365,-16269,-242,32,34,-6
1,199,32360,-1445,-16242,-139,33,14,-8
1,200,32365,-1566,-16257,-114,30,-12,-8
1,201,32370,-1623,-16292,-132,32,-31,-7
1,202,32375,-1577,-16330,-204,31,-39,-9
1,203,32380,-1540,-16393,-186,31,-40,-9
1,204,32385,-1466,-16394,-180,31,-39,-7
1,205,32390,-1459,-16424,-252,29,-48,-10
1,206,32395,-1425,-16489,-322,29,-51,-13
1,207,32400,-1410,-16480,-256,30,-51,-13
1,208,32405,-1455,-16456,-182,29,-49,-11
1,209,32410,-1453,-16451,-141,29,-39,-9
1,210,32415,-1434,-16382,-288,29,-25,-12
1,211,32420,-1424,-16359,-320,28,-14,-11
1,212,32425,-1383,-16416,-251,29,-11,-12
1,213,32430,-1430,-16426,-156,28,-13,-12
1,214,32435,-1418,-16425,-74,27,-17,-12
1,215,32440,-1448,-16383,-138,28,-14,-11
1,216,32445,-1405,-16371,-238,27,-5,-9
1,217,32450,-1346,-16387,-292,26,0,-12
1,218,32455,-1361,-16370,-249,29,-1,-11
1,219,32460,-1342,-16381,-239,29,-11,-10
1,220,32465,-1331,-16356,-198,26,-26,-11
1,221,32470,-1394,-16421,-200,24,-38,-11
1,222,32475,-1538,-16374,-162,25,-48,-12
1,223,32480,-1599,-16347,-88,24,-56,-11
1,224,32485,-1440,-16376,-371,23,-49,-12
1,225,32490,-1392,-16380,-417,27,-40,-14
1,226,32495,-1392,-16357,-410,27,-34,-13
1,227,32500,-1454,-16346,-381,24,-34,-13
1,228,32505,-1472,-16366,-341,28,-30,-13
1,229,32510,-1446,-16358,-293,29,-13,-10
1,230,32515,-1420,-16358,-271,28,4,-9
1,231,32520,-1439,-16388,-291,30,17,-9
1,232,32525,-1489,-16427,-306,30,22,-12
1,233,32530,-1426,-16441,-279,29,22,-13
1,234,32535,-1414,-16442,-162,29,22,-10
1,235,32540,-1409,-16435,-138,29,24,-10
1,236,32545,-1447,-16427,-93,26,21,-11
1,237,32550,-1450,-16426,-109,30,18,-9
1,238,32555,-1438,-16395,-126,30,17,-11
1,239,32560,-1429,-16446,-127,26,13,-13
1,240,32565,-1365,-16486,-70,25,4,-10
1,241,32570,-1355,-16449,-29,27,-1,-10
1,242,32575,-1373,-16455,-106,25,-4,-9
1,243,32580,-1368,-16446,-175,26,-6,-6
1,244,32585,-1417,-16412,-153,26,-9,-9
1,245,32590,-1364,-16425,-177,26,-13,-9
1,246,32595,-1336,-16433,-195,23,-15,-11
1,247,32600,-1295,-16427,-220,27,-16,-7
1,248,32605,-1286,-16431,-211,25,-16,-6
1,249,32610,-1317,-16433,-201,25,-15,-6
1,250,32615,-1345,-16416,-186,22,-14,-6
1,251,32620,-1403,-16450,-125,24,-14,-6
1,252,32625,-1424,-16441,-79,23,-14,-4
1,253,32630,-1408,-16457,-83,21,-15,-5
1,254,32635,-1433,-16427,-138,23,-17,-4
1,255,32640,-1408,-16432,-175,23,-13,-4
1,256,32645,-1418,-16426,-254,22,-9,-3
1,257,32650,-1419,-16448,-222,20,-9,-3
1,258,32655,-1398,-16429,-211,20,-12,-3
1,259,32660,-1409,-16365,-202,19,-12,-3
1,260,32665,-1466,-16329,-240,23,-9,-2
1,261,32670,-1448,-16348,-280,22,-1,-3
1,262,32675,-1475,-16318,-211,19,1,-4
1,263,32680,-1459,-16324,-230,21,-2,-1
1,264,32685,-1415,-16313,-222,20,-6,1
1,265,32690,-1399,-16370,-215,22,-8,0
1,266,32695,-1410,-16345,-174,21,-3,-1
1,267,32700,-1458,-16408,-74,18,-8,0
1,268,32705,-1504,-16430,-2,20,-8,-1
1,269,32710,-1481,-16382,-52,20,-4,0
1,270,32715,-1397,-16409,-100,19,6,-2
1,271,32720,-1358,-16444,-159,19,15,-2
1,272,32725,-1372,-16461,-141,18,15,-2
1,273,32730,-1429,-16441,-145,16,21,-1
1,274,32735,-1406,-16453,-163,16,23,-2
1,275,32740,-1373,-16452,-143,15,26,-1
1,276,32745,-1354,-16414,-191,14,35,1
1,277,32750,-1360,-16418,-186,14,41,4
1,278,32755,-1305,-16389,-95,14,44,1
1,279,32760,-1319,-16389,-69,14,36,4
1,280,32765,-1351,-16355,-125,11,29,4
1,281,32770,-1361,-16360,-71,10,20,5
1,282,32775,-1359,-16376,-53,10,6,4
1,283,32780,-1405,-16373,-26,8,-7,2
1,284,32785,-1420,-16358,-102,9,-21,5
1,285,32790,-1420,-16346,-176,7,-31,6
1,286,32795,-1361,-16290,-194,5,-36,4
1,287,32800,-1372,-16354,-254,7,-43,5
1,288,32805,-1372,-16391,-220,6,-47,7
1,289,32810,-1383,-16416,-169,6,-51,7
1,290,32815,-1415,-16454,-52,5,-54,5
1,291,32820,-1492,-16479,-10,4,-53,5
1,292,32825,-1528,-16512,-87,3,-42,7
1,293,32830,-1484,-16525,-146,3,-30,6
1,294,32835,-1435,-16583,-211,2,-13,8
1,295,32840,-1362,-16549,-217,4,-2,12
1,296,32845,-1358,-16522,-187,2,10,9
1,297,32850,-1371,-16443,-143,-1,23,7
1,298,32855,-1399,-16437,-101,0,30,8
1,299,32860,-1483,-16411,-90,-3,33,8
1,300,32865,-1469,-16422,-117,-4,35,10
1,301,32870,-1404,-16387,-131,-4,32,9
1,302,32875,-1356,-16365,-143,-4,28,11
1,303,32880,-1356,-16365,-129,-4,21,10
1,304,32885,-1356,-16364,-120,-6,7,10
1,305,32890,-1399,-16325,-112,-5,-8,9
1,306,32895,-1471,-16348,-60,-9,-24,11
1,307,32900,-1481,-16350,-8,-10,-37,11
1,308,32905,-1561,-16338,-5,-7,-47,10
1,309,32910,-1577,-16341,-137,-9,-58,10
1,310,32915,-1533,-16353,-238,-11,-56,9
1,311,32920,-1497,-16329,-328,-12,-49,10
1,312,32925,-1449,-16334,-386,-10,-37,11
1,313,32930,-1424,-16338,-395,-9,-27,10
1,314,32935,-1452,-16316,-347,-11,-16,7
1,315,32940,-1526,-16298,-297,-14,-4,7
1,316,32945,-1539,-16300,-251,-12,9,6
1,317,32950,-1529,-16311,-206,-13,25,9
1,318,32955,-1518,-16285,-224,-12,36,10
1,319,32960,-1508,-16281,-205,-13,45,9
1,320,32965,-1430,-16283,-175,-16,48,8
1,321,32970,-1420,-16265,-121,-14,49,8
1,322,32975,-1424,-16279,-182,-13,52,8
1,323,32980,-1344,-16290,-230,-14,50,10
1,324,32985,-1403,-16323,-148,-16,45,8
1,325,32990,-1453,-16334,-57,-13,31,8
1,326,32995,-1500,-16321,3,-17,14,9
1,327,33000,-1511,-16347,-25,-18,2,9
1,328,33005,-1474,-16366,-119,-19,-4,9
1,329,33010,-1413,-16400,-143,-21,-7,9
1,330,33015,-1423,-16439,-171,-20,-10,6
1,331,33020,-1416,-16435,-162,-22,-16,7
1,332,33025,-1472,-16428,-142,-22,-18,7
1,333,33030,-1526,-16437,-200,-21,-18,7
1,334,33035,-1575,-16461,-206,-20,-10,6
1,335,33040,-1520,-16484,-259,-24,-1,8
1,336,33045,-1521,-16486,-291,-22,11,10
1,337,33050,-1480,-16429,-258,-23,19,6
1,338,33055,-1446,-16395,-259,-24,22,7
1,339,33060,-1480,-16363,-259,-22,24,9
1,340,33065,-1433,-16337,-301,-23,34,8
1,341,33070,-1395,-16350,-306,-23,47,7
1,342,33075,-1430,-16349,-259,-23,57,8
1,343,33080,-1442,-16339,-188,-23,54,9
1,344,33085,-1451,-16347,-155,-25,53,7
1,345,33090,-1439,-16307,-137,-23,47,8
1,346,33095,-1411,-16305,-104,-26,46,8
1,347,33100,-1399,-16314,-145,-27,45,8
1,348,33105,-1424,-16284,-158,-28,40,13
1,349,33110,-1455,-16278,-143,-27,35,9
1,350,33115,-1444,-16282,-141,-26,24,10
1,351,33120,-1450,-16265,-91,-29,14,9
1,352,33125,-1466,-16255,-105,-31,9,12
1,353,33130,-1513,-16225,-92,-29,8,11
1,354,33135,-1462,-16241,-84,-27,11,12
1,355,33140,-1468,-16233,-66,-28,12,11
1,356,33145,-1461,-16231,-72,-30,12,14
1,357,33150,-1488,-16233,-83,-34,8,13
1,358,33155,-1586,-16186,104,-37,3,14
1,359,33160,-1654,-16196,207,-38,-7,17
1,360,33165,-1797,-16292,-7,-39,-23,19
1,361,33170,-1603,-16329,-225,-39,-32,22
1,362,33175,-1361,-16240,-85,-45,-32,25
1,363,33180,-1290,-16137,327,-49,-36,29
1,364,33185,-1395,-16032,491,-50,-51,30
1,365,33190,-1603,-16028,103,-51,-71,35
1,366,33195,-1867,-16128,1,-52,-88,37
1,367,33200,-2053,-16162,582,-65,-114,43
1,368,33205,-2488,-16213,1364,-74,-165,45
1,369,33210,-2434,-16438,153,-69,-228,45
1,370,33215,-2253,-16354,-799,-68,-220,47
1,371,33220,-1811,-16338,-1074,-77,-127,62
1,372,33225,-1900,-16383,-985,-73,-76,67
1,373,33230,-2097,-16426,-1520,-66,-6,73
1,374,33235,-2453,-16441,-1772,-62,106,87
1,375,33240,-2695,-16419,-2057,-58,249,92
1,376,33245,-2349,-16457,-2196,-53,419,109
1,377,33250,-1932,-16495,-1997,-46,584,119
1,378,33255,-1758,-16439,-1406,-36,694,124
1,379,33260,-1915,-16330,-890,-36,735,130
1,380,33265,-2080,-16022,-563,-35,730,137
1,381,33270,-2135,-16140,-262,-40,707,157
1,382,33275,-2178,-16173,479,-46,657,167
1,383,33280,-2236,-16303,1368,-53,542,180
1,384,33285,-2177,-16380,1732,-60,358,188
1,385,33290,-2218,-16253,1564,-72,153,190
1,386,33295,-2419,-16199,1097,-81,-46,204
1,387,33300,-2742,-16198,622,-88,-195,218
1,388,33305,-2780,-16347,181,-98,-292,235
1,389,33310,-2566,-16352,-317,-103,-334,257
1,390,33315,-2411,-16403,-888,-102,-318,273
1,391,33320,-2651,-16383,-1376,-96,-258,283
1,392,33325,-2963,-16292,-1859,-94,-172,296
1,393,33330,-3028,-16230,-2190,-90,-56,314
1,394,33335,-2894,-16252,-2188,-89,94,337
1,395,33340,-2764,-16366,-1817,-82,256,358
1,396,33345,-2698,-16334,-1345,-74,393,368
1,397,33350,-2767,-16303,-1023,-69,471,377
1,398,33355,-2701,-16179,-758,-69,502,391
1,399,33360,-2672,-16101,-334,-71,499,407
1,400,33365,-2550,-16100,141,-75,467,425
1,401,33370,-2377,-16135,429,-75,402,442
1,402,33375,-2308,-16053,372,-76,312,459
1,403,33380,-2393,-16043,233,-80,211,479
1,404,33385,-2408,-16048,65,-86,114,497
1,405,33390,-2506,-16046,-36,-89,32,514
1,406,33395,-2610,-16029,-144,-92,-29,532
1,407,33400,-2613,-15978,-344,-92,-72,552
1,408,33405,-2630,-16007,-626,-90,-91,576
1,409,33410,-2732,-16003,-779,-89,-96,592
1,410,33415,-2934,-16022,-870,-94,-100,609
1,411,33420,-2983,-16027,-967,-91,-95,633
1,412,33425,-2888,-15969,-1133,-87,-59,653
1,413,33430,-2969,-15989,-1166,-82,-3,670
1,414,33435,-3197,-16071,-1055,-79,43,685
1,415,33440,-3441,-16056,-980,-77,65,700
1,416,33445,-3390,-16021,-1039,-74,80,717
1,417,33450,-3264,-15991,-1075,-71,113,730
1,418,33455,-3338,-16061,-907,-66,156,741
1,419,33460,-3606,-16113,-750,-61,187,752
1,420,33465,-3756,-16120,-755,-60,195,765
1,421,33470,-3846,-16115,-733,-61,196,779
1,422,33475,-3779,-16097,-687,-64,204,789
1,423,33480,-3739,-16116,-600,-60,223,804
1,424,33485,-3687,-16121,-515,-57,230,814
1,425,33490,-3796,-16075,-440,-59,227,823
1,426,33495,-4023,-16019,-349,-63,209,830
1,427,33500,-4242,-16028,-450,-61,182,838
1,428,33505,-4026,-16055,-754,-62,169,852
1,429,33510,-3720,-16010,-879,-63,185,864
1,430,33515,-3701,-16010,-726,-61,205,872
1,431,33520,-3873,-15975,-526,-64,204,875
1,432,33525,-4040,-15954,-457,-65,183,876
1,433,33530,-4065,-15942,-619,-65,150,886
1,434,33535,-4007,-15989,-594,-65,135,895
1,435,33540,-4033,-16060,-401,-66,130,900
1,436,33545,-4113,-16050,-233,-69,114,901
1,437,33550,-4183,-15982,-324,-72,75,903
1,438,33555,-4270,-15944,-498,-71,40,905
1,439,33560,-4320,-15957,-658,-71,26,907
1,440,33565,-4418,-16016,-638,-72,25,909
1,441,33570,-4532,-15984,-535,-74,19,905
1,442,33575,-4513,-15939,-642,-72,6,905
1,443,33580,-4496,-15881,-766,-74,-3,902
1,444,33585,-4723,-15830,-863,-73,-20,890
1,445,33590,-4897,-15793,-913,-73,-32,883
1,446,33595,-5036,-15764,-1071,-73,-40,875
1,447,33600,-5098,-15703,-1243,-71,-39,870
1,448,33605,-5174,-15677,-1377,-70,-18,861
1,449,33610,-5365,-15670,-1474,-70,9,849
1,450,33615,-5460,-15604,-1656,-62,49,840
1,451,33620,-5450,-15602,-1932,-60,103,824
1,452,33625,-5417,-15578,-2049,-58,172,813
1,453,33630,-5432,-15601,-1744,-51,232,799
1,454,33635,-5486,-15501,-1409,-51,264,779
1,455,33640,-5507,-15401,-1275,-46,271,760
1,456,33645,-5488,-15415,-1243,-43,268,743
1,457,33650,-5589,-15375,-996,-41,261,724
1,458,33655,-5723,-15416,-765,-44,225,704
1,459,33660,-5773,-15417,-629,-48,160,681
1,460,33665,-5715,-15453,-728,-47,81,664
1,461,33670,-5712,-15474,-827,-50,19,640
1,462,33675,-5865,-15418,-873,-47,-30,616
1,463,33680,-5786,-15486,-1054,-47,-72,593
1,464,33685,-5980,-15476,-1119,-48,-99,566
1,465,33690,-6034,-15606,-1141,-47,-105,544
1,466,33695,-6381,-15555,-1279,-44,-95,518
1,467,33700,-6198,-15667,-1694,-39,-58,499
1,468,33705,-5792,-15734,-2122,-36,19,476
1,469,33710,-5490,-15812,-2009,-33,123,448
1,470,33715,-5530,-15810,-1908,-26,215,420
1,471,33720,-5669,-15748,-1994,-21,289,395
1,472,33725,-5754,-15697,-2109,-15,360,371
1,473,33730,-5676,-15634,-1967,-9,438,349
1,474,33735,-5483,-15657,-1554,-12,517,323
1,475,33740,-5279,-15770,-1083,-10,569,298
1,476,33745,-5150,-15814,-880,-5,581,268
1,477,33750,-5197,-15847,-784,-1,551,237
1,478,33755,-5353,-15799,-662,-5,491,210
1,479,33760,-5455,-15731,-557,-10,427,188
1,480,33765,-5337,-15669,-457,-15,373,162
1,481,33770,-5209,-15655,-365,-15,314,138
1,482,33775,-5170,-15601,-285,-14,248,108
1,483,33780,-5270,-15546,-382,-17,165,80
1,484,33785,-5376,-15415,-743,-22,83,52
1,485,33790,-5411,-15408,-1063,-21,29,27
1,486,33795,-5409,-15475,-1216,-20,9,5
1,487,33800,-5272,-15556,-1194,-23,10,-19
1,488,33805,-5245,-15561,-1312,-19,18,-49
1,489,33810,-5221,-15560,-1572,-17,38,-75
1,490,33815,-5213,-15564,-1777,-13,75,-103
1,491,33820,-5248,-15558,-1756,-11,133,-130
1,492,33825,-5290,-15545,-1657,-9,193,-157
1,493,33830,-5255,-15478,-1670,-7,249,-182
1,494,33835,-5125,-15485,-1669,-1,305,-206
1,495,33840,-5024,-15457,-1590,4,353,-235
1,496,33845,-5029,-15473,-1344,8,384,-261
1,497,33850,-5089,-15483,-1119,7,389,-289
1,498,33855,-5068,-15416,-1022,7,380,-316
1,499,33860,-4976,-15413,-1001,11,369,-341
1,500,33865,-4904,-15422,-925,11,355,-365
1,501,33870,-4910,-15399,-935,13,328,-388
1,502,33875,-4875,-15389,-976,10,285,-412
1,503,33880,-4762,-15409,-1044,11,235,-436
1,504,33885,-4705,-15396,-1140,13,197,-459
1,505,33890,-4639,-15361,-1171,14,173,-482
1,506,33895,-4569,-15322,-1271,14,155,-504
1,507,33900,-4561,-15354,-1350,12,143,-524
1,508,33905,-4649,-15416,-1332,14,131,-546
1,509,33910,-4797,-15440,-1303,15,121,-569
1,510,33915,-4826,-15439,-1408,17,125,-592
1,511,33920,-4604,-15460,-1714,21,153,-609
1,512,33925,-4345,-15484,-1980,23,201,-626
1,513,33930,-4197,-15465,-2017,31,253,-645
1,514,33935,-4174,-15431,-1828,34,291,-667
1,515,33940,-4204,-15428,-1738,38,307,-689
1,516,33945,-4196,-15399,-1642,43,314,-707
1,517,33950,-4222,-15447,-1385,46,316,-741
1,518,33955,-4129,-15451,-1242,50,301,-757
1,519,33960,-3946,-15490,-1168,53,273,-775
1,520,33965,-3804,-15487,-1057,52,236,-791
1,521,33970,-3729,-15595,-893,54,186,-806
1,522,33975,-3740,-15619,-912,52,132,-819
1,523,33980,-3730,-15674,-924,48,77,-836
1,524,33985,-3870,-15705,-860,48,19,-850
1,525,33990,-3944,-15731,-877,47,-34,-863
1,526,33995,-3953,-15818,-1144,47,-73,-873
1,527,34000,-3694,-15895,-1546,46,-91,-884
1,528,34005,-3514,-15956,-1728,48,-76,-897
1,529,34010,-3549,-15922,-1765,48,-44,-910
1,530,34015,-3645,-15945,-1894,50,-15,-921
1,531,34020,-3631,-15942,-2079,58,20,-931
1,532,34025,-3525,-15945,-2150,65,63,-940
1,533,34030,-3374,-16032,-1953,65,113,-947
1,534,34035,-3411,-16145,-1538,68,153,-962
1,535,34040,-3398,-16217,-1366,70,167,-971
1,536,34045,-3267,-16185,-1505,76,166,-982
1,537,34050,-2920,-16250,-1775,80,172,-992
1,538,34055,-2755,-16330,-1584,77,177,-999
1,539,34060,-2704,-16354,-1121,77,170,-1009
1,540,34065,-2781,-16308,-814,81,139,-1015
1,541,34070,-2744,-16295,-924,86,104,-1022
1,542,34075,-2738,-16278,-939,85,73,-1023
1,543,34080,-2834,-16272,-655,78,38,-1029
1,544,34085,-2900,-16248,-438,74,-14,-1033
1,545,34090,-2738,-16200,-541,69,-76,-1036
1,546,34095,-2528,-16153,-836,72,-119,-1044
1,547,34100,-2505,-16134,-970,71,-144,-1050
1,548,34105,-2549,-16102,-929,66,-173,-1050
1,549,34110,-2645,-16103,-777,64,-216,-1056
1,550,34115,-2651,-16191,-780,60,-259,-1065
1,551,34120,-2728,-16258,-798,60,-287,-1065
1,552,34125,-2805,-16368,-959,58,-298,-1065
1,553,34130,-2689,-16460,-1253,51,-287,-1071
1,554,34135,-2351,-16527,-1564,50,-251,-1068
1,555,34140,-2019,-16504,-1609,54,-195,-1070
1,556,34145,-2036,-16569,-1469,57,-135,-1071
1,557,34150,-2289,-16579,-1345,59,-88,-1076
1,558,34155,-2470,-16584,-1337,60,-41,-1071
1,559,34160,-2294,-16650,-1458,61,23,-1068
1,560,34165,-1896,-16641,-1305,64,91,-1059
1,561,34170,-1644,-16732,-900,68,135,-1056
1,562,34175,-1567,-16662,-462,66,128,-1057
1,563,34180,-1613,-16554,-300,67,83,-1055
1,564,34185,-1606,-16503,-269,64,25,-1049
1,565,34190,-1501,-16519,-63,60,-32,-1041
1,566,34195,-1421,-16529,173,55,-100,-1030
1,567,34200,-1293,-16611,276,52,-190,-1022
1,568,34205,-1192,-16598,162,50,-298,-1016
1,569,34210,-1128,-16568,-41,43,-403,-1009
1,570,34215,-1230,-16610,-236,38,-486,-1001
1,571,34220,-1288,-16685,-309,34,-538,-987
1,572,34225,-1304,-16688,-491,27,-569,-974
1,573,34230,-1242,-16703,-739,33,-584,-963
1,574,34235,-1148,-16751,-960,31,-579,-951
1,575,34240,-1174,-16781,-1133,28,-565,-942
1,576,34245,-1235,-16813,-1120,28,-542,-930
1,577,34250,-1141,-16776,-1214,28,-508,-916
1,578,34255,-1004,-16752,-1309,36,-459,-901
1,579,34260,-859,-16718,-1277,39,-406,-887
1,580,34265,-813,-16654,-1077,42,-369,-876
1,581,34270,-778,-16598,-828,41,-361,-865
1,582,34275,-740,-16548,-704,48,-382,-853
1,583,34280,-661,-16519,-591,51,-417,-842
1,584,34285,-603,-16474,-420,52,-459,-831
1,585,34290,-569,-16489,-264,54,-517,-822
1,586,34295,-603,-16573,-142,54,-582,-808
1,587,34300,-588,-16593,-158,55,-654,-796
1,588,34305,-560,-16585,-312,58,-720,-785
1,589,34310,-573,-16621,-484,58,-778,-775
1,590,34315,-638,-16567,-788,58,-820,-761
1,591,34320,-589,-16717,-1074,61,-819,-733
1,592,34325,-424,-16781,-1387,66,-770,-718
1,593,34330,-391,-16855,-1576,78,-691,-704
1,594,34335,-436,-16924,-1863,87,-588,-695
1,595,34340,-514,-16917,-1878,92,-474,-685
1,596,34345,-446,-16985,-1901,104,-354,-670
1,597,34350,-4693,-17386,-1103,116,-219,-656
1,598,34355,-11890,-14052,-3468,105,-248,-584
1,599,34360,-327,-17993,-4251,76,-202,-418
1,600,34365,-2337,-16664,7352,3,-70,-448
1,601,34387,-700,-16179,-32417,-163,-3643,-47
1,602,34387,-700,-16179,-32417,-163,-3643,-47
1,603,34388,-700,-16179,-32417,-163,-3643,-47
1,604,34389,-4349,-14716,-15451,-247,-1190,123
1,605,34390,-4349,-14716,-15451,-247,-1190,123
1,606,34395,-5370,-15290,-5265,-262,66,252
1,607,34400,-613,-16480,-6036,-129,633,282
1,608,34405,2062,-17032,-7694,-1,1210,266
1,609,34410,185,-16531,-9687,20,1707,209
1,610,34415,-4031,-15460,-5166,-25,2198,210
1,611,34420,-4355,-15290,-801,-50,2492,291
1,612,34425,-685,-15944,2488,-24,2647,359
1,613,34430,2464,-16457,2516,11,2629,357
1,614,34435,2388,-16960,1673,30,2460,317
1,615,34440,-700,-16704,3915,-8,2084,280
1,616,34445,-1135,-16041,3304,-55,1426,280
1,617,34450,579,-15788,3757,-79,913,317
1,618,34455,2200,-15908,4186,-102,529,334
1,619,34460,1796,-15920,3856,-101,187,322
1,620,34465,61,-16078,3472,-102,-199,318
1,621,34470,-512,-16013,1178,-121,-640,313
1,622,34475,468,-15879,-999,-143,-920,320
1,623,34480,1448,-16029,-1302,-145,-950,334
1,624,34485,1368,-15996,-683,-136,-884,338
1,625,34490,671,-15956,-952,-123,-871,337
1,626,34495,392,-15784,-2360,-113,-906,340
1,627,34500,418,-15764,-3163,-113,-885,351
1,628,34505,276,-15906,-2323,-120,-782,362
1,629,34510,-135,-16087,-973,-113,-669,367
1,630,34515,-547,-16065,-650,-97,-609,357
1,631,34520,-683,-16391,-1509,-82,-570,355
1,632,34525,-861,-16406,-2050,-78,-515,340
1,633,34530,-1119,-16460,-1800,-78,-433,332
1,634,34535,-1087,-16478,-1638,-75,-346,323
1,635,34540,-852,-16480,-1862,-60,-245,315
1,636,34545,-702,-16463,-2456,-45,-129,307
1,637,34550,-726,-16479,-2639,-35,8,300
1,638,34555,-828,-16524,-2336,-31,136,295
1,639,34560,-784,-16462,-1954,-25,237,291
1,640,34565,-590,-16496,-1631,-17,319,285
1,641,34570,-532,-16481,-1316,-9,387,278
1,642,34575,-621,-16533,-967,-3,431,276
1,643,34580,-669,-16528,-882,-3,442,269
1,644,34585,-503,-16586,-927,-2,430,268
1,645,34590,-243,-16622,-957,0,410,266
1,646,34595,65,-16666,-811,2,391,267
1,647,34600,191,-16643,-617,1,361,264
1,648,34605,188,-16618,-607,2,316,259
1,649,34610,124,-16548,-724,5,267,260
1,650,34615,55,-16530,-705,9,215,263
1,651,34620,49,-16587,-563,6,168,263
1,652,34625,73,-16500,-452,5,118,265
1,653,34630,159,-16568,-439,7,73,261
1,654,34635,107,-16512,-675,8,34,256
1,655,34640,36,-16476,-898,12,12,257
1,656,34645,1,-16406,-1061,14,-5,259
1,657,34650,22,-16441,-1037,12,-11,261
1,658,34655,97,-16485,-918,14,-7,257
1,659,34660,79,-16521,-941,22,-5,258
1,660,34665,49,-16477,-1287,26,2,255
1,661,34670,-38,-16423,-1568,29,29,253
1,662,34675,-121,-16330,-1646,32,67,252
1,663,34680,-148,-16296,-1348,32,102,256
1,664,34685,-202,-16214,-1017,41,155,253
1,665,34690,-341,-16251,-1139,45,175,249
1,666,34695,-466,-16183,-1283,48,184,247
1,667,34700,-475,-16136,-1238,47,179,248
1,668,34705,-392,-16164,-1037,48,164,247
1,669,34710,-364,-16175,-825,50,143,246
1,670,34715,-402,-16214,-837,53,124,241
1,671,34720,-491,-16260,-929,56,105,239
1,672,34725,-585,-16287,-1106,55,82,236
1,673,34730,-555,-16288,-1153,53,63,237
1,674,34735,-495,-16310,-1118,54,39,233
1,675,34740,-464,-16279,-1083,53,25,231
1,676,34745,-466,-16297,-1124,55,15,227
1,677,34750,-508,-16306,-1268,58,5,226
1,678,34755,-617,-16264,-1308,59,5,220
1,679,34760,-732,-16260,-1335,61,5,221
1,680,34765,-803,-16242,-1202,59,8,213
1,681,34770,-865,-16289,-1156,61,12,212
1,682,34775,-866,-16296,-1222,63,20,208
1,683,34780,-865,-16368,-1341,63,43,206
1,684,34785,-883,-16371,-1434,67,72,201
1,685,34790,-870,-16360,-1499,67,93,199
1,686,34795,-819,-16354,-1521,70,113,194
1,687,34800,-800,-16333,-1520,71,135,189
1,688,34805,-807,-16334,-1441,70,157,188
1,689,34810,-888,-16315,-1298,74,172,185
1,690,34815,-972,-16316,-1133,72,177,181
1,691,34820,-1035,-16345,-1031,70,169,177
1,692,34825,-1025,-16334,-1056,68,154,172
1,693,34830,-967,-16315,-1089,66,139,168
1,694,34835,-893,-16276,-1105,66,120,166
1,695,34840,-896,-16377,-1018,63,98,163
1,696,34845,-999,-16439,-926,64,68,154
1,697,34850,-1027,-16455,-929,63,41,148
1,698,34855,-1104,-16446,-1038,61,24,144
1,699,34860,-1157,-16450,-1145,62,11,144
1,700,34865,-1232,-16450,-1165,58,8,141
1,701,34870,-1240,-16448,-1279,53,11,136
1,702,34875,-1110,-16436,-1431,54,29,138
1,703,34880,-929,-16449,-1574,56,69,135
1,704,34885,-1031,-16480,-1603,59,117,129
1,705,34890,-1195,-16411,-1590,59,158,124
1,706,34895,-1254,-16368,-1560,58,188,121
1,707,34900,-1200,-16341,-1505,59,214,119
1,708,34905,-1205,-16321,-1276,58,240,114
1,709,34910,-1226,-16286,-1055,56,253,110
1,710,34915,-1296,-16307,-938,57,249,107
1,711,34920,-1263,-16321,-1021,57,233,101
1,712,34925,-1219,-16328,-1021,54,214,99
1,713,34930,-1171,-16326,-1003,50,200,96
1,714,34935,-1146,-16362,-932,48,170,90
1,715,34940,-1094,-16414,-890,46,130,87
1,716,34945,-1098,-16462,-892,45,91,87
1,717,34950,-1170,-16481,-818,45,49,82
1,718,34955,-1210,-16388,-805,42,10,81
1,719,34960,-1224,-16397,-925,39,-19,79
1,720,34965,-1156,-16402,-974,37,-45,78
1,721,34970,-1162,-16371,-986,36,-72,78
1,722,34975,-1177,-16375,-1052,33,-94,73
1,723,34980,-1124,-16383,-1164,32,-113,70
1,724,34985,-1110,-16362,-1270,32,-121,71
1,725,34990,-1059,-16335,-1362,34,-118,69
1,726,34995,-1076,-16368,-1359,35,-113,66
1,727,35000,-1101,-16406,-1355,34,-109,63
1,728,35005,-1125,-16407,-1334,36,-105,65
1,729,35010,-1143,-16471,-1380,39,-98,62
1,730,35015,-1187,-16428,-1422,40,-83,59
1,731,35020,-1248,-16387,-1371,42,-71,58
1,732,35025,-1284,-16356,-1317,38,-55,58
1,733,35030,-1207,-16360,-1309,40,-44,55
1,734,35035,-1175,-16416,-1315,44,-25,54
1,735,35040,-1177,-16437,-1321,42,-3,50
1,736,35045,-1219,-16462,-1247,44,14,49
1,737,35050,-1240,-16465,-1142,41,30,47
1,738,35055,-1100,-16430,-954,47,50,49
1,739,35060,-1133,-16430,-983,44,57,44
1,740,35065,-1134,-16399,-965,45,56,41
1,741,35070,-1107,-16383,-944,45,46,44
1,742,35075,-1052,-16410,-816,43,34,43
1,743,35080,-987,-16451,-760,42,17,39
1,744,35085,-1038,-16471,-702,39,-8,37
1,745,35090,-1126,-16435,-776,42,-35,37
1,746,35095,-1178,-16411,-864,39,-56,33
1,747,35100,-1224,-16394,-848,39,-76,35
1,748,35105,-1164,-16355,-838,37,-93,35
1,749,35110,-1222,-16335,-871,38,-106,31
1,750,35115,-1341,-16313,-991,37,-119,27
1,751,35120,-1326,-16303,-1156,36,-125,24
1,752,35125,-1347,-16303,-1148,38,-123,23
1,753,35130,-1495,-16327,-938,37,-118,23
1,754,35135,-1577,-16355,-823,34,-115,16
1,755,35140,-1662,-16410,-880,34,-113,11
1,756,35145,-1691,-16447,-1210,39,-95,9
1,757,35150,-1532,-16406,-1561,39,-58,7
1,758,35155,-1436,-16332,-1568,38,-14,7
1,759,35160,-1356,-16320,-1363,38,20,4
1,760,35165,-1339,-16286,-1246,42,42,-1
1,761,35170,-1388,-16300,-1216,46,66,-4
1,762,35175,-1480,-16368,-1115,47,89,-9
1,763,35180,-1663,-16476,-756,45,99,-12
1,764,35185,-1771,-16463,-460,42,85,-14
1,765,35190,-1679,-16450,-444,39,66,-20
1,766,35195,-1532,-16471,-729,37,55,-19
1,767,35200,-1429,-16487,-1043,41,52,-22
1,768,35205,-1346,-16426,-1145,39,49,-24
1,769,35210,-1280,-16406,-1137,32,43,-27
1,770,35215,-1175,-16324,-1085,33,38,-29
1,771,35220,-1141,-16208,-1178,38,46,-26
1,772,35225,-1259,-16209,-1151,38,56,-29
1,773,35230,-1399,-16205,-1084,37,56,-32
1,774,35235,-1386,-16173,-1022,38,38,-31
1,775,35240,-1331,-16184,-872,35,12,-36
1,776,35245,-1289,-16197,-795,35,-11,-37
1,777,35250,-1300,-16201,-847,35,-36,-38
1,778,35255,-1394,-16219,-906,36,-68,-39
1,779,35260,-1383,-16322,-916,35,-98,-43
1,780,35265,-1459,-16407,-760,34,-122,-46
1,781,35270,-1533,-16488,-586,28,-143,-49
1,782,35275,-1572,-16451,-631,29,-159,-50
1,783,35280,-1581,-16422,-955,32,-167,-50
1,784,35285,-1572,-16415,-1220,31,-149,-58
1,785,35290,-1515,-16341,-1380,32,-117,-56
1,786,35295,-1494,-16316,-1367,29,-87,-55
1,787,35300,-1406,-16250,-1395,34,-59,-56
1,788,35305,-1409,-16196,-1351,36,-31,-58
1,789,35310,-1447,-16255,-1191,37,5,-60
1,790,35315,-1510,-16359,-994,39,36,-60
1,791,35320,-1493,-16410,-795,40,55,-61
1,792,35325,-1447,-16472,-654,42,73,-61
1,793,35330,-1371,-16482,-627,40,81,-64
1,794,35335,-1299,-16457,-598,41,76,-65
1,795,35340,-1261,-16481,-610,39,60,-67
1,796,35345,-1186,-16421,-638,34,47,-68
1,797,35350,-1188,-16444,-647,33,36,-64
1,798,35355,-1155,-16410,-637,35,29,-63
1,799,35360,-1141,-16382,-615,35,21,-65
1,800,35365,-1138,-16347,-640,33,0,-65
1,801,35370,-1137,-16342,-669,32,-29,-64
1,802,35375,-1142,-16340,-649,30,-50,-61
1,803,35380,-1176,-16410,-567,30,-67,-63
1,804,35385,-1186,-16488,-573,31,-83,-63
1,805,35390,-1238,-16506,-515,30,-100,-63
1,806,35395,-1250,-16605,-502,27,-119,-63
1,807,35400,-1319,-16625,-539,24,-131,-64
1,808,35405,-1380,-16614,-635,26,-132,-62
1,809,35410,-1427,-16600,-754,27,-124,-60
1,810,35415,-1418,-16587,-876,24,-104,-63
1,811,35420,-1295,-16481,-952,26,-66,-61
1,812,35425,-1266,-16447,-991,26,-47,-64
1,813,35430,-1206,-16362,-974,30,-21,-63
1,814,35435,-1269,-16371,-884,29,8,-61
1,815,35440,-1239,-16373,-774,31,23,-59
1,816,35445,-1211,-16383,-693,32,26,-60
1,817,35450,-1229,-16395,-645,31,25,-62
1,818,35455,-1191,-16438,-621,30,13,-63
1,819,35460,-1188,-16418,-546,27,2,-62
1,820,35465,-1218,-16409,-478,30,-9,-61
1,821,35470,-1199,-16345,-548,25,-18,-59
1,822,35475,-1161,-16364,-685,29,-29,-57
1,823,35480,-1144,-16440,-711,27,-38,-58
1,824,35485,-1192,-16433,-553,28,-50,-54
1,825,35490,-1250,-16419,-501,27,-65,-55
1,826,35495,-1251,-16415,-577,27,-81,-57
1,827,35500,-1264,-16442,-647,25,-88,-56
1,828,35505,-1275,-16412,-747,27,-88,-53
1,829,35510,-1283,-16412,-787,26,-84,-54
1,830,35515,-1231,-16409,-786,25,-87,-54
1,831,35520,-1188,-16356,-828,26,-84,-52
1,832,35525,-1163,-16260,-871,28,-76,-52
1,833,35530,-1180,-16258,-914,30,-65,-50
1,834,35535,-1303,-16319,-727,30,-52,-49
1,835,35540,-1368,-16346,-598,26,-44,-51
1,836,35545,-1361,-16325,-553,26,-39,-50
1,837,35550,-1263,-16287,-794,27,-26,-49
1,838,35555,-1137,-16229,-984,30,-1,-47
1,839,35560,-1138,-16209,-989,31,17,-45
1,840,35565,-1107,-16208,-866,27,24,-46
1,841,35570,-1102,-16222,-716,30,19,-44
1,842,35575,-1130,-16230,-601,31,13,-44
1,843,35580,-1168,-16276,-553,28,13,-43
1,844,35585,-1225,-16283,-525,31,6,-40
1,845,35590,-1241,-16264,-614,30,-5,-42
1,846,35595,-1141,-16257,-653,26,-19,-37
1,847,35600,-1078,-16201,-673,25,-35,-35
1,848,35605,-1086,-16166,-641,26,-53,-35
1,849,35610,-1153,-16200,-658,26,-67,-36
1,850,35615,-1273,-16292,-605,26,-77,-35
1,851,35620,-1339,-16393,-511,24,-85,-32
1,852,35625,-1400,-16485,-428,25,-92,-34
1,853,35630,-1340,-16524,-584,22,-90,-38
1,854,35635,-1288,-16463,-886,23,-79,-34
1,855,35640,-1203,-16401,-950,26,-63,-31
1,856,35645,-1158,-16373,-956,25,-41,-31
1,857,35650,-1098,-16352,-954,21,-19,-29
1,858,35655,-1073,-16357,-914,22,2,-27
1,859,35660,-1188,-16370,-854,24,18,-25
1,860,35665,-1283,-16386,-651,23,28,-23
1,861,35670,-1342,-16439,-571,20,24,-25
1,862,35675,-1310,-16439,-523,22,16,-25
1,863,35680,-1224,-16446,-501,22,12,-24
1,864,35685,-1165,-16467,-562,21,5,-23
1,865,35690,-1175,-16408,-621,19,-1,-23
1,866,35695,-1158,-16357,-630,17,-7,-19
1,867,35700,-1106,-16326,-624,16,-15,-16
1,868,35705,-1118,-16351,-569,16,-23,-16
1,869,35710,-1157,-16396,-583,17,-34,-12
1,870,35715,-1190,-16388,-662,17,-43,-12
1,871,35720,-1179,-16344,-745,15,-52,-10
1,872,35725,-1178,-16293,-768,14,-57,-10
1,873,35730,-1179,-16273,-755,15,-61,-10
1,874,35735,-1205,-16325,-685,16,-69,-8
1,875,35740,-1285,-16416,-626,17,-76,-7
1,876,35745,-1418,-16464,-644,14,-83,-10
1,877,35750,-1488,-16464,-701,11,-80,-10
1,878,35755,-1413,-16448,-784,12,-73,-8
1,879,35760,-1331,-16445,-892,13,-57,-8
1,880,35765,-1303,-16428,-886,16,-39,-3
1,881,35770,-1271,-16382,-904,18,-28,-6
1,882,35775,-1328,-16395,-858,15,-22,-6
1,883,35780,-1363,-16451,-796,13,-9,-4
1,884,35785,-1406,-16464,-647,15,2,-4
1,885,35790,-1359,-16408,-662,16,18,-4
1,886,35795,-1291,-16392,-814,17,35,-2
1,887,35800,-1167,-16373,-778,15,46,0
1,888,35805,-1077,-16375,-653,16,50,-1
1,889,35810,-1070,-16437,-573,14,48,-4
1,890,35815,-1126,-16451,-517,13,43,0
1,891,35820,-1196,-16419,-497,14,38,4
1,892,35825,-1235,-16447,-428,11,30,5
1,893,35830,-1144,-16408,-447,10,17,5
1,894,35835,-1033,-16367,-520,11,3,8
1,895,35840,-1010,-16337,-586,10,-12,12
1,896,35845,-970,-16275,-608,8,-27,10
1,897,35850,-1009,-16290,-601,10,-41,13
1,898,35855,-1006,-16293,-662,10,-51,16
1,899,35860,-1039,-16291,-650,10,-60,16
1,900,35865,-1156,-16351,-534,9,-65,18
1,901,35870,-1215,-16411,-405,3,-77,15
1,902,35875,-1295,-16402,-475,6,-89,18
1,903,35880,-1281,-16434,-633,5,-84,20
1,904,35885,-1222,-16429,-746,1,-69,21
1,905,35890,-1249,-16456,-790,3,-53,23
1,906,35895,-1240,-16456,-784,6,-37,22
1,907,35900,-1245,-16444,-770,3,-26,23
1,908,35905,-1279,-16427,-739,3,-18,24
1,909,35910,-1354,-16389,-727,6,-5,22
1,910,35915,-1347,-16398,-733,5,13,27
1,911,35920,-1320,-16392,-721,5,21,25
1,912,35925,-1270,-16384,-677,2,25,25
1,913,35930,-1228,-16334,-680,4,22,28
1,914,35935,-1172,-16298,-657,2,15,27
1,915,35940,-1153,-16314,-672,4,11,29
1,916,35945,-1154,-16306,-621,7,4,26
1,917,35950,-1191,-16287,-596,5,0,32
1,918,35955,-1205,-16308,-598,2,-7,33
1,919,35960,-1179,-16304,-577,1,-19,29
1,920,35965,-1211,-16288,-620,4,-31,34
1,921,35970,-1286,-16332,-564,4,-43,32
1,922,35975,-1386,-16393,-492,3,-58,32
1,923,35980,-1399,-16402,-487,-2,-67,32
1,924,35985,-1385,-16386,-579,2,-71,32
1,925,35990,-1326,-16399,-760,4,-61,31
1,926,35995,-1282,-16404,-771,3,-49,32
1,927,36000,-1299,-16454,-689,1,-41,33
1,928,36005,-1346,-16445,-665,1,-28,31
1,929,36010,-1312,-16428,-720,2,-15,32
1,930,36015,-1334,-16439,-710,4,1,34
1,931,36020,-1317,-16409,-745,2,21,34
1,932,36025,-1268,-16419,-733,2,35,35
1,933,36030,-1245,-16406,-666,5,41,34
1,934,36035,-1238,-16388,-614,1,42,32
1,935,36040,-1243,-16383,-537,3,37,33
1,936,36045,-1221,-16374,-500,3,29,35
1,937,36050,-1236,-16395,-489,3,23,34
1,938,36055,-1193,-16385,-497,1,17,36
1,939,36060,-1214,-16370,-468,3,2,36
1,940,36065,-1158,-16369,-454,2,-13,32
1,941,36070,-1180,-16359,-467,2,-24,36
1,942,36075,-1224,-16391,-447,1,-36,37
1,943,36080,-1229,-16415,-446,-2,-45,37
1,944,36085,-1273,-16439,-482,1,-51,39
1,945,36090,-1308,-16439,-500,0,-53,37
1,946,36095,-1268,-16453,-574,0,-53,38
1,947,36100,-1334,-16424,-593,-1,-50,37
1,948,36105,-1334,-16464,-634,-4,-48,39
1,949,36110,-1361,-16471,-646,-1,-41,36
1,950,36115,-1373,-16528,-607,1,-30,35
1,951,36120,-1376,-16564,-553,0,-20,38
1,952,36125,-1436,-16557,-566,-2,-11,36
1,953,36130,-1481,-16551,-690,1,-3,34
1,954,36135,-1464,-16479,-744,4,10,34
1,955,36140,-1467,-16463,-671,2,19,36
1,956,36145,-1431,-16440,-575,2,23,34
1,957,36150,-1413,-16474,-522,3,24,33
1,958,36155,-1456,-16435,-633,2,30,32
1,959,36160,-1464,-16409,-649,3,29,30
1,960,36165,-1408,-16354,-610,2,25,30
1,961,36170,-1372,-16324,-567,2,16,30
1,962,36175,-1404,-16396,-569,4,3,31
1,963,36180,-1375,-16352,-611,2,-3,28
1,964,36185,-1400,-16324,-619,4,-11,27
1,965,36190,-1423,-16351,-686,3,-13,28
1,966,36195,-1426,-16392,-629,5,-15,27
1,967,36200,-1373,-16423,-572,7,-15,25
1,968,36205,-1389,-16413,-596,6,-15,21
1,969,36210,-1389,-16391,-666,7,-14,22
1,970,36215,-1404,-16413,-620,7,-1,20
1,971,36220,-1451,-16422,-595,9,6,17
1,972,36225,-1434,-16420,-610,8,17,19
1,973,36230,-1379,-16430,-664,6,34,20
1,974,36235,-1324,-16388,-691,8,50,20
1,975,36240,-1316,-16360,-686,9,65,19
1,976,36245,-1294,-16377,-624,9,75,17
1,977,36250,-1286,-16362,-589,10,83,19
1,978,36255,-1214,-16341,-561,7,88,18
1,979,36260,-1178,-16330,-495,8,88,20
1,980,36265,-1173,-16348,-449,8,85,18
1,981,36270,-1175,-16331,-403,6,73,18
1,982,36275,-1151,-16360,-375,6,55,20
1,983,36280,-1122,-16379,-339,7,38,20
1,984,36285,-1139,-16406,-297,7,17,20
1,985,36290,-1188,-16428,-273,5,-5,18
1,986,36295,-1223,-16449,-322,2,-23,19
1,987,36300,-1228,-16440,-387,0,-39,19
1,988,36305,-1244,-16432,-511,-1,-48,19
1,989,36310,-1201,-16427,-606,-3,-52,20
1,990,36315,-1206,-16391,-656,2,-55,24
1,991,36320,-1205,-16384,-645,3,-56,23
1,992,36325,-1272,-16421,-625,-1,-55,19
1,993,36330,-1334,-16493,-497,1,-51,19
1,994,36335,-1446,-16594,-334,-3,-49,21
1,995,36340,-1582,-16609,-326,-4,-47,20
1,996,36345,-1480,-16566,-577,-3,-34,18
1,997,36350,-1399,-16574,-787,-1,-8,18
1,998,36355,-1295,-16527,-829,-3,17,15
1,999,36360,-1292,-16489,-682,-3,31,16
2,0,107470,-1941,-16209,-1230,19,-345,-39
2,1,107475,-1953,-16197,-1326,23,-284,-38
2,2,107480,-1864,-16078,-1423,30,-224,-40
2,3,107485,-1681,-16097,-1342,31,-154,-38
2,4,107490,-1616,-16095,-1147,38,-89,-35
2,5,107495,-1663,-16273,-800,39,-34,-33
2,6,107500,-1770,-16254,-571,39,-3,-38
2,7,107505,-1803,-16332,-393,40,10,-35
2,8,107510,-1870,-16495,-84,37,14,-33
2,9,107515,-1894,-16532,267,37,-1,-38
2,10,107520,-1845,-16644,407,32,-30,-32
2,11,107525,-1834,-16436,794,22,-61,-33
2,12,107530,-1788,-16507,1084,14,-105,-32
2,13,107535,-2087,-16628,958,10,-162,-35
2,14,107540,-2230,-16766,741,7,-225,-37
2,15,107545,-2251,-16836,457,-2,-289,-39
2,16,107550,-2179,-16745,455,-10,-340,-38
2,17,107555,-1945,-16766,451,-13,-385,-38
2,18,107560,-1913,-16612,155,-18,-406,-44
2,19,107565,-1979,-16686,1,-22,-401,-41
2,20,107570,-2179,-16621,-199,-23,-385,-44
2,21,107575,-2084,-16615,-446,-27,-360,-42
2,22,107580,-1969,-16591,-658,-29,-321,-43
2,23,107585,-1985,-16658,-628,-24,-272,-42
2,24,107590,-2105,-16643,-709,-21,-231,-42
2,25,107595,-2049,-16593,-889,-19,-187,-43
2,26,107600,-1840,-16615,-943,-21,-131,-40
2,27,107605,-1630,-16645,-833,-21,-71,-39
2,28,107610,-1604,-16690,-698,-18,-14,-35
2,29,107615,-1594,-16688,-720,-13,36,-33
2,30,107620,-1566,-16737,-740,-12,85,-30
2,31,107625,-1493,-16737,-527,-12,128,-27
2,32,107630,-1481,-16776,-215,-13,150,-24
2,33,107635,-1427,-16782,-70,-12,154,-25
2,34,107640,-1468,-16862,-5,-13,151,-21
2,35,107645,-1464,-16851,194,-17,145,-17
2,36,107650,-1394,-16907,249,-22,129,-11
2,37,107655,-1317,-16935,300,-22,110,-7
2,38,107660,-1334,-16893,287,-24,89,-7
2,39,107665,-1427,-16855,222,-28,61,-4
2,40,107670,-1437,-16852,224,-30,27,-2
2,41,107675,-1456,-16807,257,-35,-3,0
2,42,107680,-1386,-16808,261,-40,-30,4
2,43,107685,-1447,-16805,218,-40,-57,6
2,44,107690,-1500,-16755,174,-43,-79,9
2,45,107695,-1573,-16744,234,-48,-94,10
2,46,107700,-1656,-16691,222,-50,-106,13
2,47,107705,-1665,-16686,209,-50,-113,18
2,48,107710,-1701,-16650,118,-58,-109,17
2,49,107715,-1768,-16602,-5,-62,-106,19
2,50,107720,-1803,-16513,-83,-63,-110,19
2,51,107725,-1864,-16465,-189,-63,-111,22
2,52,107730,-1889,-16393,-242,-65,-103,24
2,53,107735,-1897,-16414,-271,-66,-89,27
2,54,107740,-1821,-16468,-332,-67,-76,29
2,55,107745,-1847,-16440,-342,-66,-59,28
2,56,107750,-1824,-16406,-374,-63,-41,28
2,57,107755,-1773,-16396,-387,-61,-23,31
2,58,107760,-1820,-16338,-375,-63,1,32
2,59,107765,-1825,-16302,-233,-62,31,35
2,60,107770,-1832,-16285,-239,-65,39,35
2,61,107775,-1840,-16305,-61,-67,52,37
2,62,107780,-1821,-16248,-9,-68,59,39
2,63,107785,-1835,-16273,14,-67,63,36
2,64,107790,-1900,-16229,53,-70,58,36
2,65,107795,-1959,-16216,148,-73,49,37
2,66,107800,-1955,-16218,155,-74,34,41
2,67,107805,-1975,-16226,149,-77,17,40
2,68,107810,-2032,-16180,60,-78,-7,37
2,69,107815,-2038,-16219,-70,-79,-27,37
2,70,107820,-1988,-16158,-165,-81,-37,39
2,71,107825,-1885,-16123,-268,-83,-42,39
2,72,107830,-1812,-16133,-394,-83,-36,38
2,73,107835,-1747,-16128,-520,-81,-34,38
2,74,107840,-1715,-16103,-538,-81,-27,38
2,75,107845,-1712,-16086,-572,-82,-19,36
2,76,107850,-1681,-16086,-497,-76,-13,40
2,77,107855,-1662,-16110,-454,-74,-10,44
2,78,107860,-1554,-16135,-551,-75,-4,44
2,79,107865,-1520,-16171,-576,-75,7,45
2,80,107870,-1449,-16266,-529,-73,22,47
2,81,107875,-1432,-16269,-434,-67,42,49
2,82,107880,-1409,-16288,-424,-69,62,52
2,83,107885,-1383,-16235,-449,-67,83,56
2,84,107890,-1365,-16211,-501,-67,103,55
2,85,107895,-1392,-16184,-520,-65,119,56
2,86,107900,-1407,-16177,-574,-63,128,61
2,87,107905,-1425,-16163,-570,-62,132,61
2,88,107910,-1430,-16155,-506,-60,135,65
2,89,107915,-1408,-16206,-424,-59,128,67
2,90,107920,-1437,-16234,-368,-59,123,69
2,91,107925,-1467,-16250,-449,-59,115,72
2,92,107930,-1472,-16277,-452,-57,98,72
2,93,107935,-1444,-16314,-330,-57,81,73
2,94,107940,-1476,-16302,-260,-56,56,74
2,95,107945,-1500,-16328,-209,-56,29,77
2,96,107950,-1493,-16310,-230,-57,2,78
2,97,107955,-1596,-16257,-252,-56,-21,79
2,98,107960,-1682,-16282,-252,-56,-48,81
2,99,107965,-1694,-16260,-267,-59,-78,78
2,100,107970,-1681,-16186,-320,-58,-103,78
2,101,107975,-1699,-16229,-331,-57,-111,81
2,102,107980,-1761,-16249,-349,-57,-116,78
2,103,107985,-1779,-16270,-401,-56,-131,77
2,104,107990,-1844,-16242,-491,-53,-143,77
2,105,107995,-1879,-16248,-533,-55,-142,75
2,106,108000,-1947,-16211,-492,-55,-138,77
2,107,108005,-1961,-16245,-540,-53,-128,76
2,108,108010,-1951,-16323,-614,-49,-114,75
2,109,108015,-1984,-16400,-610,-48,-88,76
2,110,108020,-2078,-16410,-538,-46,-60,73
2,111,108025,-2076,-16423,-509,-45,-32,72
2,112,108030,-2094,-16413,-584,-42,-4,71
2,113,108035,-2100,-16441,-555,-41,26,70
2,114,108040,-2065,-16483,-410,-42,54,69
2,115,108045,-2032,-16482,-359,-42,75,67
2,116,108050,-2001,-16507,-426,-40,85,68
2,117,108055,-2012,-16467,-456,-37,97,63
2,118,108060,-2080,-16398,-481,-40,104,62
2,119,108065,-2123,-16358,-486,-39,104,61
2,120,108070,-1971,-16320,-582,-37,104,62
2,121,108075,-1850,-16324,-641,-33,108,62
2,122,108080,-1857,-16313,-632,-33,113,60
2,123,108085,-1912,-16290,-656,-30,107,58
2,124,108090,-1911,-16190,-688,-31,105,58
2,125,108095,-1834,-16209,-716,-27,104,59
2,126,108100,-1806,-16227,-700,-24,105,60
2,127,108105,-1868,-16261,-604,-24,103,58
2,128,108110,-1922,-16224,-549,-21,87,57
2,129,108115,-1949,-16201,-479,-22,69,56
2,130,108120,-1954,-16223,-397,-18,59,57
2,131,108125,-1970,-16262,-367,-18,41,57
2,132,108130,-1979,-16336,-321,-18,16,56
2,133,108135,-1952,-16373,-316,-21,1,54
2,134,108140,-1910,-16380,-346,-19,-14,55
2,135,108145,-1955,-16352,-363,-18,-28,55
2,136,108150,-2039,-16288,-412,-19,-41,53
2,137,108155,-2073,-16250,-461,-18,-54,54
2,138,108160,-2071,-16196,-486,-18,-63,54
2,139,108165,-2014,-16178,-587,-15,-68,53
2,140,108170,-1940,-16206,-710,-15,-62,52
2,141,108175,-1897,-16198,-771,-13,-53,50
2,142,108180,-1904,-16260,-768,-11,-39,48
2,143,108185,-1914,-16248,-658,-9,-27,48
2,144,108190,-1857,-16288,-677,-3,-18,51
2,145,108195,-1773,-16253,-799,-2,-4,52
2,146,108200,-1811,-16242,-822,-1,12,50
2,147,108205,-1743,-16141,-582,-3,21,53
2,148,108210,-1779,-16155,-573,-3,24,54
2,149,108215,-1851,-16232,-680,4,21,54
2,150,108220,-1919,-16344,-747,7,20,52
2,151,108225,-1894,-16359,-755,7,8,50
2,152,108230,-1795,-16317,-520,9,-12,51
2,153,108235,-1585,-16338,-286,8,-29,55
2,154,108240,-1548,-16312,-201,7,-40,55
2,155,108245,-1653,-16373,-193,8,-53,56
2,156,108250,-1883,-16388,-236,9,-75,56
2,157,108255,-2031,-16416,-257,7,-102,54
2,158,108260,-2002,-16438,-224,7,-129,54
2,159,108265,-1950,-16444,-173,4,-145,53
2,160,108270,-1931,-16446,-121,3,-160,54
2,161,108275,-1957,-16425,-148,6,-178,52
2,162,108280,-1963,-16434,-244,1,-189,52
2,163,108285,-2042,-16486,-366,4,-195,51
2,164,108290,-2175,-16538,-396,4,-200,51
2,165,108295,-2240,-16533,-530,4,-200,46
2,166,108300,-2186,-16452,-602,4,-199,46
2,167,108305,-2154,-16394,-576,4,-194,49
2,168,108310,-2072,-16389,-508,2,-180,44
2,169,108315,-2139,-16385,-595,7,-162,43
2,170,108320,-2195,-16392,-797,11,-147,43
2,171,108325,-2237,-16358,-868,9,-135,41
2,172,108330,-2181,-16342,-858,13,-117,39
2,173,108335,-2166,-16330,-799,16,-97,36
2,174,108340,-2115,-16333,-743,17,-75,36
2,175,108345,-2115,-16363,-714,16,-56,34
2,176,108350,-2099,-16359,-713,23,-39,34
2,177,108355,-2124,-16406,-607,24,-27,35
2,178,108360,-2123,-16426,-492,24,-14,33
2,179,108365,-2148,-16459,-489,24,-1,31
2,180,108370,-2113,-16446,-530,24,10,32
2,181,108375,-2109,-16433,-536,24,19,28
2,182,108380,-2068,-16388,-527,28,26,28
2,183,108385,-2047,-16292,-502,28,27,29
2,184,108390,-2050,-16308,-550,28,27,27
2,185,108395,-2079,-16276,-560,29,28,25
2,186,108400,-2095,-16274,-569,32,24,25
2,187,108405,-2076,-16260,-516,32,16,26
2,188,108410,-2053,-16263,-431,31,12,23
2,189,108415,-2040,-16221,-502,35,6,18
2,190,108420,-2128,-16230,-586,34,3,20
2,191,108425,-2146,-16172,-695,35,-6,20
2,192,108430,-2105,-16123,-656,38,-14,18
2,193,108435,-2060,-16064,-642,37,-23,16
2,194,108440,-2054,-16086,-598,39,-33,16
2,195,108445,-2019,-16120,-642,42,-37,15
2,196,108450,-2039,-16212,-655,43,-44,11
2,197,108455,-2015,-16292,-583,44,-46,13
2,198,108460,-2019,-16334,-519,44,-46,9
2,199,108465,-2024,-16327,-385,46,-51,10
2,200,108470,-2114,-16307,-235,45,-59,7
2,201,108475,-2086,-16345,-201,42,-62,7
2,202,108480,-2244,-16408,-215,46,-70,10
2,203,108485,-2324,-16471,-319,44,-74,6
2,204,108490,-2309,-16479,-456,43,-83,2
2,205,108495,-2317,-16380,-410,44,-83,0
2,206,108500,-2187,-16379,-344,43,-69,0
2,207,108505,-2119,-16424,-445,48,-55,-1
2,208,108510,-2177,-16380,-549,48,-37,-5
2,209,108515,-2182,-16368,-583,46,-23,-7
2,210,108520,-2174,-16376,-557,44,-10,-7
2,211,108525,-2096,-16359,-467,49,4,-7
2,212,108530,-2025,-16377,-443,48,18,-8
2,213,108535,-2063,-16404,-419,48,28,-10
2,214,108540,-2136,-16353,-340,53,32,-10
2,215,108545,-2140,-16441,-384,52,31,-9
2,216,108550,-2140,-16400,-411,49,28,-10
2,217,108555,-2186,-16372,-366,49,25,-14
2,218,108560,-2116,-16408,-270,49,19,-13
2,219,108565,-2119,-16389,-240,50,13,-12
2,220,108570,-2123,-16384,-263,51,9,-15
2,221,108575,-2070,-16397,-290,51,4,-16
2,222,108580,-2107,-16378,-319,50,0,-19
2,223,108585,-2123,-16364,-282,45,-3,-22
2,224,108590,-2081,-16369,-295,47,-11,-22
2,225,108595,-2052,-16416,-330,51,-13,-19
2,226,108600,-2065,-16410,-305,49,-16,-20
2,227,108605,-2106,-16456,-335,48,-20,-23
2,228,108610,-2162,-16448,-352,48,-26,-27
2,229,108615,-2148,-16495,-301,46,-31,-27
2,230,108620,-2156,-16514,-269,48,-32,-28
2,231,108625,-2169,-16550,-244,46,-40,-29
2,232,108630,-2216,-16542,-251,46,-44,-29
2,233,108635,-2194,-16532,-283,46,-44,-31
2,234,108640,-2135,-16558,-318,47,-42,-31
2,235,108645,-2135,-16574,-257,46,-41,-29
2,236,108650,-2176,-16535,-225,45,-37,-34
2,237,108655,-2160,-16501,-199,42,-31,-38
2,238,108660,-2169,-16496,-270,44,-25,-39
2,239,108665,-2201,-16464,-346,45,-18,-35
2,240,108670,-2214,-16396,-320,43,-10,-38
2,241,108675,-2178,-16395,-263,40,-8,-41
2,242,108680,-2167,-16359,-240,39,-7,-44
2,243,108685,-2172,-16359,-209,40,-3,-40
2,244,108690,-2140,-16330,-171,41,0,-43
2,245,108695,-2085,-16349,-218,40,2,-43
2,246,108700,-2093,-16348,-311,40,8,-43
2,247,108705,-2038,-16340,-264,38,16,-44
2,248,108710,-2021,-16301,-259,38,18,-46
2,249,108715,-2021,-16341,-285,37,20,-45
2,250,108720,-2002,-16333,-268,36,22,-47
2,251,108725,-1997,-16324,-248,35,21,-48
2,252,108730,-1985,-16329,-281,34,22,-47
2,253,108735,-1967,-16295,-285,34,23,-46
2,254,108740,-1953,-16287,-339,33,21,-47
2,255,108745,-1964,-16288,-302,33,20,-48
2,256,108750,-1895,-16300,-280,33,14,-46
2,257,108755,-1890,-16340,-233,31,11,-48
2,258,108760,-1959,-16354,-204,29,7,-48
2,259,108765,-1994,-16316,-236,30,4,-47
2,260,108770,-1998,-16319,-274,28,0,-48
2,261,108775,-1953,-16298,-263,25,-7,-48
2,262,108780,-1880,-16314,-275,26,-9,-44
2,263,108785,-1915,-16318,-314,25,-12,-46
2,264,108790,-1909,-16281,-310,24,-14,-48
2,265,108795,-1889,-16298,-255,23,-19,-46
2,266,108800,-1928,-16326,-179,22,-28,-45
2,267,108805,-1890,-16314,-204,19,-35,-45
2,268,108810,-1905,-16336,-252,19,-42,-43
2,269,108815,-1934,-16290,-239,17,-47,-42
2,270,108820,-1968,-16260,-246,16,-52,-43
2,271,108825,-1983,-16280,-315,14,-55,-46
2,272,108830,-1926,-16274,-355,16,-50,-40
2,273,108835,-1893,-16273,-362,13,-47,-43
2,274,108840,-1922,-16258,-349,13,-44,-45
2,275,108845,-1919,-16288,-317,11,-41,-43
2,276,108850,-1989,-16329,-295,13,-40,-45
2,277,108855,-2013,-16291,-289,11,-39,-42
2,278,108860,-1989,-16301,-294,7,-38,-42
2,279,108865,-2013,-16329,-265,9,-32,-41
2,280,108870,-2025,-16307,-278,7,-31,-42
2,281,108875,-1999,-16304,-257,8,-29,-41
2,282,108880,-1986,-16288,-207,6,-27,-44
2,283,108885,-2011,-16307,-215,5,-25,-42
2,284,108890,-2052,-16293,-254,3,-22,-41
2,285,108895,-2095,-16275,-260,2,-23,-40
2,286,108900,-2036,-16269,-375,2,-18,-40
2,287,108905,-2050,-16272,-359,1,-11,-42
2,288,108910,-2007,-16319,-246,1,-7,-43
2,289,108915,-1949,-16367,-206,-3,1,-40
2,290,108920,-1919,-16344,-172,-4,8,-42
2,291,108925,-1959,-16349,-229,-2,11,-42
2,292,108930,-2003,-16346,-236,-5,14,-40
2,293,108935,-1972,-16309,-236,-8,12,-40
2,294,108940,-1900,-16286,-226,-6,7,-37
2,295,108945,-1880,-16270,-209,-6,6,-38
2,296,108950,-1828,-16277,-198,-9,1,-39
2,297,108955,-1800,-16293,-211,-9,-4,-37
2,298,108960,-1755,-16285,-218,-12,-4,-37
2,299,108965,-1783,-16301,-158,-14,-6,-38
2,300,108970,-1774,-16260,-151,-16,-15,-35
2,301,108975,-1825,-16302,-141,-15,-26,-33
2,302,108980,-1820,-16308,-135,-16,-39,-29
2,303,108985,-1801,-16288,-108,-17,-49,-27
2,304,108990,-1844,-16280,-110,-20,-59,-27
2,305,108995,-1881,-16291,-130,-22,-67,-25
2,306,109000,-1943,-16340,-141,-21,-75,-26
2,307,109005,-1953,-16347,-173,-23,-80,-27
2,308,109010,-2020,-16337,-234,-26,-84,-26
2,309,109015,-2039,-16301,-206,-24,-91,-24
2,310,109020,-2016,-16308,-213,-23,-99,-26
2,311,109025,-1984,-16273,-434,-26,-104,-26
2,312,109030,-1974,-16313,-401,-29,-93,-24
2,313,109035,-2030,-16276,-146,-28,-88,-24
2,314,109040,-1934,-16357,-345,-27,-98,-25
2,315,109045,-1927,-16304,-448,-23,-98,-25
2,316,109050,-1947,-16305,-352,-28,-93,-24
2,317,109055,-1946,-16329,-291,-30,-96,-24
2,318,109060,-1943,-16281,-272,-28,-95,-25
2,319,109065,-1893,-16284,-248,-27,-97,-21
2,320,109070,-1894,-16270,-236,-28,-98,-21
2,321,109075,-1874,-16308,-141,-26,-105,-22
2,322,109080,-1882,-16305,-104,-28,-112,-23
2,323,109085,-1869,-16303,-96,-26,-118,-21
2,324,109090,-1921,-16335,-203,-27,-127,-19
2,325,109095,-1930,-16317,-155,-29,-138,-21
2,326,109100,-1933,-16356,-84,-31,-150,-20
2,327,109105,-1968,-16400,-74,-31,-163,-19
2,328,109110,-2016,-16393,-149,-31,-174,-20
2,329,109115,-2072,-16362,-260,-30,-177,-20
2,330,109120,-2078,-16374,-305,-30,-173,-18
2,331,109125,-2067,-16384,-351,-29,-170,-21
2,332,109130,-2095,-16386,-395,-28,-162,-21
2,333,109135,-2057,-16383,-423,-29,-146,-19
2,334,109140,-2047,-16348,-479,-28,-122,-21
2,335,109145,-2013,-16311,-542,-24,-97,-20
2,336,109150,-1989,-16291,-631,-22,-67,-20
2,337,109155,-2015,-16283,-593,-22,-39,-18
2,338,109160,-1976,-16276,-508,-22,-13,-18
2,339,109165,-1918,-16255,-491,-17,14,-18
2,340,109170,-1926,-16256,-378,-17,38,-16
2,341,109175,-1956,-16283,-375,-14,54,-17
2,342,109180,-1942,-16310,-276,-13,62,-14
2,343,109185,-1887,-16291,-194,-13,65,-14
2,344,109190,-1848,-16265,-122,-13,63,-16
2,345,109195,-1866,-16259,-132,-12,58,-15
2,346,109200,-1865,-16291,-66,-12,49,-15
2,347,109205,-1882,-16311,-18,-11,35,-12
2,348,109210,-1910,-16368,32,-13,15,-11
2,349,109215,-1880,-16374,18,-9,-6,-12
2,350,109220,-1916,-16335,-8,-14,-21,-12
2,351,109225,-1953,-16344,3,-17,-44,-12
2,352,109230,-1933,-16318,-2,-16,-66,-14
2,353,109235,-1872,-16340,45,-17,-92,-11
2,354,109240,-1862,-16410,-34,-16,-95,-10
2,355,109245,-1855,-16454,-127,-17,-94,-11
2,356,109250,-1879,-16433,-250,-18,-91,-11
2,357,109255,-1878,-16401,-319,-19,-87,-13
2,358,109260,-1863,-16362,-301,-16,-82,-9
2,359,109265,-1813,-16322,-280,-14,-76,-8
2,360,109270,-1826,-16319,-272,-13,-68,-5
2,361,109275,-1833,-16340,-254,-12,-60,-5
2,362,109280,-1839,-16335,-275,-13,-51,-3
2,363,109285,-1894,-16413,-333,-10,-38,-5
2,364,109290,-1868,-16355,-404,-7,-27,-4
2,365,109295,-1812,-16269,-423,-7,-23,-3
2,366,109300,-1839,-16228,-389,-5,-15,-4
2,367,109305,-1897,-16159,-309,-4,-18,0
2,368,109310,-1937,-16196,-270,-4,-22,0
2,369,109315,-1958,-16156,-277,-4,-28,0
2,370,109320,-1966,-16145,-218,-1,-32,2
2,371,109325,-1917,-16113,-132,1,-41,1
2,372,109330,-1923,-16055,-72,-3,-52,4
2,373,109335,-1981,-16022,13,-1,-56,4
2,374,109340,-2026,-15965,-23,-1,-60,3
2,375,109345,-2013,-15844,-96,-1,-65,10
2,376,109350,-1909,-15811,-80,0,-63,17
2,377,109355,-1779,-15828,-164,-2,-57,18
2,378,109360,-1904,-15771,187,-6,-52,17
2,379,109365,-2151,-15808,129,-6,-70,18
2,380,109370,-2433,-15781,-338,-1,-92,16
2,381,109375,-2607,-15814,-798,9,-112,20
2,382,109380,-2149,-15886,-1290,10,-130,30
2,383,109385,-1473,-15979,-810,4,-134,48
2,384,109390,-1198,-16102,-164,7,-127,52
2,385,109395,-1791,-16069,-331,15,-124,45
2,386,109400,-2528,-16065,-875,24,-110,47
2,387,109405,-2676,-16046,-1402,26,-77,62
2,388,109410,-2056,-16192,-1128,23,-14,87
2,389,109415,-1679,-16430,-232,26,57,101
2,390,109420,-1833,-16575,391,31,115,104
2,391,109425,-2532,-16471,267,33,161,99
2,392,109430,-3019,-16394,-85,37,205,113
2,393,109435,-2995,-16434,-302,36,247,134
2,394,109440,-2663,-16474,-41,33,273,151
2,395,109445,-2511,-16498,346,28,278,157
2,396,109450,-2734,-16397,436,28,271,160
2,397,109455,-2771,-16262,144,33,271,172
2,398,109460,-2790,-16179,-66,31,284,188
2,399,109465,-2706,-16218,185,24,280,205
2,400,109470,-2892,-16187,525,22,246,214
2,401,109475,-2962,-16259,546,22,188,227
2,402,109480,-2900,-16228,69,23,139,241
2,403,109485,-2794,-16181,-334,25,118,255
2,404,109490,-2815,-16198,-448,21,114,272
2,405,109495,-2921,-16167,-440,24,110,285
2,406,109500,-2875,-16172,-514,25,105,298
2,407,109505,-2842,-16102,-755,25,119,310
2,408,109510,-2907,-16028,-300,29,145,324
2,409,109515,-3003,-16034,-452,25,130,341
2,410,109520,-3129,-15959,-218,29,123,354
2,411,109525,-3144,-16025,-252,30,99,375
2,412,109530,-2956,-16138,-148,29,90,391
2,413,109535,-2976,-16186,-149,29,87,403
2,414,109540,-3048,-16206,-255,29,89,419
2,415,109545,-3208,-16135,-424,30,96,434
2,416,109550,-3270,-16160,-540,29,104,454
2,417,109555,-3098,-16146,-617,29,121,473
2,418,109560,-2787,-16212,-619,32,163,490
2,419,109565,-2895,-16196,-858,36,206,499
2,420,109570,-3365,-16165,-985,39,248,510
2,421,109575,-3574,-16128,-920,41,273,525
2,422,109580,-3398,-16050,-803,37,290,543
2,423,109585,-3091,-16028,-607,36,318,562
2,424,109590,-3039,-16111,-467,41,354,578
2,425,109595,-3318,-16077,-420,42,374,586
2,426,109600,-3587,-15965,-282,38,341,612
2,427,109605,-3350,-15939,-19,32,313,626
2,428,109610,-3288,-16054,198,32,280,640
2,429,109615,-3503,-16096,192,30,228,650
2,430,109620,-3670,-16028,-72,28,163,658
2,431,109625,-3631,-15983,-150,22,102,669
2,432,109630,-3579,-16011,-4,19,54,683
2,433,109635,-3640,-16022,172,17,12,693
2,434,109640,-3767,-16008,117,18,-31,698
2,435,109645,-3863,-16054,-59,14,-71,710
2,436,109650,-3986,-16003,-44,11,-99,715
2,437,109655,-4172,-15973,14,9,-126,721
2,438,109660,-4196,-15933,-72,7,-145,725
2,439,109665,-4098,-15873,-333,10,-161,731
2,440,109670,-4211,-15900,-371,14,-165,739
2,441,109675,-4469,-15955,-295,13,-170,744
2,442,109680,-4596,-16012,-316,12,-169,752
2,443,109685,-4239,-16132,-629,14,-142,765
2,444,109690,-3939,-16238,-989,19,-81,773
2,445,109695,-4242,-16293,-728,21,10,772
2,446,109700,-4788,-16143,-411,22,51,766
2,447,109705,-5029,-16056,-514,25,70,771
2,448,109710,-4785,-16012,-668,29,102,775
2,449,109715,-4657,-16125,-431,27,149,781
2,450,109720,-4809,-16284,-48,26,172,782
2,451,109725,-5083,-16219,-112,29,159,770
2,452,109730,-5152,-16123,-268,28,129,767
2,453,109735,-5037,-16044,-343,28,116,771
2,454,109740,-4927,-16015,-174,28,112,773
2,455,109745,-4978,-16018,-92,27,103,773
2,456,109750,-5114,-16015,-193,27,90,763
2,457,109755,-5205,-15925,-305,26,76,757
2,458,109760,-5293,-15806,-261,28,59,752
2,459,109765,-5333,-15719,14,28,31,745
2,460,109770,-5331,-15664,267,27,-11,741
2,461,109775,-5309,-15656,415,23,-67,733
2,462,109780,-5331,-15660,414,19,-124,724
2,463,109785,-5324,-15729,305,16,-173,717
2,464,109790,-5227,-15788,180,14,-216,707
2,465,109795,-5250,-15788,-19,14,-242,698
2,466,109800,-5243,-15687,-183,9,-255,686
2,467,109805,-5289,-15630,-344,12,-251,674
2,468,109810,-5312,-15647,-400,16,-230,665
2,469,109815,-5272,-15618,-516,16,-192,657
2,470,109820,-5231,-15665,-755,18,-144,643
2,471,109825,-5356,-15667,-682,21,-75,630
2,472,109830,-5410,-15647,-792,21,-12,621
2,473,109835,-5419,-15693,-775,18,64,609
2,474,109840,-5321,-15717,-825,23,133,595
2,475,109845,-5263,-15755,-635,23,204,584
2,476,109850,-5229,-15572,-1157,25,266,572
2,477,109855,-5519,-16061,-451,25,403,560
2,478,109860,-5846,-15443,234,10,430,516
2,479,109865,-5682,-15687,357,8,336,532
2,480,109870,-5229,-15778,-61,10,250,521
2,481,109875,-5198,-15654,-293,2,252,489
2,482,109880,-5349,-15463,-374,2,279,471
2,483,109885,-5606,-15665,102,2,317,461
2,484,109890,-5524,-15474,-74,-8,285,433
2,485,109895,-5365,-15579,-135,-13,242,425
2,486,109900,-5412,-15510,70,-13,206,403
2,487,109905,-5640,-15460,248,-20,157,380
2,488,109910,-5762,-15457,-34,-24,88,362
2,489,109915,-5726,-15418,-292,-25,29,342
2,490,109920,-5615,-15394,-365,-32,-8,324
2,491,109925,-5546,-15449,-287,-39,-29,305
2,492,109930,-5599,-15371,-154,-39,-48,279
2,493,109935,-5672,-15315,-229,-36,-74,257
2,494,109940,-5758,-15368,-273,-37,-97,235
2,495,109945,-5820,-15361,-173,-44,-115,214
2,496,109950,-5797,-15361,-56,-49,-126,195
2,497,109955,-5788,-15393,-141,-51,-128,172
2,498,109960,-5823,-15440,-340,-53,-115,149
2,499,109965,-5862,-15487,-701,-56,-93,128
2,500,109970,-5795,-15427,-576,-57,-30,77
2,501,109975,-5731,-15478,-529,-58,16,58
2,502,109980,-5727,-15456,-638,-54,57,36
2,503,109985,-5783,-15454,-603,-53,91,12
2,504,109990,-5813,-15453,-673,-53,113,-14
2,505,109995,-5753,-15489,-658,-54,133,-35
2,506,110000,-5664,-15425,-691,-59,153,-58
2,507,110005,-5583,-15424,-679,-54,176,-80
2,508,110010,-5647,-15343,-405,-54,200,-106
2,509,110015,-5656,-15237,-275,-54,186,-129
2,510,110020,-5589,-15357,-362,-56,158,-152
2,511,110025,-5468,-15285,-362,-58,140,-177
2,512,110030,-5475,-15317,-333,-56,119,-198
2,513,110035,-5473,-15347,-231,-53,98,-221
2,514,110040,-5455,-15332,-192,-56,66,-245
2,515,110045,-5418,-15321,-187,-58,26,-271
2,516,110050,-5355,-15344,-140,-61,-14,-293
2,517,110055,-5263,-15368,-83,-62,-51,-310
2,518,110060,-5178,-15431,-136,-63,-79,-331
2,519,110065,-5144,-15487,-116,-64,-101,-356
2,520,110070,-5161,-15490,-193,-65,-123,-379
2,521,110075,-5149,-15490,-333,-66,-126,-401
2,522,110080,-5126,-15518,-386,-65,-121,-419
2,523,110085,-5081,-15523,-477,-63,-110,-439
2,524,110090,-4993,-15563,-512,-64,-101,-460
2,525,110095,-5000,-15511,-556,-63,-93,-481
2,526,110100,-4970,-15471,-668,-61,-79,-500
2,527,110105,-4940,-15456,-768,-60,-64,-522
2,528,110110,-4839,-15441,-782,-56,-49,-540
2,529,110115,-4800,-15423,-661,-54,-37,-559
2,530,110120,-4780,-15392,-611,-52,-23,-579
2,531,110125,-4833,-15409,-510,-49,-16,-597
2,532,110130,-4827,-15433,-501,-50,-15,-617
2,533,110135,-4762,-15441,-400,-47,-22,-636
2,534,110140,-4670,-15454,-311,-43,-35,-651
2,535,110145,-4640,-15432,-272,-40,-53,-671
2,536,110150,-4624,-15480,-350,-41,-73,-690
2,537,110155,-4566,-15503,-355,-40,-98,-707
2,538,110160,-4513,-15612,-237,-41,-128,-724
2,539,110165,-4509,-15628,-117,-42,-167,-741
2,540,110170,-4444,-15619,-129,-37,-205,-757
2,541,110175,-4426,-15587,-120,-37,-243,-776
2,542,110180,-4445,-15663,147,-42,-279,-793
2,543,110185,-4380,-15612,60,-35,-333,-814
2,544,110190,-4313,-15645,-703,-38,-374,-825
2,545,110195,-4349,-15757,-573,-52,-355,-837
2,546,110200,-4450,-15670,420,-50,-342,-854
2,547,110205,-4272,-15845,119,-43,-391,-868
2,548,110210,-4127,-15796,-686,-36,-420,-888
2,549,110215,-4268,-15755,-579,-38,-397,-906
2,550,110220,-4467,-15818,-292,-48,-382,-915
2,551,110225,-4452,-15927,-488,-44,-381,-926
2,552,110230,-4212,-15891,-772,-37,-374,-944
2,553,110235,-4178,-15969,-760,-37,-351,-959
2,554,110240,-4386,-15931,-472,-35,-329,-976
2,555,110245,-4457,-15882,-362,-30,-327,-990
2,556,110250,-4290,-15909,-557,-30,-324,-1001
2,557,110255,-4121,-15955,-577,-28,-303,-1013
2,558,110260,-4161,-16029,-371,-27,-287,-1026
2,559,110265,-4170,-16091,-329,-26,-286,-1041
2,560,110270,-4089,-16085,-416,-23,-284,-1057
2,561,110275,-3871,-16116,-395,-22,-277,-1068
2,562,110280,-3707,-16157,-172,-22,-262,-1075
2,563,110285,-3646,-16174,-85,-21,-253,-1084
2,564,110290,-3642,-16193,-190,-18,-247,-1098
2,565,110295,-3592,-16170,-315,-15,-243,-1108
2,566,110300,-3483,-16229,-358,-15,-240,-1118
2,567,110305,-3355,-16292,-210,-12,-243,-1125
2,568,110310,-3232,-16313,-108,-7,-256,-1133
2,569,110315,-3141,-16311,-97,-7,-268,-1143
2,570,110320,-3064,-16325,-75,-6,-273,-1149
2,571,110325,-2956,-16398,-49,-7,-279,-1156
2,572,110330,-2777,-16383,-20,-6,-287,-1158
2,573,110335,-2631,-16382,-91,-3,-301,-1167
2,574,110340,-2557,-16385,-171,-3,-301,-1174
2,575,110345,-2523,-16401,-156,1,-311,-1176
2,576,110350,-2398,-16418,-245,1,-322,-1178
2,577,110355,-2235,-16452,-198,2,-328,-1180
2,578,110360,-2117,-16390,-205,6,-335,-1183
2,579,110365,-2031,-16420,-144,8,-336,-1186
2,580,110370,-1945,-16401,-226,12,-338,-1185
2,581,110375,-1790,-16493,-221,14,-335,-1182
2,582,110380,-1639,-16517,-138,15,-324,-1182
2,583,110385,-1482,-16573,-159,17,-315,-1182
2,584,110390,-1331,-16567,-160,16,-306,-1180
2,585,110395,-1173,-16603,-164,22,-295,-1176
2,586,110400,-1051,-16588,-101,25,-282,-1171
2,587,110405,-898,-16650,-139,26,-274,-1167
2,588,110410,-768,-16709,-155,27,-270,-1164
2,589,110415,-710,-16704,-194,30,-266,-1155
2,590,110420,-648,-16664,-185,30,-273,-1147
2,591,110425,-533,-16603,-218,33,-281,-1142
2,592,110430,-344,-16632,-185,36,-295,-1133
2,593,110435,-197,-16738,271,36,-312,-1127
2,594,110440,-16,-16503,271,42,-384,-1127
2,595,110445,142,-16726,-672,44,-427,-1105
2,596,110450,158,-16803,-142,45,-386,-1103
2,597,110455,101,-16647,359,44,-393,-1094
2,598,110460,318,-17000,777,45,-447,-1073
2,599,110465,425,-16818,681,42,-527,-1076
2,600,110470,8857,-19150,3013,35,-590,-1063
2,601,110492,28399,-11027,-32768,-147,-9854,1266
2,602,110493,32767,-30584,-25772,-630,-2612,1598
2,603,110494,32767,-30584,-25772,-630,-2612,1598
2,604,110495,32767,-30584,-25772,-630,-2612,1598
2,605,110496,32767,-30584,-25772,-630,-2612,1598
2,606,110500,-10738,-20257,19863,-607,3822,-162
2,607,110505,-27679,-6592,15958,18,2200,-537
2,608,110510,-10074,-15699,-17662,145,-288,728
2,609,110515,15466,-21512,-15437,38,235,744
2,610,110520,10709,-18060,8822,-379,363,129
2,611,110525,-3815,-14605,3879,-294,-107,-16
2,612,110530,-12357,-14250,-7153,82,821,345
2,613,110535,-4193,-19297,-9157,172,2486,598
2,614,110540,5369,-16404,-1971,50,2998,400
2,615,110545,6249,-18730,6662,-178,2249,355
2,616,110550,-1569,-17549,6879,-76,1489,166
2,617,110555,-7553,-15281,2557,103,1582,131
2,618,110560,-3505,-14655,-2266,56,1550,313
2,619,110565,3092,-17319,-1096,-62,1447,527
2,620,110570,3755,-19689,5885,-155,1335,426
2,621,110575,-1231,-16465,7834,-102,802,188
2,622,110580,-3579,-16456,3831,-45,173,259
2,623,110585,-1475,-15970,-1146,-49,-63,347
2,624,110590,1344,-16972,-1098,-81,114,409
2,625,110595,1343,-17668,2474,-134,173,370
2,626,110600,-588,-17301,3840,-135,-80,301
2,627,110605,-1569,-17006,3611,-100,-448,296
2,628,110610,-510,-16577,-990,-91,-774,320
2,629,110615,481,-16795,-3482,-88,-671,351
2,630,110620,-335,-16836,-536,-102,-386,359
2,631,110625,-1208,-16973,2030,-115,-357,359
2,632,110630,-931,-16866,637,-103,-529,350
2,633,110635,-334,-16662,-1911,-79,-589,349
2,634,110640,-743,-16575,-154,-85,-502,360
2,635,110645,-1177,-16908,-996,-99,-508,362
2,636,110650,-1456,-16412,-1261,-66,-405,349
2,637,110655,-1379,-16599,-602,-40,-274,362
2,638,110660,-848,-16546,-760,-30,-211,347
2,639,110665,-898,-16330,-896,-30,-168,333
2,640,110670,-1398,-16436,-907,-22,-121,341
2,641,110675,-1744,-16331,-777,-13,-67,339
2,642,110680,-1619,-16375,-692,-3,-14,345
2,643,110685,-1168,-16456,-1101,3,28,342
2,644,110690,-1150,-16466,-681,9,81,337
2,645,110695,-1446,-16451,-548,7,107,333
2,646,110700,-1629,-16379,-334,14,138,328
2,647,110705,-1216,-16460,-387,28,201,332
2,648,110710,-1225,-16437,104,33,215,325
2,649,110715,-1347,-16450,359,39,189,318
2,650,110720,-1441,-16405,317,43,161,310
2,651,110725,-1393,-16397,393,41,141,314
2,652,110730,-1272,-16408,405,43,106,317
2,653,110735,-1266,-16373,389,45,49,311
2,654,110740,-1358,-16359,243,43,-10,306
2,655,110745,-1439,-16261,185,46,-54,304
2,656,110750,-1425,-16264,152,46,-83,305
2,657,110755,-1360,-16323,161,48,-105,304
2,658,110760,-1353,-16249,8,52,-129,301
2,659,110765,-1549,-16291,-154,53,-150,298
2,660,110770,-1642,-16360,-384,56,-162,295
2,661,110775,-1700,-16329,-286,65,-158,292
2,662,110780,-1616,-16318,-509,66,-163,290
2,663,110785,-1559,-16313,-476,69,-146,288
2,664,110790,-1611,-16261,-490,77,-123,282
2,665,110795,-1723,-16367,-590,80,-102,279
2,666,110800,-1722,-16165,-837,83,-77,266
2,667,110805,-1739,-16220,-547,91,-45,270
2,668,110810,-1749,-16196,-422,101,-30,268
2,669,110815,-1721,-16166,-518,102,-27,264
2,670,110820,-1725,-16118,-546,105,-22,260
2,671,110825,-1820,-16105,-513,105,-26,255
2,672,110830,-1902,-15989,-403,107,-37,250
2,673,110835,-1912,-15977,-381,110,-43,250
2,674,110840,-1924,-15950,-310,119,-31,248
2,675,110845,-1881,-16005,-301,123,-17,244
2,676,110850,-1952,-16063,-335,126,-14,240
2,677,110855,-1971,-16157,-252,126,-7,235
2,678,110860,-2033,-16203,-181,123,-2,229
2,679,110865,-2090,-16203,-139,123,4,224
2,680,110870,-2171,-16236,6,128,13,225
2,681,110875,-2187,-16284,-56,129,16,219
2,682,110880,-2190,-16311,-164,130,20,213
2,683,110885,-2213,-16343,-132,127,33,209
2,684,110890,-2253,-16351,-33,130,37,203
2,685,110895,-2306,-16347,-241,131,39,199
2,686,110900,-2306,-16269,-440,134,55,196
2,687,110905,-2389,-16221,-350,135,83,190
2,688,110910,-2459,-16227,-277,137,102,186
2,689,110915,-2406,-16226,-457,140,113,178
2,690,110920,-2382,-16190,-490,142,136,176
2,691,110925,-2400,-16179,-474,145,159,171
2,692,110930,-2453,-16199,-459,147,177,165
2,693,110935,-2454,-16194,-527,146,193,159
2,694,110940,-2418,-16192,-486,148,203,153
2,695,110945,-2404,-16258,-258,149,208,151
2,696,110950,-2412,-16274,-109,149,205,146
2,697,110955,-2414,-16336,-114,149,198,140
2,698,110960,-2324,-16364,-7,149,180,137
2,699,110965,-2274,-16406,212,146,155,136
2,700,110970,-2232,-16457,442,143,129,130
2,701,110975,-2173,-16500,485,141,100,124
2,702,110980,-2274,-16537,289,140,67,122
2,703,110985,-2322,-16537,136,135,36,119
2,704,110990,-2321,-16441,68,131,10,116
2,705,110995,-2316,-16420,-114,128,-9,114
2,706,111000,-2229,-16369,-322,130,-22,111
2,707,111005,-2236,-16318,-453,130,-27,107
2,708,111010,-2279,-16287,-528,128,-37,104
2,709,111015,-2312,-16190,-587,126,-45,100
2,710,111020,-2334,-16166,-671,128,-38,97
2,711,111025,-2303,-16153,-687,132,-20,93
2,712,111030,-2285,-16154,-615,132,-3,94
2,713,111035,-2285,-16146,-511,131,13,91
2,714,111040,-2309,-16173,-434,135,28,89
2,715,111045,-2296,-16221,-398,135,40,87
2,716,111050,-2360,-16216,-287,133,47,81
2,717,111055,-2342,-16229,-147,131,44,82
2,718,111060,-2354,-16301,1,129,33,79
2,719,111065,-2373,-16323,109,122,22,73
2,720,111070,-2446,-16398,171,119,0,74
2,721,111075,-2388,-16445,159,113,-10,72
2,722,111080,-2399,-16390,181,108,-21,67
2,723,111085,-2459,-16384,127,105,-28,63
2,724,111090,-2512,-16342,-12,104,-35,61
2,725,111095,-2516,-16267,-127,100,-39,62
2,726,111100,-2444,-16256,-112,96,-34,57
2,727,111105,-2413,-16244,-88,92,-23,55
2,728,111110,-2401,-16232,-119,91,-8,54
2,729,111115,-2426,-16235,-220,88,9,54
2,730,111120,-2403,-16217,-316,87,34,52
2,731,111125,-2438,-16231,-315,88,60,50
2,732,111130,-2434,-16249,-216,84,77,50
2,733,111135,-2381,-16259,-111,83,86,47
2,734,111140,-2359,-16288,-79,79,98,44
2,735,111145,-2399,-16355,-94,77,102,42
2,736,111150,-2404,-16279,-35,73,102,42
2,737,111155,-2411,-16314,-6,70,97,40
2,738,111160,-2435,-16333,29,65,88,38
2,739,111165,-2418,-16345,146,61,79,37
2,740,111170,-2384,-16351,197,56,70,37
2,741,111175,-2363,-16343,189,54,56,37
2,742,111180,-2403,-16350,145,51,44,36
2,743,111185,-2440,-16305,113,45,28,34
2,744,111190,-2541,-16264,120,40,7,32
2,745,111195,-2554,-16270,142,37,-10,28
2,746,111200,-2545,-16237,123,35,-28,25
2,747,111205,-2560,-16302,91,33,-37,27
2,748,111210,-2553,-16358,46,27,-41,22
2,749,111215,-2503,-16376,53,25,-41,21
2,750,111220,-2485,-16347,-60,23,-38,20
2,751,111225,-2525,-16323,-183,18,-28,17
2,752,111230,-2496,-16248,-189,15,-15,13
2,753,111235,-2508,-16207,-127,16,-8,15
2,754,111240,-2525,-16244,-95,11,-1,12
2,755,111245,-2558,-16213,-13,9,1,10
2,756,111250,-2639,-16259,29,9,1,8
2,757,111255,-2649,-16260,43,5,0,6
2,758,111260,-2631,-16272,-24,1,-4,5
2,759,111265,-2527,-16320,-149,-1,-7,5
2,760,111270,-2473,-16340,-135,-5,-9,0
2,761,111275,-2534,-16338,-96,-4,-12,-3
2,762,111280,-2557,-16335,-62,-8,-16,-7
2,763,111285,-2508,-16320,24,-12,-12,-7
2,764,111290,-2491,-16322,6,-12,-8,-7
2,765,111295,-2502,-16306,-14,-16,-1,-8
2,766,111300,-2528,-16312,-48,-20,6,-14
2,767,111305,-2637,-16278,60,-21,12,-16
2,768,111310,-2628,-16239,136,-24,9,-16
2,769,111315,-2545,-16204,188,-27,9,-18
2,770,111320,-2514,-16247,184,-29,9,-19
2,771,111325,-2616,-16289,254,-29,3,-23
2,772,111330,-2637,-16246,220,-34,-4,-25
2,773,111335,-2643,-16250,191,-40,-9,-28
2,774,111340,-2578,-16188,187,-43,-13,-30
2,775,111345,-2626,-16170,232,-46,-18,-35
2,776,111350,-2667,-16153,239,-50,-27,-36
2,777,111355,-2717,-16133,160,-51,-33,-39
2,778,111360,-2751,-16114,142,-55,-35,-43
2,779,111365,-2709,-16135,134,-57,-40,-45
2,780,111370,-2669,-16157,103,-59,-45,-46
2,781,111375,-2670,-16133,18,-63,-45,-49
2,782,111380,-2707,-16173,-21,-63,-42,-53
2,783,111385,-2619,-16148,-62,-67,-37,-55
2,784,111390,-2561,-16145,-46,-67,-27,-57
2,785,111395,-2550,-16215,-21,-66,-17,-62
2,786,111400,-2593,-16247,20,-68,-7,-64
2,787,111405,-2572,-16250,50,-69,-2,-68
2,788,111410,-2611,-16256,103,-73,3,-69
2,789,111415,-2579,-16248,93,-72,12,-71
2,790,111420,-2620,-16272,47,-76,16,-72
2,791,111425,-2588,-16273,-11,-77,18,-74
2,792,111430,-2570,-16290,12,-76,22,-78
2,793,111435,-2455,-16350,132,-76,31,-78
2,794,111440,-2404,-16401,179,-79,33,-80
2,795,111445,-2428,-16458,166,-79,32,-83
2,796,111450,-2395,-16462,113,-85,29,-83
2,797,111455,-2389,-16421,106,-86,24,-82
2,798,111460,-2346,-16373,92,-85,20,-86
2,799,111465,-2306,-16406,87,-85,14,-84
2,800,111470,-2282,-16405,8,-85,10,-84
2,801,111475,-2324,-16428,29,-87,3,-85
2,802,111480,-2321,-16427,73,-87,-3,-84
2,803,111485,-2320,-16407,201,-86,-11,-88
2,804,111490,-2289,-16393,328,-86,-25,-88
2,805,111495,-2284,-16248,-157,-87,-52,-88
2,806,111500,-2310,-16369,-310,-91,-45,-85
2,807,111505,-2399,-16232,153,-94,-35,-90
2,808,111510,-2295,-16282,210,-91,-58,-85
2,809,111515,-2173,-16168,-164,-87,-84,-89
2,810,111520,-2234,-16191,-171,-88,-82,-92
2,811,111525,-2311,-16193,80,-91,-78,-93
2,812,111530,-2317,-16184,150,-87,-93,-91
2,813,111535,-2246,-16174,-44,-87,-103,-88
2,814,111540,-2192,-16165,-40,-89,-97,-89
2,815,111545,-2276,-16184,127,-85,-99,-90
2,816,111550,-2299,-16153,95,-87,-110,-92
2,817,111555,-2265,-16109,-36,-87,-124,-94
2,818,111560,-2202,-16092,-62,-86,-127,-94
2,819,111565,-2272,-16178,-19,-86,-123,-93
2,820,111570,-2268,-16197,-29,-85,-122,-92
2,821,111575,-2240,-16188,-81,-84,-121,-91
2,822,111580,-2186,-16219,-180,-79,-115,-94
2,823,111585,-2153,-16231,-225,-76,-107,-95
2,824,111590,-2167,-16220,-172,-76,-100,-94
2,825,111595,-2171,-16226,-173,-76,-94,-94
2,826,111600,-2148,-16233,-154,-72,-86,-96
2,827,111605,-2155,-16266,-136,-72,-77,-97
2,828,111610,-2211,-16249,-123,-70,-71,-95
2,829,111615,-2209,-16271,-104,-70,-69,-96
2,830,111620,-2168,-16278,-86,-68,-63,-96
2,831,111625,-2173,-16285,-139,-65,-60,-91
2,832,111630,-2215,-16255,-162,-62,-55,-93
2,833,111635,-2228,-16257,-153,-63,-49,-97
2,834,111640,-2216,-16226,-123,-58,-49,-98
2,835,111645,-2178,-16218,-116,-58,-44,-92
2,836,111650,-2226,-16251,-143,-53,-40,-94
2,837,111655,-2206,-16208,-134,-50,-42,-96
2,838,111660,-2191,-16207,-192,-49,-41,-97
2,839,111665,-2212,-16206,-176,-48,-42,-97
2,840,111670,-2156,-16226,-162,-47,-42,-95
2,841,111675,-2122,-16241,-169,-45,-43,-95
2,842,111680,-2168,-16252,-240,-44,-41,-95
2,843,111685,-2176,-16217,-256,-40,-46,-96
2,844,111690,-2131,-16206,-295,-35,-48,-96
2,845,111695,-2103,-16206,-331,-36,-45,-94
2,846,111700,-2070,-16242,-228,-31,-46,-94
2,847,111705,-2119,-16282,-185,-26,-48,-95
2,848,111710,-2107,-16249,-138,-26,-51,-96
2,849,111715,-2125,-16226,-148,-24,-50,-93
2,850,111720,-2115,-16296,-195,-20,-50,-91
2,851,111725,-2059,-16296,-110,-20,-47,-90
2,852,111730,-2000,-16366,36,-19,-49,-92
2,853,111735,-1939,-16404,168,-16,-49,-93
2,854,111740,-1953,-16454,121,-15,-43,-89
2,855,111745,-2024,-16486,17,-14,-36,-87
2,856,111750,-2096,-16507,-22,-17,-38,-87
2,857,111755,-2126,-16475,-37,-15,-46,-85
2,858,111760,-2077,-16405,-67,-12,-46,-87
2,859,111765,-2055,-16368,-38,-11,-45,-83
2,860,111770,-2075,-16340,-32,-10,-48,-83
2,861,111775,-2080,-16342,-8,-10,-52,-83
2,862,111780,-2133,-16370,-34,-9,-51,-80
2,863,111785,-2129,-16398,-49,-7,-50,-81
2,864,111790,-2132,-16379,-32,-3,-50,-81
2,865,111795,-2133,-16325,-108,-2,-56,-79
2,866,111800,-2164,-16255,-157,-2,-60,-78
2,867,111805,-2173,-16235,-174,4,-63,-77
2,868,111810,-2169,-16286,-151,2,-67,-76
2,869,111815,-2216,-16252,-121,6,-69,-76
2,870,111820,-2214,-16245,-98,10,-72,-74
2,871,111825,-2190,-16227,-84,8,-72,-72
2,872,111830,-2149,-16195,-71,10,-73,-74
2,873,111835,-2079,-16261,-61,11,-71,-75
2,874,111840,-2081,-16311,-74,12,-69,-71
2,875,111845,-2096,-16307,-117,14,-66,-68
2,876,111850,-2116,-16319,-66,18,-66,-69
2,877,111855,-2076,-16328,-52,16,-63,-70
2,878,111860,-2022,-16362,-82,20,-59,-66
2,879,111865,-1961,-16387,2,22,-55,-63
2,880,111870,-1962,-16378,-42,23,-51,-64
2,881,111875,-1965,-16384,-95,25,-51,-61
2,882,111880,-1964,-16404,-103,25,-54,-60
2,883,111885,-1944,-16418,-138,26,-52,-56
2,884,111890,-1911,-16408,-175,31,-49,-54
2,885,111895,-1930,-16386,-263,31,-46,-55
2,886,111900,-1976,-16404,-248,34,-48,-52
2,887,111905,-1969,-16369,-225,36,-46,-49
2,888,111910,-1960,-16379,-193,37,-42,-48
2,889,111915,-1919,-16352,-100,38,-43,-45
2,890,111920,-1981,-16318,-118,41,-51,-46
2,891,111925,-1995,-16286,-91,42,-54,-41
2,892,111930,-2021,-16285,-122,45,-58,-40
2,893,111935,-2026,-16298,-136,47,-67,-37
2,894,111940,-2010,-16337,-106,46,-72,-37
2,895,111945,-2027,-16378,-34,45,-78,-38
2,896,111950,-2076,-16388,-38,46,-83,-36
2,897,111955,-2058,-16393,-107,48,-83,-33
2,898,111960,-2053,-16382,-143,49,-80,-32
2,899,111965,-2076,-16357,-157,51,-76,-30
2,900,111970,-2051,-16311,-153,51,-72,-28
2,901,111975,-2051,-16330,-125,55,-69,-26
2,902,111980,-2021,-16351,-94,53,-57,-28
2,903,111985,-1983,-16329,-153,53,-45,-24
2,904,111990,-1957,-16314,-193,54,-31,-23
2,905,111995,-2012,-16311,-228,59,-22,-23
2,906,112000,-2052,-16282,-222,59,-15,-24
2,907,112005,-2015,-16255,-161,58,-10,-22
2,908,112010,-1994,-16291,-49,62,-6,-17
2,909,112015,-2001,-16336,34,60,-4,-17
2,910,112020,-2043,-16343,30,61,-3,-19
2,911,112025,-2058,-16371,23,62,-9,-18
2,912,112030,-2051,-16378,30,62,-14,-14
2,913,112035,-2005,-16396,56,62,-23,-12
2,914,112040,-1956,-16426,36,62,-27,-11
2,915,112045,-1999,-16445,37,60,-36,-10
2,916,112050,-1973,-16418,122,62,-44,-11
2,917,112055,-1975,-16426,165,61,-47,-8
2,918,112060,-1982,-16433,151,58,-53,-9
2,919,112065,-1989,-16439,87,56,-58,-7
2,920,112070,-1975,-16439,10,57,-53,-6
2,921,112075,-1992,-16380,-22,55,-54,-4
2,922,112080,-1988,-16353,-37,55,-52,-3
2,923,112085,-1950,-16391,-26,56,-46,0
2,924,112090,-1968,-16389,2,55,-42,0
2,925,112095,-1959,-16338,-10,54,-37,2
2,926,112100,-2009,-16326,19,53,-28,2
2,927,112105,-2048,-16333,31,52,-26,5
2,928,112110,-2029,-16332,-21,52,-23,2
2,929,112115,-2036,-16292,-11,50,-20,3
2,930,112120,-2019,-16286,-15,52,-16,5
2,931,112125,-2043,-16234,-99,50,-13,6
2,932,112130,-2018,-16255,-104,51,-10,5
2,933,112135,-2010,-16215,-157,51,-3,8
2,934,112140,-2001,-16197,-172,50,3,8
2,935,112145,-1981,-16192,-154,49,7,9
2,936,112150,-1986,-16203,-118,50,13,9
2,937,112155,-1933,-16241,-99,52,15,11
2,938,112160,-1945,-16262,-38,49,21,12
2,939,112165,-1928,-16294,31,49,24,11
2,940,112170,-1848,-16306,116,42,27,16
2,941,112175,-1859,-16315,91,42,24,13
2,942,112180,-1900,-16308,130,45,22,14
2,943,112185,-1951,-16341,114,45,12,17
2,944,112190,-1966,-16330,99,41,0,19
2,945,112195,-1916,-16320,120,36,-11,19
2,946,112200,-1908,-16333,177,36,-20,21
2,947,112205,-1925,-16292,137,32,-29,18
2,948,112210,-1932,-16315,19,32,-37,19
2,949,112215,-2022,-16307,-1,33,-42,20
2,950,112220,-2029,-16291,-37,30,-43,22
2,951,112225,-2003,-16279,-36,31,-45,24
2,952,112230,-2047,-16278,-120,31,-47,25
2,953,112235,-2117,-16309,-238,29,-47,21
2,954,112240,-2116,-16288,-215,29,-43,21
2,955,112245,-2099,-16224,-187,26,-31,23
2,956,112250,-1993,-16192,-221,28,-21,23
2,957,112255,-1991,-16183,-228,28,-1,22
2,958,112260,-2040,-16173,-191,29,20,21
2,959,112265,-2081,-16194,-121,29,36,23
2,960,112270,-2069,-16163,-144,29,52,21
2,961,112275,-2022,-16177,-23,26,67,21
2,962,112280,-2001,-16208,73,28,75,22
2,963,112285,-1965,-16217,116,29,77,20
2,964,112290,-1964,-16254,180,27,78,20
2,965,112295,-1923,-16312,247,23,76,19
2,966,112300,-1877,-16336,323,19,68,21
2,967,112305,-1893,-16371,373,18,57,22
2,968,112310,-1886,-16421,393,19,45,22
2,969,112315,-1816,-16466,343,16,33,18
2,970,112320,-1782,-16500,330,11,20,19
2,971,112325,-1800,-16528,303,8,6,21
2,972,112330,-1863,-16506,267,6,-7,20
2,973,112335,-1842,-16532,291,3,-14,21
2,974,112340,-1834,-16535,301,3,-19,23
2,975,112345,-1869,-16486,281,-2,-21,22
2,976,112350,-1919,-16523,259,-4,-20,20
2,977,112355,-1951,-16496,183,-2,-26,20
2,978,112360,-2003,-16460,146,-5,-26,19
2,979,112365,-1988,-16443,169,-6,-21,18
2,980,112370,-2026,-16405,142,-8,-16,19
2,981,112375,-2068,-16371,141,-7,-13,20
2,982,112380,-2102,-16347,83,-10,-11,15
2,983,112385,-2106,-16337,96,-12,-7,15
2,984,112390,-2088,-16345,128,-12,-8,13
2,985,112395,-2054,-16320,98,-13,-8,7
2,986,112400,-2048,-16314,98,-14,-4,9
2,987,112405,-2059,-16368,50,-11,-4,9
2,988,112410,-2034,-16326,52,-12,-5,4
2,989,112415,-2030,-16314,50,-16,-6,4
2,990,112420,-1989,-16326,37,-19,-7,4
2,991,112425,-1957,-16274,77,-17,-6,-1
2,992,112430,-1943,-16296,142,-19,-3,1
2,993,112435,-1937,-16331,148,-18,-2,1
2,994,112440,-1948,-16351,84,-18,4,-2
2,995,112445,-1960,-16357,-1,-20,9,-4
2,996,112450,-1994,-16346,5,-20,6,-3
2,997,112455,-1966,-16344,-5,-21,8,-4
2,998,112460,-1955,-16319,53,-16,5,-6
2,999,112465,-1949,-16302,113,-18,2,-7
3,0,118015,-1876,-16362,141,-3,-5,-7
3,1,118020,-1948,-16378,115,-1,-3,-8
3,2,118025,-1948,-16352,120,-1,-5,-5
3,3,118030,-1892,-16358,130,-1,-4,-4
3,4,118035,-1852,-16361,142,1,-1,-9
3,5,118040,-1874,-16374,186,0,1,-7
3,6,118045,-1987,-16381,78,0,-3,-5
3,7,118050,-1992,-16377,70,1,-2,-7
3,8,118055,-1951,-16390,102,0,-2,-6
3,9,118060,-1893,-16381,156,1,-3,-2
3,10,118065,-1896,-16303,146,1,-6,-3
3,11,118070,-1950,-16327,133,3,-6,-5
3,12,118075,-1940,-16378,163,2,-2,-8
3,13,118080,-1911,-16354,109,3,-6,-5
3,14,118085,-1878,-16365,167,2,-4,-7
3,15,118090,-1898,-16381,210,1,-1,-7
3,16,118095,-1891,-16403,224,4,-2,-5
3,17,118100,-1912,-16400,201,2,-1,-5
3,18,118105,-1958,-16405,186,2,0,-6
3,19,118110,-1963,-16380,184,2,2,-7
3,20,118115,-1966,-16374,112,-1,-2,-8
3,21,118120,-1928,-16370,126,3,-7,-5
3,22,118125,-1930,-16399,166,3,-9,-6
3,23,118130,-1940,-16403,154,1,-8,-7
3,24,118135,-1924,-16419,139,3,-7,-8
3,25,118140,-1921,-16426,140,1,-8,-4
3,26,118145,-1925,-16432,65,1,-8,-4
3,27,118150,-1930,-16373,98,1,-9,-4
3,28,118155,-1927,-16345,87,1,-4,-9
3,29,118160,-1894,-16330,112,0,-3,-8
3,30,118165,-1901,-16348,152,2,-3,-5
3,31,118170,-1892,-16317,165,4,-1,-5
3,32,118175,-1906,-16362,140,4,1,-8
3,33,118180,-1905,-16312,91,0,2,-7
3,34,118185,-1915,-16316,97,5,3,-6
3,35,118190,-1909,-16328,105,5,5,-7
3,36,118195,-1950,-16315,151,1,4,-5
3,37,118200,-1990,-16290,158,0,-1,-4
3,38,118205,-2010,-16284,142,2,-6,-5
3,39,118210,-1996,-16265,92,4,-8,-5
3,40,118215,-2013,-16249,79,3,-8,-5
3,41,118220,-1985,-16260,35,2,-5,-5
3,42,118225,-1969,-16227,43,2,-1,-8
3,43,118230,-1928,-16198,-28,5,-1,-10
3,44,118235,-1912,-16202,-54,6,2,-9
3,45,118240,-1906,-16222,-5,3,8,-11
3,46,118245,-1899,-16300,98,4,9,-9
3,47,118250,-1845,-16293,112,5,8,-7
3,48,118255,-1866,-16255,129,5,9,-9
3,49,118260,-1900,-16247,84,3,8,-7
3,50,118265,-1939,-16266,69,3,7,-5
3,51,118270,-1919,-16288,100,4,6,-7
3,52,118275,-1877,-16271,155,5,2,-6
3,53,118280,-1900,-16325,189,3,0,-7
3,54,118285,-1877,-16390,169,5,-4,-7
3,55,118290,-1902,-16388,151,4,-5,-8
3,56,118295,-1932,-16401,117,5,-8,-6
3,57,118300,-1917,-16400,81,4,-7,-5
3,58,118305,-1879,-16366,41,5,-3,-7
3,59,118310,-1888,-16336,22,4,1,-5
3,60,118315,-1872,-16323,57,3,8,-4
3,61,118320,-1836,-16356,75,4,11,-7
3,62,118325,-1850,-16392,85,5,14,-6
3,63,118330,-1836,-16401,86,7,20,-5
3,64,118335,-1791,-16405,119,7,26,-4
3,65,118340,-1763,-16383,154,5,25,-1
3,66,118345,-1847,-16361,153,3,19,-2
3,67,118350,-1857,-16320,116,4,17,-4
3,68,118355,-1813,-16326,140,3,10,0
3,69,118360,-1810,-16355,183,1,7,0
3,70,118365,-1819,-16393,205,2,1,0
3,71,118370,-1847,-16398,217,3,-4,1
3,72,118375,-1878,-16431,245,2,-9,-1
3,73,118380,-1917,-16457,228,2,-14,1
3,74,118385,-1911,-16435,236,-1,-18,0
3,75,118390,-1921,-16423,269,-2,-23,2
3,76,118395,-1893,-16426,236,0,-30,2
3,77,118400,-1933,-16412,175,-1,-30,1
3,78,118405,-1919,-16421,160,-2,-31,3
3,79,118410,-1942,-16445,84,-3,-30,2
3,80,118415,-1890,-16369,64,-3,-19,3
3,81,118420,-1919,-16366,64,-1,-12,4
3,82,118425,-1912,-16376,87,-1,-7,3
3,83,118430,-1939,-16376,125,-1,-3,1
3,84,118435,-1903,-16382,147,-2,0,2
3,85,118440,-1921,-16363,80,-4,4,2
3,86,118445,-1919,-16364,97,-4,5,2
3,87,118450,-1946,-16388,119,-3,-1,3
3,88,118455,-1989,-16406,138,-2,-5,1
3,89,118460,-1973,-16385,175,-2,-10,1
3,90,118465,-1964,-16348,204,-6,-13,2
3,91,118470,-1931,-16386,197,-7,-12,3
3,92,118475,-1906,-16404,157,-6,-15,5
3,93,118480,-1936,-16392,96,-6,-15,2
3,94,118485,-1968,-16352,81,-5,-12,0
3,95,118490,-1944,-16320,-41,-5,-10,2
3,96,118495,-1946,-16297,-18,-6,-8,3
3,97,118500,-1897,-16298,15,-8,-6,2
3,98,118505,-1879,-16268,64,-5,-4,0
3,99,118510,-1870,-16261,80,-5,-1,1
3,100,118515,-1861,-16277,146,-6,1,0
3,101,118520,-1885,-16319,122,-5,3,5
3,102,118525,-1874,-16333,151,-5,3,1
3,103,118530,-1958,-16282,132,-5,1,1
3,104,118535,-1974,-16334,107,-6,0,3
3,105,118540,-1921,-16341,191,-8,-3,3
3,106,118545,-1934,-16336,223,-7,-10,1
3,107,118550,-1947,-16340,224,-6,-15,2
3,108,118555,-1939,-16365,211,-7,-20,1
3,109,118560,-1926,-16393,181,-6,-22,2
3,110,118565,-1925,-16401,113,-8,-23,3
3,111,118570,-1934,-16369,72,-8,-24,3
3,112,118575,-1949,-16354,10,-7,-21,5
3,113,118580,-1919,-16320,30,-6,-19,3
3,114,118585,-1873,-16298,52,-10,-14,1
3,115,118590,-1860,-16320,49,-8,-10,3
3,116,118595,-1907,-16359,39,-7,-6,2
3,117,118600,-1919,-16344,34,-4,-7,2
3,118,118605,-1932,-16318,41,-7,-9,2
3,119,118610,-1938,-16321,85,-6,-9,1
3,120,118615,-1966,-16308,128,-6,-10,4
3,121,118620,-1975,-16331,129,-5,-10,1
3,122,118625,-1995,-16357,162,-7,-14,2
3,123,118630,-2040,-16377,190,-5,-18,2
3,124,118635,-2040,-16343,206,-4,-22,3
3,125,118640,-2036,-16351,153,-7,-23,-2
3,126,118645,-2007,-16385,111,-5,-28,-4
3,127,118650,-1964,-16385,143,-5,-29,-1
3,128,118655,-2009,-16396,130,-7,-27,-2
3,129,118660,-1975,-16391,131,-6,-22,-4
3,130,118665,-1927,-16394,89,-6,-18,-1
3,131,118670,-1950,-16369,61,-5,-8,-1
3,132,118675,-1878,-16397,58,-4,-2,-4
3,133,118680,-1879,-16383,103,-2,4,-5
3,134,118685,-1904,-16347,95,-1,7,-6
3,135,118690,-1908,-16344,85,-4,9,-3
3,136,118695,-1880,-16355,170,-5,11,-2
3,137,118700,-1884,-16412,226,-6,10,0
3,138,118705,-1889,-16416,167,-5,13,-3
3,139,118710,-1958,-16413,108,-1,14,-3
3,140,118715,-1967,-16406,52,1,10,-4
3,141,118720,-1966,-16321,64,-2,7,-3
3,142,118725,-1945,-16342,109,-3,-1,-4
3,143,118730,-1901,-16375,148,-2,-9,-6
3,144,118735,-1933,-16349,141,0,-14,-6
3,145,118740,-1925,-16356,109,1,-19,-4
3,146,118745,-1901,-16378,92,2,-20,-3
3,147,118750,-1901,-16394,121,0,-22,-4
3,148,118755,-1869,-16385,156,-1,-21,-2
3,149,118760,-1870,-16372,105,-2,-22,-3
3,150,118765,-1923,-16363,1,0,-18,-5
3,151,118770,-1908,-16325,11,1,-16,-4
3,152,118775,-1898,-16338,88,0,-14,-4
3,153,118780,-1870,-16349,156,5,-10,-6
3,154,118785,-1936,-16332,161,4,-10,-7
3,155,118790,-1901,-16340,201,4,-10,-1
3,156,118795,-1910,-16373,175,4,-13,-2
3,157,118800,-1930,-16417,187,4,-13,-4
3,158,118805,-1888,-16404,121,5,-18,-4
3,159,118810,-1912,-16375,55,4,-19,-2
3,160,118815,-1878,-16367,104,5,-15,-2
3,161,118820,-1880,-16399,154,3,-12,-4
3,162,118825,-1911,-16382,151,4,-11,-6
3,163,118830,-1897,-16392,113,5,-11,-7
3,164,118835,-1962,-16362,95,4,-11,-5
3,165,118840,-1999,-16359,51,2,-11,-4
3,166,118845,-2005,-16327,64,4,-9,-3
3,167,118850,-1959,-16338,105,4,-6,-4
3,168,118855,-1929,-16293,37,7,-8,-4
3,169,118860,-1921,-16307,40,7,-6,-5
3,170,118865,-2007,-16302,47,6,-4,-4
3,171,118870,-2034,-16292,62,5,-5,-7
3,172,118875,-1948,-16282,98,6,-3,-4
3,173,118880,-1959,-16303,144,8,-3,-3
3,174,118885,-1923,-16290,139,7,-5,-5
3,175,118890,-1916,-16362,254,11,-5,-5
3,176,118895,-1959,-16358,181,9,-9,-7
3,177,118900,-2027,-16367,155,7,-12,-7
3,178,118905,-2019,-16357,187,9,-14,-7
3,179,118910,-1987,-16361,146,9,-14,-10
3,180,118915,-1985,-16358,139,6,-12,-11
3,181,118920,-1974,-16373,193,7,-10,-9
3,182,118925,-1967,-16410,125,5,-5,-9
3,183,118930,-1957,-16381,85,8,1,-8
3,184,118935,-1970,-16395,92,10,6,-8
3,185,118940,-1920,-16388,124,8,9,-7
3,186,118945,-1929,-16359,125,6,12,-8
3,187,118950,-1880,-16373,119,4,15,-9
3,188,118955,-1957,-16341,93,7,13,-9
3,189,118960,-1981,-16333,108,7,12,-9
3,190,118965,-1963,-16334,110,5,11,-9
3,191,118970,-1972,-16313,132,9,13,-10
3,192,118975,-1965,-16326,131,9,8,-12
3,193,118980,-1958,-16304,96,8,4,-11
3,194,118985,-1937,-16330,128,8,0,-13
3,195,118990,-1933,-16299,117,7,-3,-10
3,196,118995,-1915,-16372,176,6,-4,-8
3,197,119000,-1857,-16371,139,5,-4,-12
3,198,119005,-1808,-16355,129,6,-1,-9
3,199,119010,-1847,-16369,146,5,3,-10
3,200,119015,-1846,-16369,156,5,6,-8
3,201,119020,-1868,-16350,129,7,10,-8
3,202,119025,-1870,-16366,181,6,12,-8
3,203,119030,-1844,-16394,204,1,16,-9
3,204,119035,-1815,-16367,182,4,14,-8
3,205,119040,-1833,-16361,154,4,13,-5
3,206,119045,-1902,-16372,154,3,8,-5
3,207,119050,-1848,-16354,117,2,5,-6
3,208,119055,-1863,-16323,106,3,0,-5
3,209,119060,-1843,-16344,135,1,-3,-5
3,210,119065,-1906,-16380,120,3,-8,-4
3,211,119070,-1888,-16349,133,-1,-12,-5
3,212,119075,-1939,-16362,56,1,-22,-8
3,213,119080,-1980,-16343,77,4,-25,-6
3,214,119085,-1934,-16346,58,1,-25,-5
3,215,119090,-1886,-16319,72,0,-30,-5
3,216,119095,-1868,-16334,127,1,-30,-4
3,217,119100,-1856,-16359,157,1,-23,-2
3,218,119105,-1877,-16347,131,1,-25,-2
3,219,119110,-1918,-16341,118,1,-21,-4
3,220,119115,-1991,-16329,114,1,-15,-5
3,221,119120,-1923,-16321,83,2,-11,-5
3,222,119125,-1904,-16270,77,-1,-5,-4
3,223,119130,-1899,-16255,48,3,-3,-3
3,224,119135,-1938,-16281,84,3,-2,-4
3,225,119140,-1901,-16307,58,0,1,-6
3,226,119145,-1901,-16361,40,0,3,-3
3,227,119150,-1858,-16332,59,2,10,-3
3,228,119155,-1919,-16347,164,2,12,-4
3,229,119160,-1890,-16367,119,1,4,-5
3,230,119165,-1874,-16348,29,6,-2,0
3,231,119170,-1884,-16308,134,5,-2,-2
3,232,119175,-1926,-16343,125,0,-8,-1
3,233,119180,-1890,-16310,79,4,-13,-1
3,234,119185,-1862,-16302,145,2,-14,-1
3,235,119190,-1880,-16333,103,3,-17,-1
3,236,119195,-1919,-16321,54,2,-19,1
3,237,119200,-1948,-16312,56,1,-21,0
3,238,119205,-1893,-16311,34,2,-22,-2
3,239,119210,-1827,-16333,37,3,-20,-1
3,240,119215,-1846,-16390,50,4,-16,-2
3,241,119220,-1885,-16383,110,3,-12,-2
3,242,119225,-1903,-16410,130,5,-12,-2
3,243,119230,-1838,-16423,92,4,-12,1
3,244,119235,-1875,-16444,133,5,-9,0
3,245,119240,-1912,-16432,165,2,-6,0
3,246,119245,-1923,-16440,190,3,-7,-1
3,247,119250,-1959,-16411,219,3,-7,1
3,248,119255,-1946,-16385,182,2,-8,2
3,249,119260,-1944,-16374,171,3,-6,3
3,250,119265,-1907,-16369,178,1,-6,2
3,251,119270,-1933,-16375,172,1,-8,-1
3,252,119275,-1928,-16385,134,-2,-10,-1
3,253,119280,-1910,-16369,168,0,-15,-2
3,254,119285,-1881,-16374,179,3,-13,0
3,255,119290,-1953,-16373,174,1,-17,0
3,256,119295,-1984,-16372,148,-1,-19,1
3,257,119300,-1961,-16347,150,2,-23,3
3,258,119305,-1970,-16336,182,0,-25,-2
3,259,119310,-1978,-16379,169,2,-21,0
3,260,119315,-1939,-16391,194,0,-20,0
3,261,119320,-1975,-16393,236,-1,-22,-2
3,262,119325,-1993,-16372,198,-2,-21,-2
3,263,119330,-1946,-16393,237,-3,-16,-5
3,264,119335,-1929,-16434,162,-2,-9,-3
3,265,119340,-1973,-16383,134,-2,-4,0
3,266,119345,-1922,-16402,151,-2,-3,-2
3,267,119350,-1916,-16427,164,0,-2,0
3,268,119355,-1909,-16396,161,-1,7,-1
3,269,119360,-1899,-16349,141,-4,9,-2
3,270,119365,-1946,-16348,193,-4,12,-2
3,271,119370,-1986,-16365,207,-4,14,-1
3,272,119375,-1958,-16361,196,-5,15,-3
3,273,119380,-1914,-16329,257,-6,16,-2
3,274,119385,-1918,-16332,230,-8,14,-2
3,275,119390,-1895,-16342,218,-7,11,-1
3,276,119395,-1867,-16343,147,-7,10,-4
3,277,119400,-1908,-16338,149,-7,7,-3
3,278,119405,-1942,-16299,105,-5,6,-3
3,279,119410,-1925,-16269,110,-10,2,-3
3,280,119415,-1865,-16306,84,-6,-4,-2
3,281,119420,-1857,-16310,120,-7,-5,-3
3,282,119425,-1877,-16274,81,-7,-5,-1
3,283,119430,-1926,-16281,32,-5,-5,-2
3,284,119435,-1928,-16259,5,-8,-4,-6
3,285,119440,-1917,-16256,48,-5,-6,-4
3,286,119445,-1894,-16261,124,-3,-2,0
3,287,119450,-1898,-16238,78,-5,0,-4
3,288,119455,-1892,-16290,53,-4,-1,-4
3,289,119460,-1901,-16300,79,-2,1,-1
3,290,119465,-1902,-16280,68,-2,2,-2
3,291,119470,-1907,-16282,90,-2,5,-4
3,292,119475,-1879,-16315,123,-5,4,-5
3,293,119480,-1896,-16293,184,-6,1,-4
3,294,119485,-1900,-16275,168,-6,-1,-3
3,295,119490,-1917,-16285,165,-6,-5,-4
3,296,119495,-1897,-16313,155,-5,-5,-2
3,297,119500,-1910,-16322,121,-7,-11,-1
3,298,119505,-1967,-16320,138,-6,-12,-6
3,299,119510,-2001,-16301,118,-5,-14,-5
3,300,119515,-1987,-16293,85,-7,-14,-4
3,301,119520,-1978,-16323,74,-5,-14,-4
3,302,119525,-1988,-16355,-33,-3,-12,-3
3,303,119530,-1986,-16357,-52,-4,-7,-5
3,304,119535,-1989,-16346,-138,-5,1,-7
3,305,119540,-2035,-16361,-207,-2,14,-4
3,306,119545,-2120,-16306,-262,3,29,-7
3,307,119550,-2091,-16208,-286,6,50,-7
3,308,119555,-2134,-16160,-299,8,77,-5
3,309,119560,-2080,-16298,-223,7,110,-3
3,310,119565,-2097,-16342,-90,8,149,-7
3,311,119570,-2236,-16330,22,12,184,-9
3,312,119575,-2329,-16351,35,18,200,-11
3,313,119580,-2071,-16320,-168,20,209,-9
3,314,119585,-1843,-16332,18,15,233,-7
3,315,119590,-1928,-16333,496,16,244,-11
3,316,119595,-2090,-16336,438,17,234,-13
3,317,119600,-1983,-16394,201,16,223,-8
3,318,119605,-1812,-16431,310,16,220,-4
3,319,119610,-1740,-16410,670,16,202,-5
3,320,119615,-1789,-16453,749,14,165,-7
3,321,119620,-1883,-16377,618,12,120,-10
3,322,119625,-1824,-16325,588,9,81,-7
3,323,119630,-1736,-16348,544,7,47,-2
3,324,119635,-1687,-16442,528,7,21,-2
3,325,119640,-1671,-16467,519,5,-10,0
3,326,119645,-1698,-16423,392,5,-37,-2
3,327,119650,-1742,-16396,195,5,-54,-5
3,328,119655,-1759,-16400,123,4,-61,0
3,329,119660,-1809,-16420,170,4,-63,2
3,330,119665,-1730,-16401,163,3,-67,4
3,331,119670,-1752,-16424,59,5,-71,9
3,332,119675,-1807,-16378,-37,6,-66,9
3,333,119680,-1838,-16346,-38,5,-59,6
3,334,119685,-1895,-16295,-35,8,-50,6
3,335,119690,-1857,-16332,17,7,-41,9
3,336,119695,-1775,-16372,79,13,-31,10
3,337,119700,-1797,-16379,111,13,-21,7
3,338,119705,-1801,-16401,161,13,-20,8
3,339,119710,-1883,-16389,157,16,-21,12
3,340,119715,-1855,-16353,186,14,-23,12
3,341,119720,-1845,-16341,237,14,-27,13
3,342,119725,-1895,-16335,168,14,-32,13
3,343,119730,-1899,-16357,176,16,-37,15
3,344,119735,-1897,-16349,83,19,-37,15
3,345,119740,-1889,-16351,3,13,-30,12
3,346,119745,-1915,-16339,1,16,-23,18
3,347,119750,-1972,-16319,19,20,-19,17
3,348,119755,-1963,-16297,20,22,-18,15
3,349,119760,-1867,-16350,-14,19,-8,18
3,350,119765,-1881,-16393,38,21,9,18
3,351,119770,-1924,-16427,96,21,23,18
3,352,119775,-1985,-16447,81,23,33,17
3,353,119780,-1991,-16398,27,26,34,18
3,354,119785,-1962,-16390,18,26,39,22
3,355,119790,-1932,-16407,70,26,45,25
3,356,119795,-1867,-16407,189,25,43,25
3,357,119800,-1707,-16395,456,21,32,26
3,358,119805,-1080,-16412,1648,5,8,34
3,359,119810,-2165,-16194,1997,-2,-62,46
3,360,119815,-2589,-16217,840,25,-170,23
3,361,119820,-3453,-15552,-1144,23,-266,17
3,362,119825,-2609,-15500,-901,4,-315,42
3,363,119830,-1316,-15691,255,-4,-332,60
3,364,119835,-869,-16091,742,5,-309,51
3,365,119840,-1804,-16259,-63,25,-249,32
3,366,119845,-2758,-16453,-1156,36,-175,41
3,367,119850,-2673,-16259,-1332,26,-105,54
3,368,119855,-2167,-16230,-540,23,-25,75
3,369,119860,-1722,-16437,-499,37,70,80
3,370,119865,-1757,-16493,-1360,49,197,78
3,371,119870,-2078,-16516,-1526,52,340,92
3,372,119875,-2165,-16520,-1339,54,460,104
3,373,119880,-2211,-16724,-198,67,574,116
3,374,119885,-2120,-16650,253,72,706,129
3,375,119890,-2372,-16492,601,75,737,142
3,376,119895,-2641,-16632,945,69,725,157
3,377,119900,-2487,-16421,929,67,675,162
3,378,119905,-2348,-16621,1258,64,613,179
3,379,119910,-2386,-16552,1603,54,522,188
3,380,119915,-2560,-16469,1846,44,401,197
3,381,119920,-2694,-16423,1571,42,262,208
3,382,119925,-2472,-16291,1123,41,140,223
3,383,119930,-2191,-16174,745,35,42,241
3,384,119935,-2157,-16274,791,27,-39,256
3,385,119940,-2371,-16162,1059,22,-123,262
3,386,119945,-2651,-16107,1115,18,-214,273
3,387,119950,-2689,-15979,761,24,-287,286
3,388,119955,-2624,-15937,278,26,-332,304
3,389,119960,-2656,-16050,88,24,-347,321
3,390,119965,-2817,-16059,71,23,-350,333
3,391,119970,-2925,-16026,-105,26,-335,342
3,392,119975,-3031,-16013,-392,32,-287,357
3,393,119980,-3054,-16048,-472,41,-222,374
3,394,119985,-3087,-16092,-397,43,-163,386
3,395,119990,-3232,-16057,-139,45,-110,399
3,396,119995,-3459,-16017,113,52,-61,411
3,397,120000,-3657,-15987,196,54,-27,421
3,398,120005,-3792,-16010,313,55,0,434
3,399,120010,-3880,-16022,509,57,10,448
3,400,120015,-3911,-16069,567,56,8,459
3,401,120020,-3823,-16121,526,58,4,473
3,402,120025,-3808,-16169,386,58,17,482
3,403,120030,-3896,-16095,237,57,35,488
3,404,120035,-4097,-16047,342,59,50,498
3,405,120040,-4208,-16016,344,61,52,511
3,406,120045,-3910,-16065,-56,67,55,524
3,407,120050,-3794,-16072,-37,67,85,535
3,408,120055,-3975,-16120,212,67,113,544
3,409,120060,-4083,-16027,139,74,128,553
3,410,120065,-3989,-16045,21,78,148,565
3,411,120070,-3887,-16121,180,76,174,580
3,412,120075,-4015,-16107,483,77,193,588
3,413,120080,-4130,-16092,518,78,196,597
3,414,120085,-4192,-16070,409,77,196,605
3,415,120090,-4121,-16029,267,77,200,618
3,416,120095,-4131,-16045,285,77,207,628
3,417,120100,-4185,-16007,584,74,212,639
3,418,120105,-4228,-16022,521,79,204,647
3,419,120110,-4309,-15994,486,79,200,654
3,420,120115,-4371,-15970,450,75,194,661
3,421,120120,-4329,-15991,454,72,193,670
3,422,120125,-4232,-15973,357,72,202,679
3,423,120130,-4149,-15945,169,78,221,690
3,424,120135,-4332,-15906,140,77,237,699
3,425,120140,-4508,-15747,147,73,239,702
3,426,120145,-4602,-15924,687,71,238,713
3,427,120150,-4530,-15588,637,73,196,707
3,428,120155,-4388,-15844,504,70,172,733
3,429,120160,-4495,-15803,381,71,143,731
3,430,120165,-4653,-15709,546,69,113,728
3,431,120170,-4690,-15794,390,61,76,739
3,432,120175,-4616,-15647,565,68,51,740
3,433,120180,-4686,-15789,566,65,25,753
3,434,120185,-4710,-15842,425,66,13,750
3,435,120190,-4657,-15792,264,66,6,751
3,436,120195,-4648,-15876,137,62,10,755
3,437,120200,-4789,-15806,237,64,18,755
3,438,120205,-4828,-15775,386,61,29,756
3,439,120210,-4802,-15712,360,62,27,763
3,440,120215,-4867,-15729,332,58,35,765
3,441,120220,-5003,-15664,413,58,41,760
3,442,120225,-5166,-15627,318,58,25,761
3,443,120230,-5145,-15534,403,61,17,757
3,444,120235,-4982,-15466,360,57,-7,759
3,445,120240,-4979,-15542,384,49,-13,755
3,446,120245,-5089,-15467,554,50,-15,750
3,447,120250,-5100,-15630,-850,54,-34,751
3,448,120255,-5449,-15521,951,42,65,725
3,449,120260,-5559,-15096,1105,39,-42,723
3,450,120265,-5318,-15828,1217,49,-176,752
3,451,120270,-5218,-15666,14,45,-246,717
3,452,120275,-5396,-15238,-300,44,-218,688
3,453,120280,-5716,-15532,154,45,-170,704
3,454,120285,-5697,-15317,728,43,-144,683
3,455,120290,-5448,-15261,317,42,-170,680
3,456,120295,-5363,-15545,44,45,-188,678
3,457,120300,-5693,-15506,403,41,-185,653
3,458,120305,-5945,-15303,464,42,-206,635
3,459,120310,-5777,-15440,286,43,-220,632
3,460,120315,-5599,-15357,212,42,-197,620
3,461,120320,-5643,-15454,165,41,-153,611
3,462,120325,-5840,-15559,655,40,-120,595
3,463,120330,-5815,-15457,453,36,-141,576
3,464,120335,-5583,-15670,434,35,-150,567
3,465,120340,-5446,-15559,773,34,-141,545
3,466,120345,-5419,-15530,840,31,-147,534
3,467,120350,-5298,-15603,848,33,-156,524
3,468,120355,-5224,-15657,721,31,-176,508
3,469,120360,-5232,-15716,771,25,-198,493
3,470,120365,-5252,-15747,993,21,-228,481
3,471,120370,-5278,-15746,1179,18,-263,465
3,472,120375,-5279,-15744,1257,14,-299,450
3,473,120380,-5301,-15749,1166,12,-334,435
3,474,120385,-5406,-15766,993,8,-361,420
3,475,120390,-5516,-15736,892,4,-381,402
3,476,120395,-5667,-15770,783,2,-394,388
3,477,120400,-5674,-15734,613,1,-398,370
3,478,120405,-5794,-15675,428,3,-387,349
3,479,120410,-5934,-15574,325,3,-370,331
3,480,120415,-6028,-15524,255,2,-340,311
3,481,120420,-6090,-15464,145,4,-296,293
3,482,120425,-6065,-15455,180,7,-237,280
3,483,120430,-6117,-15460,127,9,-167,259
3,484,120435,-6178,-15437,142,13,-96,238
3,485,120440,-6328,-15421,165,10,-35,214
3,486,120445,-6400,-15326,337,10,28,189
3,487,120450,-6393,-15289,481,11,76,171
3,488,120455,-6221,-15355,575,11,116,153
3,489,120460,-6147,-15354,747,13,153,129
3,490,120465,-6184,-15336,792,7,181,108
3,491,120470,-6265,-15333,838,3,193,86
3,492,120475,-6248,-15233,959,3,189,61
3,493,120480,-6140,-15257,1064,-1,170,41
3,494,120485,-6062,-15236,1168,-5,147,23
3,495,120490,-5970,-15205,1215,-10,118,-3
3,496,120495,-6006,-15225,1162,-10,86,-25
3,497,120500,-6062,-15180,981,-15,54,-45
3,498,120505,-6101,-15188,866,-19,26,-65
3,499,120510,-6022,-15197,888,-20,1,-86
3,500,120515,-5956,-15174,922,-25,-23,-107
3,501,120520,-5933,-15162,795,-26,-42,-130
3,502,120525,-5941,-15199,732,-28,-57,-153
3,503,120530,-5960,-15186,638,-30,-65,-171
3,504,120535,-5968,-15259,601,-35,-69,-192
3,505,120540,-5960,-15271,663,-34,-67,-216
3,506,120545,-5863,-15278,702,-36,-64,-235
3,507,120550,-5889,-15267,641,-40,-58,-256
3,508,120555,-6000,-15252,638,-42,-56,-279
3,509,120560,-6012,-15231,589,-40,-60,-300
3,510,120565,-5853,-15235,515,-41,-56,-319
3,511,120570,-5772,-15263,495,-42,-45,-338
3,512,120575,-5739,-15308,439,-44,-25,-357
3,513,120580,-5775,-15307,480,-45,-6,-381
3,514,120585,-5894,-15260,481,-46,4,-403
3,515,120590,-5849,-15226,520,-50,10,-423
3,516,120595,-5741,-15181,630,-48,10,-440
3,517,120600,-5641,-15186,722,-48,12,-462
3,518,120605,-5640,-15235,681,-53,5,-482
3,519,120610,-5729,-15197,605,-55,-8,-503
3,520,120615,-5765,-15205,535,-55,-23,-522
3,521,120620,-5519,-15179,620,-59,-30,-560
3,522,120625,-5531,-15177,666,-63,-30,-581
3,523,120630,-5523,-15154,565,-62,-32,-600
3,524,120635,-5473,-15171,394,-59,-24,-616
3,525,120640,-5364,-15232,265,-62,-2,-636
3,526,120645,-5226,-15321,205,-65,27,-654
3,527,120650,-5155,-15366,155,-61,61,-670
3,528,120655,-5165,-15337,215,-60,93,-692
3,529,120660,-5195,-15305,185,-58,122,-708
3,530,120665,-5083,-15306,234,-56,141,-719
3,531,120670,-4964,-15339,357,-59,159,-732
3,532,120675,-4861,-15406,510,-59,168,-746
3,533,120680,-4837,-15423,555,-58,165,-766
3,534,120685,-4807,-15462,534,-61,159,-780
3,535,120690,-4744,-15449,552,-60,143,-794
3,536,120695,-4721,-15465,641,-63,124,-809
3,537,120700,-4673,-15554,680,-60,103,-822
3,538,120705,-4527,-15644,1213,-49,65,-838
3,539,120710,-4423,-15394,105,-59,-1,-856
3,540,120715,-4311,-15728,-328,-77,8,-858
3,541,120720,-4597,-15418,1067,-75,39,-877
3,542,120725,-4417,-15683,1260,-70,-16,-873
3,543,120730,-4095,-15679,129,-56,-87,-895
3,544,120735,-3964,-15622,81,-59,-92,-911
3,545,120740,-4076,-15788,491,-70,-85,-916
3,546,120745,-4083,-15885,517,-73,-89,-920
3,547,120750,-3775,-15847,61,-71,-80,-930
3,548,120755,-3643,-15937,10,-66,-45,-936
3,549,120760,-3780,-15973,251,-66,-27,-944
3,550,120765,-3862,-15969,428,-68,-39,-951
3,551,120770,-3776,-15953,434,-65,-56,-957
3,552,120775,-3643,-15957,358,-65,-61,-965
3,553,120780,-3537,-15999,278,-64,-59,-967
3,554,120785,-3506,-16019,387,-63,-69,-974
3,555,120790,-3633,-16085,475,-65,-88,-978
3,556,120795,-3541,-16065,296,-65,-113,-982
3,557,120800,-3379,-16026,299,-63,-122,-985
3,558,120805,-3322,-16104,451,-63,-125,-989
3,559,120810,-3329,-16039,456,-63,-141,-994
3,560,120815,-3369,-16009,308,-61,-159,-997
3,561,120820,-3355,-16026,305,-62,-181,-1004
3,562,120825,-3234,-16070,257,-64,-198,-1003
3,563,120830,-3047,-16121,306,-61,-207,-1002
3,564,120835,-2906,-16122,335,-59,-217,-1007
3,565,120840,-2848,-16161,248,-59,-231,-1009
3,566,120845,-2849,-16185,218,-58,-247,-1013
3,567,120850,-2773,-16205,308,-58,-269,-1008
3,568,120855,-2712,-16207,366,-55,-292,-1007
3,569,120860,-2653,-16182,451,-55,-321,-1008
3,570,120865,-2673,-16164,524,-57,-361,-1010
3,571,120870,-2675,-16143,461,-60,-411,-1012
3,572,120875,-2732,-16167,470,-61,-463,-1012
3,573,120880,-2646,-16195,662,-60,-521,-1011
3,574,120885,-2459,-16204,270,-65,-582,-1011
3,575,120890,-2452,-16202,722,-59,-608,-1010
3,576,120895,-2464,-16183,589,-64,-654,-1008
3,577,120900,-2459,-16180,424,-68,-679,-1004
3,578,120905,-2376,-16125,83,-66,-680,-1001
3,579,120910,-2173,-16367,-283,-62,-649,-994
3,580,120915,-2103,-16339,-461,-60,-596,-995
3,581,120920,-2130,-16433,-492,-56,-534,-994
3,582,120925,-2153,-16453,-436,-51,-461,-994
3,583,120930,-2070,-16513,-334,-45,-376,-987
3,584,120935,-2007,-16597,-122,-41,-288,-979
3,585,120940,-1917,-16732,313,-36,-208,-972
3,586,120945,-1577,-16707,-382,-28,-157,-968
3,587,120950,-1485,-16803,-199,-32,-58,-954
3,588,120955,-1719,-17160,816,-42,12,-942
3,589,120960,-1662,-17207,1574,-26,33,-947
3,590,120965,-1436,-16907,2685,-12,-46,-955
3,591,120970,-996,-17068,-178,-3,-213,-922
3,592,120975,-1181,-17459,88,-23,-120,-924
3,593,120980,-1847,-16696,1133,-35,-40,-936
3,594,120985,-763,-17144,2219,-22,-203,-898
3,595,120990,-475,-17246,1038,-24,-331,-898
3,596,120995,-1254,-17242,666,-39,-399,-899
3,597,121000,-1881,-16902,944,-45,-419,-888
3,598,121005,-3696,-14373,-3218,-43,-433,-850
3,599,121010,15611,-25622,-31524,190,86,-816
3,600,121015,-23868,745,13127,472,3342,-987
3,601,121037,-3183,-22522,32767,52,4340,-462
3,602,121038,-3183,-22522,32767,52,4340,-462
3,603,121039,-3183,-22522,32767,52,4340,-462
3,604,121040,-32768,-12016,23816,54,-2082,-912
3,605,121041,-32768,-12016,23816,54,-2082,-912
3,606,121045,-23660,-4605,-12128,190,-5035,-112
3,607,121050,21385,-14166,-32768,346,-4041,901
3,608,121055,32767,-26571,-7111,106,-110,892
3,609,121060,-1434,-20865,21620,-36,1313,-46
3,610,121065,-26798,-11973,21892,49,-1014,-267
3,611,121070,-14909,-11795,-7158,191,-3539,318
3,612,121075,12934,-17168,-24037,251,-3209,600
3,613,121080,13884,-19400,-7990,77,-1161,401
3,614,121085,-2939,-17772,9181,24,-71,114
3,615,121090,-14225,-14788,10065,173,-376,145
3,616,121095,-5441,-15431,-3163,332,-1006,369
3,617,121100,6992,-16787,-12068,286,-935,429
3,618,121105,4334,-18086,517,129,-191,323
3,619,121110,-3857,-17468,6727,88,-75,218
3,620,121115,-7617,-15499,3709,222,-124,239
3,621,121120,-2182,-15422,-3533,335,-78,361
3,622,121125,2674,-17014,-5022,271,235,406
3,623,121130,539,-17381,2549,169,487,315
3,624,121135,-3581,-16654,5878,184,303,255
3,625,121140,-4015,-16507,2439,226,99,284
3,626,121145,-1279,-15515,-2460,266,166,312
3,627,121150,133,-16516,-2111,231,452,372
3,628,121155,-1443,-16976,2765,176,567,337
3,629,121160,-2775,-16383,4796,180,370,296
3,630,121165,-1905,-16535,2074,203,159,311
3,631,121170,-710,-16160,-312,211,177,312
3,632,121175,-854,-16645,390,184,279,331
3,633,121180,-2016,-16571,2639,160,247,314
3,634,121185,-2108,-16437,2971,165,112,315
3,635,121190,-845,-16619,1188,179,40,324
3,636,121195,-489,-16419,1150,170,103,312
3,637,121200,-1200,-16533,1232,148,90,317
3,638,121205,-1943,-16844,1678,136,24,321
3,639,121210,-1812,-16526,1759,138,-40,308
3,640,121215,-929,-16240,624,145,-52,313
3,641,121220,-748,-16712,550,142,22,329
3,642,121225,-1522,-16498,1316,127,60,312
3,643,121230,-1850,-16566,1317,124,14,318
3,644,121235,-1390,-16739,182,125,-16,321
3,645,121240,-1283,-16393,547,124,69,309
3,646,121245,-1464,-16707,1042,116,130,326
3,647,121250,-1683,-16668,980,123,126,322
3,648,121255,-1772,-16468,980,120,115,312
3,649,121260,-1574,-16455,326,112,117,314
3,650,121265,-1692,-16667,639,110,180,317
3,651,121270,-2071,-16360,1468,108,221,304
3,652,121275,-1959,-16636,959,103,203,318
3,653,121280,-1888,-16539,849,105,206,309
3,654,121285,-1947,-16639,1397,97,209,306
3,655,121290,-2069,-16555,1368,90,172,296
3,656,121295,-1980,-16539,1038,94,159,298
3,657,121300,-1945,-16585,900,85,173,296
3,658,121305,-1997,-16597,1322,79,201,290
3,659,121310,-2178,-16624,1446,76,189,287
3,660,121315,-2178,-16593,1485,70,148,280
3,661,121320,-2061,-16553,1167,62,98,279
3,662,121325,-2025,-16560,1238,58,89,278
3,663,121330,-2117,-16482,1245,53,93,274
3,664,121335,-2153,-16514,918,47,103,272
3,665,121340,-2241,-16566,1261,46,141,266
3,666,121345,-2175,-16404,1078,43,129,260
3,667,121350,-2149,-16594,1330,34,121,263
3,668,121355,-2190,-16474,1181,29,95,252
3,669,121360,-2266,-16409,1022,23,106,246
3,670,121365,-2329,-16388,893,16,131,241
3,671,121370,-2339,-16464,1150,15,161,239
3,672,121375,-2264,-16367,1368,17,156,232
3,673,121380,-2208,-16390,1193,8,132,235
3,674,121385,-2247,-16363,1044,4,119,227
3,675,121390,-2310,-16335,1069,-1,122,218
3,676,121395,-2363,-16351,1094,-4,130,218
3,677,121400,-2289,-16334,1151,-6,138,214
3,678,121405,-2221,-16343,1029,-11,137,212
3,679,121410,-2240,-16369,1294,-17,141,207
3,680,121415,-2265,-16386,1452,-19,122,203
3,681,121420,-2301,-16409,1231,-22,95,197
3,682,121425,-2311,-16296,1152,-25,83,191
3,683,121430,-2352,-16316,1309,-34,76,190
3,684,121435,-2365,-16393,1318,-38,62,186
3,685,121440,-2348,-16336,1265,-41,49,179
3,686,121445,-2396,-16376,1201,-42,36,180
3,687,121450,-2431,-16342,1172,-45,20,172
3,688,121455,-2420,-16291,1167,-52,2,165
3,689,121460,-2400,-16324,1258,-54,-11,160
3,690,121465,-2268,-16253,1281,-57,-17,156
3,691,121470,-2312,-16264,1236,-61,-18,154
3,692,121475,-2439,-16245,1186,-61,-20,146
3,693,121480,-2547,-16284,1112,-65,-29,141
3,694,121485,-2591,-16286,1030,-71,-39,138
3,695,121490,-2507,-16271,993,-70,-43,132
3,696,121495,-2433,-16243,932,-70,-38,129
3,697,121500,-2431,-16206,921,-74,-33,125
3,698,121505,-2505,-16198,884,-77,-25,118
3,699,121510,-2587,-16195,870,-77,-13,112
3,700,121515,-2635,-16187,884,-78,-3,110
3,701,121520,-2589,-16201,901,-79,9,104
3,702,121525,-2500,-16250,869,-78,30,100
3,703,121530,-2494,-16218,821,-83,49,96
3,704,121535,-2569,-16179,819,-81,67,90
3,705,121540,-2607,-16204,895,-82,91,86
3,706,121545,-2621,-16278,975,-83,108,82
3,707,121550,-2570,-16270,1052,-85,124,78
3,708,121555,-2555,-16281,1167,-83,137,75
3,709,121560,-2570,-16266,1186,-86,133,66
3,710,121565,-2640,-16250,1206,-91,129,63
3,711,121570,-2640,-16249,1280,-93,113,60
3,712,121575,-2641,-16221,1343,-95,89,53
3,713,121580,-2659,-16232,1296,-97,70,52
3,714,121585,-2616,-16214,1256,-100,46,45
3,715,121590,-2644,-16225,1196,-102,21,41
3,716,121595,-2661,-16192,1152,-101,3,37
3,717,121600,-2651,-16180,1133,-105,-10,33
3,718,121605,-2635,-16183,1053,-105,-21,32
3,719,121610,-2560,-16162,1041,-107,-21,27
3,720,121615,-2534,-16134,995,-108,-20,22
3,721,121620,-2606,-16063,934,-109,-22,16
3,722,121625,-2665,-16097,862,-111,-19,14
3,723,121630,-2693,-16128,877,-109,-11,11
3,724,121635,-2687,-16116,830,-106,4,8
3,725,121640,-2725,-16091,760,-105,16,4
3,726,121645,-2618,-16102,625,-105,35,0
3,727,121650,-2594,-16093,563,-103,64,-2
3,728,121655,-2602,-16136,508,-100,97,-5
3,729,121660,-2679,-16133,550,-97,131,-9
3,730,121665,-2629,-16139,591,-96,161,-14
3,731,121670,-2625,-16155,693,-93,186,-17
3,732,121675,-2615,-16180,868,-93,204,-19
3,733,121680,-2560,-16166,991,-93,210,-19
3,734,121685,-2528,-16213,1130,-91,198,-24
3,735,121690,-2559,-16160,1173,-93,175,-23
3,736,121695,-2554,-16155,1134,-93,141,-23
3,737,121700,-2525,-16139,1236,-94,109,-27
3,738,121705,-2514,-16125,1285,-92,75,-30
3,739,121710,-2515,-16159,1229,-94,38,-33
3,740,121715,-2504,-16139,1102,-97,7,-34
3,741,121720,-2603,-16079,1015,-100,-38,-39
3,742,121725,-2687,-16076,952,-99,-59,-42
3,743,121730,-2604,-16079,825,-95,-75,-42
3,744,121735,-2587,-16071,727,-96,-80,-44
3,745,121740,-2644,-16040,622,-94,-72,-46
3,746,121745,-2687,-16068,494,-89,-49,-48
3,747,121750,-2649,-16043,327,-86,-22,-50
3,748,121755,-2704,-16097,159,-81,18,-49
3,749,121760,-2665,-16110,150,-76,62,-49
3,750,121765,-2635,-16106,240,-74,106,-51
3,751,121770,-2627,-16092,343,-70,145,-53
3,752,121775,-2641,-16121,468,-64,178,-53
3,753,121780,-2641,-16160,633,-60,200,-52
3,754,121785,-2582,-16191,711,-57,210,-51
3,755,121790,-2587,-16218,850,-57,206,-53
3,756,121795,-2606,-16242,1017,-58,194,-53
3,757,121800,-2612,-16163,1088,-56,170,-56
3,758,121805,-2601,-16178,1178,-55,139,-55
3,759,121810,-2573,-16187,1222,-56,101,-57
3,760,121815,-2618,-16225,1167,-55,57,-59
3,761,121820,-2635,-16238,1150,-56,9,-58
3,762,121825,-2667,-16231,1151,-56,-39,-59
3,763,121830,-2642,-16183,1098,-57,-86,-59
3,764,121835,-2583,-16198,993,-57,-126,-60
3,765,121840,-2599,-16197,918,-56,-147,-61
3,766,121845,-2586,-16234,732,-53,-157,-59
3,767,121850,-2577,-16242,580,-50,-157,-60
3,768,121855,-2619,-16239,454,-50,-144,-59
3,769,121860,-2593,-16234,418,-45,-120,-61
3,770,121865,-2595,-16271,541,-44,-99,-60
3,771,121870,-2661,-16220,583,-40,-76,-61
3,772,121875,-2702,-16229,619,-38,-59,-60
3,773,121880,-2736,-16187,631,-36,-48,-62
3,774,121885,-2762,-16183,644,-31,-38,-59
3,775,121890,-2739,-16210,706,-29,-36,-59
3,776,121895,-2723,-16205,806,-28,-35,-62
3,777,121900,-2681,-16200,848,-25,-36,-62
3,778,121905,-2681,-16204,856,-24,-41,-62
3,779,121910,-2663,-16220,787,-23,-45,-62
3,780,121915,-2656,-16241,779,-19,-48,-63
3,781,121920,-2654,-16266,853,-17,-54,-64
3,782,121925,-2624,-16228,924,-16,-59,-65
3,783,121930,-2658,-16262,894,-17,-68,-64
3,784,121935,-2630,-16224,866,-16,-73,-67
3,785,121940,-2633,-16272,805,-13,-78,-65
3,786,121945,-2656,-16286,801,-11,-84,-63
3,787,121950,-2624,-16277,811,-12,-83,-63
3,788,121955,-2569,-16298,742,-12,-83,-64
3,789,121960,-2583,-16312,721,-10,-79,-64
3,790,121965,-2618,-16334,705,-10,-77,-62
3,791,121970,-2629,-16317,772,-6,-77,-62
3,792,121975,-2636,-16301,740,-1,-75,-61
3,793,121980,-2610,-16342,704,0,-73,-63
3,794,121985,-2534,-16364,644,4,-68,-61
3,795,121990,-2554,-16321,693,5,-59,-60
3,796,121995,-2589,-16306,736,5,-52,-62
3,797,122000,-2639,-16301,806,9,-49,-58
3,798,122005,-2616,-16296,803,9,-43,-59
3,799,122010,-2535,-16289,799,10,-36,-57
3,800,122015,-2554,-16340,764,11,-31,-57
3,801,122020,-2606,-16321,689,15,-26,-57
3,802,122025,-2663,-16258,627,15,-25,-59
3,803,122030,-2659,-16223,631,19,-22,-59
3,804,122035,-2572,-16231,622,22,-15,-54
3,805,122040,-2533,-16183,653,22,-10,-53
3,806,122045,-2511,-16220,714,26,-6,-54
3,807,122050,-2601,-16223,655,26,-5,-55
3,808,122055,-2620,-16175,644,30,-8,-55
3,809,122060,-2611,-16152,682,33,-15,-51
3,810,122065,-2543,-16147,773,31,-23,-49
3,811,122070,-2549,-16169,782,32,-26,-50
3,812,122075,-2501,-16180,741,33,-36,-49
3,813,122080,-2471,-16193,751,37,-40,-49
3,814,122085,-2574,-16244,654,35,-44,-47
3,815,122090,-2561,-16178,683,41,-47,-45
3,816,122095,-2493,-16200,752,41,-52,-45
3,817,122100,-2519,-16233,791,41,-56,-42
3,818,122105,-2562,-16252,785,42,-57,-42
3,819,122110,-2522,-16312,690,46,-59,-40
3,820,122115,-2479,-16252,609,48,-56,-38
3,821,122120,-2480,-16221,626,45,-49,-39
3,822,122125,-2556,-16225,672,47,-42,-39
3,823,122130,-2572,-16221,683,48,-35,-35
3,824,122135,-2614,-16189,636,51,-27,-33
3,825,122140,-2624,-16195,620,53,-24,-32
3,826,122145,-2652,-16209,610,54,-28,-32
3,827,122150,-2622,-16249,732,51,-27,-30
3,828,122155,-2543,-16275,881,56,-32,-30
3,829,122160,-2471,-16289,924,55,-34,-28
3,830,122165,-2478,-16321,904,55,-32,-26
3,831,122170,-2522,-16310,793,53,-29,-28
3,832,122175,-2583,-16283,705,52,-25,-29
3,833,122180,-2641,-16241,687,55,-22,-26
3,834,122185,-2618,-16158,668,56,-19,-23
3,835,122190,-2597,-16183,606,56,-19,-19
3,836,122195,-2654,-16157,624,58,-17,-22
3,837,122200,-2684,-16193,646,59,-20,-25
3,838,122205,-2689,-16219,628,59,-23,-22
3,839,122210,-2525,-16252,675,58,-24,-19
3,840,122215,-2475,-16253,790,56,-25,-19
3,841,122220,-2463,-16200,920,57,-27,-19
3,842,122225,-2566,-16170,901,57,-34,-19
3,843,122230,-2568,-16183,833,58,-43,-15
3,844,122235,-2587,-16185,770,58,-61,-14
3,845,122240,-2609,-16162,863,56,-73,-17
3,846,122245,-2598,-16180,965,54,-86,-17
3,847,122250,-2563,-16210,946,53,-97,-14
3,848,122255,-2554,-16253,1002,52,-106,-11
3,849,122260,-2528,-16347,1075,52,-108,-11
3,850,122265,-2505,-16405,1097,52,-115,-10
3,851,122270,-2511,-16402,1010,50,-115,-13
3,852,122275,-2524,-16364,910,48,-112,-14
3,853,122280,-2542,-16328,793,46,-110,-12
3,854,122285,-2630,-16319,677,47,-106,-10
3,855,122290,-2676,-16304,729,47,-100,-10
3,856,122295,-2687,-16291,789,46,-97,-9
3,857,122300,-2672,-16363,825,46,-89,-9
3,858,122305,-2613,-16389,753,48,-75,-8
3,859,122310,-2575,-16386,653,47,-52,-5
3,860,122315,-2621,-16357,632,48,-25,-8
3,861,122320,-2686,-16333,643,43,-4,-11
3,862,122325,-2689,-16266,674,44,15,-10
3,863,122330,-2627,-16219,675,48,32,-10
3,864,122335,-2588,-16198,646,49,44,-9
3,865,122340,-2583,-16152,699,50,54,-10
3,866,122345,-2627,-16121,778,47,53,-8
3,867,122350,-2651,-16143,815,45,51,-7
3,868,122355,-2622,-16191,853,47,46,-6
3,869,122360,-2580,-16281,918,45,42,-6
3,870,122365,-2598,-16331,1015,41,33,-5
3,871,122370,-2601,-16289,1075,40,22,-8
3,872,122375,-2594,-16296,1088,38,12,-8
3,873,122380,-2595,-16282,1052,38,2,-7
3,874,122385,-2560,-16297,1022,35,-3,-3
3,875,122390,-2560,-16253,948,33,-2,-8
3,876,122395,-2508,-16212,884,31,-6,-11
3,877,122400,-2464,-16161,747,29,-2,-7
3,878,122405,-2485,-16118,712,30,2,-8
3,879,122410,-2538,-16102,712,29,3,-8
3,880,122415,-2519,-16071,700,25,1,-6
3,881,122420,-2499,-16079,702,27,1,-6
3,882,122425,-2480,-16092,709,28,-2,-6
3,883,122430,-2480,-16066,743,26,-7,-6
3,884,122435,-2495,-16141,952,24,-9,-8
3,885,122440,-2486,-16218,1050,25,-14,-6
3,886,122445,-2412,-16263,1035,24,-7,-6
3,887,122450,-2373,-16312,1000,23,-2,-5
3,888,122455,-2495,-16301,919,19,6,-5
3,889,122460,-2437,-16281,918,16,11,-4
3,890,122465,-2405,-16242,909,15,15,-3
3,891,122470,-2416,-16212,824,17,14,-6
3,892,122475,-2394,-16214,831,13,16,-4
3,893,122480,-2478,-16232,826,12,14,-8
3,894,122485,-2451,-16226,824,12,9,-6
3,895,122490,-2345,-16241,868,11,9,0
3,896,122495,-2274,-16241,943,8,7,-2
3,897,122500,-2301,-16241,1002,6,6,-2
3,898,122505,-2382,-16264,993,5,2,-2
3,899,122510,-2403,-16247,961,3,-5,-3
3,900,122515,-2371,-16283,903,3,-8,0
3,901,122520,-2376,-16280,937,1,-11,2
3,902,122525,-2415,-16254,972,-3,-15,-2
3,903,122530,-2431,-16208,990,-3,-19,-1
3,904,122535,-2467,-16186,901,-4,-24,1
3,905,122540,-2506,-16160,789,-5,-24,-4
3,906,122545,-2441,-16128,693,-6,-26,-2
3,907,122550,-2431,-16137,632,-7,-24,-2
3,908,122555,-2408,-16136,642,-8,-20,-3
3,909,122560,-2419,-16104,788,-7,-20,-4
3,910,122565,-2440,-16084,848,-6,-14,-4
3,911,122570,-2393,-16146,812,-7,-11,-2
3,912,122575,-2408,-16167,898,-6,-11,-1
3,913,122580,-2382,-16244,976,-9,-14,-5
3,914,122585,-2386,-16284,1080,-13,-16,-4
3,915,122590,-2412,-16291,1160,-10,-22,-5
3,916,122595,-2395,-16309,1109,-13,-21,-5
3,917,122600,-2376,-16328,1029,-14,-27,-3
3,918,122605,-2380,-16323,932,-17,-27,-4
3,919,122610,-2363,-16338,930,-18,-26,-6
3,920,122615,-2405,-16346,879,-17,-22,-5
3,921,122620,-2397,-16341,797,-17,-17,-6
3,922,122625,-2389,-16308,864,-20,-13,-7
3,923,122630,-2401,-16324,907,-19,-8,-6
3,924,122635,-2379,-16334,927,-19,-6,-5
3,925,122640,-2396,-16331,943,-22,-4,-6
3,926,122645,-2408,-16369,979,-23,-5,-8
3,927,122650,-2391,-16366,905,-22,-5,-9
3,928,122655,-2433,-16347,865,-24,-9,-7
3,929,122660,-2475,-16358,828,-26,-12,-7
3,930,122665,-2462,-16339,849,-26,-17,-8
3,931,122670,-2436,-16337,875,-27,-19,-8
3,932,122675,-2393,-16364,939,-26,-18,-8
3,933,122680,-2375,-16382,976,-28,-15,-9
3,934,122685,-2390,-16374,957,-28,-15,-10
3,935,122690,-2395,-16425,899,-28,-10,-11
3,936,122695,-2447,-16435,869,-30,-8,-10
3,937,122700,-2402,-16328,845,-29,-3,-10
3,938,122705,-2368,-16307,847,-29,3,-10
3,939,122710,-2361,-16304,905,-29,4,-8
3,940,122715,-2399,-16286,941,-29,2,-9
3,941,122720,-2413,-16316,933,-29,1,-12
3,942,122725,-2410,-16335,932,-31,-1,-15
3,943,122730,-2373,-16365,1005,-33,-5,-12
3,944,122735,-2327,-16411,1093,-29,-6,-10
3,945,122740,-2356,-16451,1098,-29,-7,-12
