event_id,seq,ts_ms,ax,ay,az,gx,gy,gz
3,0,169996,617,-16410,2087,-1,7,-4
3,1,165001,342,-16292,1674,21,324,58
3,2,165006,282,-16344,1638,20,321,64
3,3,165011,370,-16406,1617,19,315,67
3,4,165016,443,-16488,1704,19,304,69
3,5,165021,275,-16538,1733,16,290,74
3,6,165026,122,-16588,1729,15,269,73
3,7,165031,-50,-16589,1682,14,247,72
3,8,165036,-90,-16613,1643,13,235,77
3,9,165041,-86,-16521,1708,12,219,81
3,10,165046,-11,-16510,1809,13,196,78
3,11,165051,109,-16571,1696,15,165,80
3,12,165056,138,-16613,1598,16,139,83
3,13,165061,153,-16603,1562,14,126,81
3,14,165066,53,-16532,1699,13,110,83
3,15,165071,108,-16550,1643,10,80,86
3,16,165076,303,-16577,1553,12,65,89
3,17,165081,422,-16542,1515,10,62,90
3,18,165086,344,-16509,1523,10,56,89
3,19,165091,245,-16559,1543,8,39,90
3,20,165096,289,-16600,1350,6,26,92
3,21,165101,400,-16578,1134,7,37,96
3,22,165106,478,-16621,1226,3,61,95
3,23,165111,512,-16580,1365,0,77,97
3,24,165116,322,-16572,1412,-3,85,98
3,25,165121,292,-16610,1326,-6,103,96
3,26,165126,313,-16598,1358,-4,130,101
3,27,165131,365,-16573,1574,-7,141,102
3,28,165136,449,-16595,1762,-10,131,101
3,29,165141,399,-16587,1739,-12,105,105
3,30,165146,314,-16584,1741,-10,80,105
3,31,165151,305,-16650,1752,-8,55,109
3,32,165156,346,-16630,1765,-7,18,114
3,33,165161,321,-16574,1774,-6,-21,115
3,34,165166,195,-16577,1789,-7,-94,118
3,35,165171,205,-16512,1651,-7,-112,116
3,36,165176,212,-16533,1527,-8,-112,119
3,37,165181,273,-16541,1398,-8,-105,120
3,38,165186,267,-16507,1390,-9,-89,122
3,39,165191,236,-16503,1333,-12,-64,116
3,40,165196,307,-16415,1248,-15,-32,116
3,41,165201,357,-16350,1153,-20,11,118
3,42,165206,381,-16339,1125,-23,42,119
3,43,165211,365,-16331,1225,-26,63,117
3,44,165216,362,-16320,1312,-26,80,119
3,45,165221,323,-16418,1407,-28,102,118
3,46,165226,205,-16423,1441,-31,128,114
3,47,165231,201,-16427,1443,-34,143,116
3,48,165236,72,-16405,1533,-36,148,115
3,49,165241,26,-16445,1677,-36,139,115
3,50,165246,9,-16505,1859,-36,119,116
3,51,165251,22,-16549,1915,-35,94,116
3,52,165256,90,-16523,1993,-35,65,112
3,53,165261,130,-16462,1990,-32,32,114
3,54,165266,112,-16444,1909,-30,-6,116
3,55,165271,105,-16439,1806,-33,-46,114
3,56,165276,37,-16439,1752,-30,-84,116
3,57,165281,92,-16361,1689,-27,-104,118
3,58,165286,182,-16396,1595,-26,-112,118
3,59,165291,146,-16325,1560,-32,-105,114
3,60,165296,157,-16382,1413,-34,-93,112
3,61,165301,173,-16427,1264,-36,-79,112
3,62,165306,168,-16453,1178,-37,-53,110
3,63,165311,192,-16465,1146,-42,-20,109
3,64,165316,125,-16472,1099,-43,9,110
3,65,165321,98,-16583,1014,-45,36,106
3,66,165326,28,-16599,1103,-48,72,101
3,67,165331,67,-16583,1271,-48,96,103
3,68,165336,74,-16640,1344,-48,112,100
3,69,165341,92,-16680,1371,-49,120,99
3,70,165346,56,-16753,1416,-50,123,97
3,71,165351,-17,-16705,1480,-49,110,94
3,72,165356,-103,-16625,1592,-47,84,93
3,73,165361,-110,-16573,1709,-49,53,92
3,74,165366,-108,-16529,1851,-49,24,93
3,75,165371,-52,-16472,1913,-47,-3,90
3,76,165376,-127,-16495,1820,-43,-19,90
3,77,165381,-185,-16448,1696,-44,-38,86
3,78,165386,-210,-16501,1674,-46,-58,87
3,79,165391,-128,-16501,1587,-45,-80,86
3,80,165396,-99,-16503,1577,-43,-101,85
3,81,165401,-75,-16470,1460,-45,-108,82
3,82,165406,-85,-16382,1381,-46,-109,80
3,83,165411,-104,-16447,1200,-47,-103,79
3,84,165416,-175,-16452,1100,-46,-80,73
3,85,165421,-192,-16429,1042,-47,-51,72
3,86,165426,-111,-16437,1092,-50,-18,71
3,87,165431,1,-16409,1177,-56,19,66
3,88,165436,26,-16473,1225,-54,46,61
3,89,165441,-6,-16522,1309,-56,66,57
3,90,165446,39,-16513,1363,-56,79,57
3,91,165451,165,-16421,1523,-57,80,55
3,92,165456,230,-16391,1682,-60,64,56
3,93,165461,185,-16409,1780,-61,39,55
3,94,165466,77,-16441,1697,-54,12,57
3,95,165471,-43,-16482,1619,-51,-11,58
3,96,165476,-85,-16474,1595,-54,-33,53
3,97,165481,-86,-16484,1617,-54,-58,52
3,98,165486,-90,-16449,1707,-50,-81,53
3,99,165491,-148,-16424,1723,-52,-102,49
3,100,165496,-195,-16418,1656,-52,-121,48
3,101,165501,-192,-16381,1554,-51,-126,46
3,102,165506,-161,-16390,1496,-50,-129,44
3,103,165511,-115,-16368,1442,-50,-140,43
3,104,165516,47,-16280,1310,-48,-144,40
3,105,165521,96,-16259,1193,-50,-139,38
3,106,165526,129,-16285,1080,-53,-120,39
3,107,165531,165,-16173,943,-55,-50,35
3,108,165536,85,-16171,884,-61,8,29
3,109,165541,73,-16167,896,-61,65,26
3,110,165546,88,-16232,1043,-62,103,25
3,111,165551,170,-16288,1192,-66,128,24
3,112,165556,220,-16350,1304,-65,141,25
3,113,165561,219,-16431,1411,-65,148,20
3,114,165566,122,-16537,1550,-64,141,18
3,115,165571,45,-16560,1647,-63,118,19
3,116,165576,96,-16533,1733,-59,81,18
3,117,165581,73,-16513,1832,-56,38,16
3,118,165586,85,-16473,1933,-56,-12,18
3,119,165591,85,-16416,1983,-54,-67,19
3,120,165596,71,-16364,1964,-52,-121,22
3,121,165601,42,-16304,1897,-46,-168,19
3,122,165606,-91,-16250,1861,-47,-214,20
3,123,165611,-95,-16199,1763,-46,-254,20
3,124,165616,-63,-16146,1612,-43,-281,22
3,125,165621,-62,-16203,1538,-43,-292,22
3,126,165626,-64,-16139,1493,-44,-292,16
3,127,165631,-68,-16142,1356,-44,-295,17
3,128,165636,93,-16116,1043,-42,-274,17
3,129,165641,90,-16128,888,-46,-239,13
3,130,165646,22,-16128,900,-52,-200,7
3,131,165651,-6,-16113,922,-55,-162,6
3,132,165656,-48,-16078,884,-54,-119,5
3,133,165661,-17,-16069,884,-59,-62,0
3,134,165666,-32,-16107,983,-60,-5,-5
3,135,165671,-76,-16209,1095,-60,30,-9
3,136,165676,-76,-16257,1187,-63,46,-9
3,137,165681,-127,-16318,1392,-63,53,-10
3,138,165686,-49,-16344,1520,-63,51,-12
3,139,165691,-62,-16407,1607,-63,43,-14
3,140,165696,-150,-16439,1687,-62,21,-16
3,141,165701,-218,-16489,1618,-62,-12,-19
3,142,165706,-292,-16496,1590,-56,-39,-22
3,143,165711,-289,-16450,1665,-57,-65,-23
3,144,165716,-328,-16478,1667,-55,-95,-24
3,145,165721,-358,-16490,1624,-54,-127,-26
3,146,165726,-412,-16519,1524,-54,-152,-27
3,147,165731,-390,-16487,1456,-51,-171,-28
3,148,165736,-334,-16484,1472,-50,-182,-32
3,149,165741,-341,-16537,1454,-47,-190,-34
3,150,165746,-334,-16568,1296,-48,-194,-38
3,151,165751,-264,-16547,1075,-51,-190,-41
3,152,165756,-329,-16542,1058,-50,-181,-43
3,153,165761,-319,-16623,1102,-50,-175,-45
3,154,165766,-236,-16633,1079,-50,-160,-47
3,155,165771,-96,-16646,1091,-50,-139,-51
3,156,165776,-108,-16633,1154,-54,-107,-55
3,157,165781,-52,-16691,1178,-55,-85,-57
3,158,165786,72,-16696,1147,-53,-66,-58
3,159,165791,99,-16693,1086,-53,-51,-60
3,160,165796,90,-16705,1188,-55,-42,-61
3,161,165801,110,-16728,1231,-53,-40,-61
3,162,165806,59,-16765,1227,-53,-42,-60
3,163,165811,69,-16778,1191,-50,-48,-63
3,164,165816,34,-16806,1186,-49,-50,-62
3,165,165821,16,-16835,1302,-49,-59,-63
3,166,165826,66,-16785,1352,-46,-72,-65
3,167,165831,151,-16746,1283,-40,-89,-62
3,168,165836,83,-16728,1210,-37,-96,-63
3,169,165841,73,-16744,1228,-37,-103,-64
3,170,165846,33,-16762,1225,-39,-112,-64
3,171,165851,106,-16685,1156,-41,-111,-62
3,172,165856,163,-16655,1122,-36,-97,-61
3,173,165861,206,-16660,1136,-38,-78,-65
3,174,165866,156,-16637,1143,-37,-61,-65
3,175,165871,127,-16618,1016,-36,-44,-64
3,176,165876,229,-16630,947,-38,-23,-62
3,177,165881,278,-16628,966,-38,2,-65
3,178,165886,294,-16634,1012,-41,22,-65
3,179,165891,259,-16590,1035,-41,37,-65
3,180,165896,53,-16595,1066,-38,83,-69
3,181,165901,70,-16611,1150,-41,96,-67
3,182,165906,152,-16648,1283,-39,100,-65
3,183,165911,183,-16659,1326,-38,93,-65
3,184,165916,146,-16664,1416,-34,82,-65
3,185,165921,80,-16659,1461,-34,60,-63
3,186,165926,79,-16655,1520,-31,35,-61
3,187,165931,176,-16598,1531,-26,4,-59
3,188,165936,216,-16511,1554,-26,-24,-59
3,189,165941,186,-16450,1485,-23,-55,-56
3,190,165946,67,-16452,1369,-22,-80,-53
3,191,165951,29,-16489,1298,-20,-91,-56
3,192,165956,63,-16456,1179,-17,-90,-56
3,193,165961,100,-16398,1132,-17,-88,-54
3,194,165966,197,-16361,1110,-18,-86,-56
3,195,165971,216,-16284,1080,-18,-82,-53
3,196,165976,235,-16260,998,-15,-69,-50
3,197,165981,294,-16281,973,-12,-50,-50
3,198,165986,270,-16303,937,-14,-25,-49
3,199,165991,261,-16339,932,-17,6,-49
3,200,165996,196,-16372,901,-20,36,-51
3,201,166001,140,-16285,883,-18,73,-56
3,202,166006,155,-16305,890,-18,103,-52
3,203,166011,100,-16361,976,-21,123,-51
3,204,166016,66,-16353,1194,-20,133,-51
3,205,166021,163,-16342,1296,-16,126,-49
3,206,166026,210,-16316,1413,-12,120,-51
3,207,166031,232,-16340,1461,-12,104,-50
3,208,166036,179,-16325,1548,-13,76,-47
3,209,166041,171,-16329,1599,-9,39,-41
3,210,166046,147,-16402,1623,-5,3,-40
3,211,166051,160,-16402,1589,-3,-31,-36
3,212,166056,116,-16362,1562,-1,-59,-40
3,213,166061,65,-16326,1514,3,-89,-37
3,214,166066,7,-16329,1345,3,-115,-33
3,215,166071,13,-16344,1201,2,-129,-34
3,216,166076,6,-16314,1134,3,-131,-32
3,217,166081,77,-16332,1105,4,-125,-29
3,218,166086,57,-16348,1036,4,-107,-30
3,219,166091,41,-16370,978,4,-84,-32
3,220,166096,67,-16393,842,3,-56,-35
3,221,166101,164,-16382,794,3,-20,-35
3,222,166106,255,-16422,882,1,19,-31
3,223,166111,225,-16447,932,2,47,-33
3,224,166116,197,-16486,1002,-2,69,-34
3,225,166121,138,-16496,1096,-2,89,-35
3,226,166126,144,-16483,1058,-3,104,-32
3,227,166131,160,-16604,1203,-5,124,-26
3,228,166136,154,-16572,1388,-4,123,-31
3,229,166141,132,-16608,1338,1,92,-27
3,230,166146,102,-16605,1359,5,68,-24
3,231,166151,26,-16588,1413,5,46,-25
3,232,166156,53,-16614,1481,6,22,-25
3,233,166161,-2,-16614,1449,8,3,-22
3,234,166166,30,-16581,1359,8,-13,-21
3,235,166171,-6,-16538,1281,12,-28,-24
3,236,166176,-17,-16545,1206,13,-49,-24
3,237,166181,-80,-16586,1210,13,-71,-21
3,238,166186,-22,-16586,1205,14,-80,-21
3,239,166191,40,-16588,1170,18,-77,-20
3,240,166196,-42,-16630,1147,16,-69,-22
3,241,166201,-147,-16644,1094,18,-63,-22
3,242,166206,-119,-16586,1025,15,-59,-22
3,243,166211,-31,-16568,1070,13,-47,-20
3,244,166216,29,-16580,1205,15,-37,-21
3,245,166221,121,-16623,1189,15,-39,-22
3,246,166226,189,-16551,1064,15,-40,-25
3,247,166231,249,-16539,1030,17,-27,-21
3,248,166236,224,-16543,1095,13,-9,-20
3,249,166241,205,-16498,1138,15,-7,-19
3,250,166246,303,-16505,1071,14,-7,-18
3,251,166251,288,-16576,1000,13,0,-15
3,252,166256,283,-16593,1079,15,8,-12
3,253,166261,243,-16570,1069,17,11,-15
3,254,166266,232,-16536,1097,19,7,-10
3,255,166271,249,-16524,1153,16,8,-10
3,256,166276,262,-16508,1246,19,1,-9
3,257,166281,230,-16458,1237,19,-6,-6
3,258,166286,123,-16455,1224,17,-14,-7
3,259,166291,87,-16452,1216,18,-18,-6
3,260,166296,105,-16359,1249,20,-22,-6
3,261,166301,109,-16335,1222,17,-28,-4
3,262,166306,243,-16280,1251,17,-30,-3
3,263,166311,241,-16285,1279,16,-32,-3
3,264,166316,242,-16291,1223,13,-35,-3
3,265,166321,262,-16308,1149,14,-37,-1
3,266,166326,233,-16351,1051,15,-30,1
3,267,166331,295,-16365,1036,13,-24,2
3,268,166336,327,-16397,1086,15,-19,4
3,269,166341,330,-16340,1121,13,-14,1
3,270,166346,275,-16321,1173,10,-4,4
3,271,166351,294,-16359,1112,11,4,7
3,272,166356,336,-16394,1118,13,10,7
3,273,166361,349,-16437,1121,15,12,11
3,274,166366,320,-16488,1054,14,8,15
3,275,166371,341,-16546,1010,12,8,15
3,276,166376,293,-16539,1014,11,15,13
3,277,166381,300,-16501,1060,11,21,12
3,278,166386,290,-16561,988,14,29,14
3,279,166391,253,-16610,949,13,32,15
3,280,166396,246,-16600,952,14,33,17
3,281,166401,253,-16526,1028,12,33,19
3,282,166406,240,-16484,1142,13,29,18
3,283,166411,262,-16513,1118,17,20,16
3,284,166416,262,-16426,1126,15,13,17
3,285,166421,202,-16469,1149,14,7,22
3,286,166426,143,-16470,1122,15,5,17
3,287,166431,159,-16411,1124,14,5,17
3,288,166436,124,-16395,1088,15,12,17
3,289,166441,137,-16371,1069,10,24,16
3,290,166446,176,-16337,1093,13,28,18
3,291,166451,238,-16245,1176,14,31,22
3,292,166456,215,-16241,1256,12,30,22
3,293,166461,208,-16260,1216,11,35,21
3,294,166466,155,-16313,1192,8,46,23
3,295,166471,88,-16388,1141,10,55,23
3,296,166476,43,-16435,1140,9,64,20
3,297,166481,101,-16414,1155,5,68,18
3,298,166486,120,-16418,1241,6,65,18
3,299,166491,81,-16469,1327,5,56,18
3,300,166496,78,-16425,1338,8,44,19
3,301,166501,144,-16439,1344,7,28,18
3,302,166506,170,-16438,1343,5,17,17
3,303,166511,114,-16444,1367,6,5,21
3,304,166516,0,-16396,1261,6,2,19
3,305,166521,-81,-16460,1186,6,6,17
3,306,166526,-104,-16478,1148,7,10,15
3,307,166531,-65,-16462,1217,7,7,17
3,308,166536,-61,-16489,1302,5,3,16
3,309,166541,-90,-16506,1350,2,-3,12
3,310,166546,-78,-16488,1292,3,-7,12
3,311,166551,-10,-16499,1256,2,-9,11
3,312,166556,61,-16520,1242,-2,-11,12
3,313,166561,62,-16553,1197,0,-17,8
3,314,166566,-14,-16616,1151,2,-23,7
3,315,166571,-53,-16659,1054,2,-22,8
3,316,166576,-83,-16581,1031,-2,-10,6
3,317,166581,-11,-16554,1143,-2,-6,4
3,318,166586,45,-16574,1199,-2,-6,3
3,319,166591,84,-16564,1153,0,-9,3
3,320,166596,68,-16538,1171,-2,-10,1
3,321,166601,51,-16553,1198,-2,-13,1
3,322,166606,129,-16562,1159,-2,-19,2
3,323,166611,103,-16622,1132,-1,-25,1
3,324,166616,133,-16585,1066,4,-26,0
3,325,166621,118,-16597,1065,3,-18,0
3,326,166626,156,-16519,1086,0,-6,-3
3,327,166631,221,-16509,1143,-1,1,-1
3,328,166636,216,-16548,1150,-1,7,-2
3,329,166641,236,-16536,1185,-3,8,-4
3,330,166646,206,-16538,1179,-3,5,-6
3,331,166651,164,-16538,1150,-3,4,-3
3,332,166656,154,-16577,1086,-3,0,-3
3,333,166661,178,-16649,1028,0,1,-5
3,334,166666,220,-16616,1056,3,-4,-4
3,335,166671,269,-16529,1151,2,-11,-2
3,336,166676,238,-16482,1219,1,-22,-3
3,337,166681,207,-16424,1197,-1,-26,-2
3,338,166686,145,-16427,1133,-2,-17,-5
3,339,166691,96,-16408,1133,-1,-9,-4
3,340,166696,87,-16437,1135,-1,-2,-4
3,341,166701,124,-16442,1146,-2,5,-4
3,342,166706,204,-16425,1209,-3,7,-4
3,343,166711,247,-16385,1248,0,8,-6
3,344,166716,330,-16336,1290,-2,1,-2
3,345,166721,277,-16368,1290,-3,-15,-2
3,346,166726,284,-16345,1277,-1,-24,0
3,347,166731,316,-16404,1273,0,-28,-1
3,348,166736,300,-16390,1199,1,-31,-2
3,349,166741,258,-16382,1173,1,-35,0
3,350,166746,192,-16409,1152,1,-36,-1
3,351,166751,163,-16378,1137,-5,-30,-4
3,352,166756,126,-16315,1201,-6,-17,-4
3,353,166761,79,-16353,1191,-4,-7,-1
3,354,166766,47,-16496,1136,-5,-3,-3
3,355,166771,6,-16609,1015,-4,4,-6
3,356,166776,61,-16693,955,-4,8,-5
3,357,166781,169,-16688,999,-5,4,-4
3,358,166786,233,-16614,1119,-1,-10,-7
3,359,166791,176,-16514,1149,3,-25,-7
3,360,166796,110,-16479,1240,3,-33,-7
3,361,166801,116,-16433,1179,1,-25,-5
3,362,166806,75,-16383,1112,-2,-11,-5
3,363,166811,112,-16351,1113,-2,-1,-6
3,364,166816,73,-16339,1111,-2,6,-10
3,365,166821,105,-16343,1199,-4,6,-9
3,366,166826,157,-16368,1287,-3,11,-8
3,367,166831,227,-16300,1339,-5,15,-9
3,368,166836,208,-16299,1403,-5,15,-9
3,369,166841,203,-16311,1396,-5,12,-7
3,370,166846,184,-16349,1340,-5,9,-9
3,371,166851,116,-16358,1278,-1,1,-9
3,372,166856,130,-16446,1196,-4,-4,-9
3,373,166861,128,-16490,1179,-5,-6,-9
3,374,166866,190,-16453,1185,-6,-14,-9
3,375,166871,173,-16434,1215,-5,-19,-11
3,376,166876,114,-16390,1257,-5,-18,-9
3,377,166881,118,-16352,1178,-4,-19,-10
3,378,166886,151,-16350,1167,0,-21,-7
3,379,166891,154,-16379,1109,-3,-20,-7
3,380,166896,205,-16381,1100,-2,-17,-8
3,381,166901,218,-16405,1137,-4,-14,-10
3,382,166906,183,-16332,1157,-3,-16,-7
3,383,166911,148,-16351,1186,-4,-12,-10
3,384,166916,138,-16331,1123,-7,1,-11
3,385,166921,149,-16364,1114,-7,13,-11
3,386,166926,195,-16423,1089,-4,21,-13
3,387,166931,232,-16438,1115,-2,26,-14
3,388,166936,283,-16383,1157,-6,23,-12
3,389,166941,325,-16307,1184,-5,18,-10
3,390,166946,309,-16275,1274,-4,14,-10
3,391,166951,256,-16263,1292,-7,9,-11
3,392,166956,247,-16332,1325,-5,7,-9
3,393,166961,260,-16315,1241,-3,7,-8
3,394,166966,248,-16350,1241,-4,6,-8
3,395,166971,212,-16385,1224,-7,5,-7
3,396,166976,174,-16422,1218,-8,2,-7
3,397,166981,194,-16437,1192,-6,-2,-7
3,398,166986,192,-16516,1137,-6,-1,-9
3,399,166991,91,-16615,999,-4,2,-7
3,400,166996,54,-16629,1046,-5,5,-11
3,401,167001,30,-16553,1078,-5,5,-14
3,402,167006,51,-16545,1136,-4,1,-10
3,403,167011,113,-16614,1139,-4,1,-10
3,404,167016,148,-16623,1072,-3,-2,-10
3,405,167021,143,-16648,1081,1,-9,-10
3,406,167026,124,-16620,1130,1,-15,-12
3,407,167031,91,-16554,1157,0,-22,-9
3,408,167036,31,-16519,1177,3,-27,-10
3,409,167041,-54,-16510,1132,5,-26,-14
3,410,167046,-131,-16508,1041,2,-21,-13
3,411,167051,-254,-16449,1035,-1,-13,-13
3,412,167056,-429,-16334,1107,2,-12,-14
3,413,167061,-538,-16260,1186,3,-30,-11
3,414,167066,-255,-16206,1275,4,-66,-6
3,415,167071,-62,-16137,1462,12,-124,-1
3,416,167076,-173,-16240,1470,20,-217,2
3,417,167081,-286,-16432,1784,28,-341,6
3,418,167086,30,-16551,2446,36,-487,26
3,419,167091,1417,-16361,2937,39,-635,45
3,420,167096,2381,-16035,2862,49,-752,63
3,421,167101,2534,-15976,1765,61,-848,75
3,422,167106,1424,-16064,742,63,-899,84
3,423,167111,436,-16221,-157,51,-899,103
3,424,167116,-383,-16417,-759,41,-788,120
3,425,167121,-528,-16754,-1305,36,-567,123
3,426,167126,-719,-17117,-1324,21,-298,116
3,427,167131,-967,-17319,-707,10,-93,109
3,428,167136,-1197,-17206,28,8,12,114
3,429,167141,-1323,-16877,897,5,43,123
3,430,167146,-1110,-16400,1915,0,34,140
3,431,167151,-914,-16204,2752,1,-20,157
3,432,167156,-818,-16193,3335,7,-135,172
3,433,167161,-645,-16225,3636,16,-318,198
3,434,167166,-60,-16025,3847,25,-543,233
3,435,167171,466,-15814,3860,34,-781,261
3,436,167176,186,-15819,3093,45,-990,286
3,437,167181,-561,-16001,1593,50,-1133,307
3,438,167186,-1098,-15991,156,44,-1162,333
3,439,167191,-1133,-15793,-423,38,-1070,353
3,440,167196,-1153,-15613,-408,30,-902,370
3,441,167201,-1080,-15531,-431,21,-715,382
3,442,167206,-949,-15398,-462,9,-514,396
3,443,167211,-995,-15164,-121,-8,-313,409
3,444,167216,-1312,-15104,530,-22,-152,428
3,445,167221,-1533,-15303,1186,-27,-56,453
3,446,167226,-1280,-15337,1748,-32,-19,480
3,447,167231,-802,-15306,2499,-41,-20,509
3,448,167236,-741,-15298,3162,-41,-84,533
3,449,167241,-1290,-15396,2801,-33,-226,567
3,450,167246,-1815,-15570,1839,-30,-356,605
3,451,167251,-1782,-15660,1315,-32,-420,642
3,452,167256,-1644,-15671,1354,-33,-437,672
3,453,167261,-1826,-15893,1229,-29,-444,701
3,454,167266,-2082,-16132,621,-26,-432,724
3,455,167271,-2156,-16072,127,-30,-372,740
3,456,167276,-2329,-16179,440,-37,-302,764
3,457,167281,-2349,-16323,1000,-41,-267,787
3,458,167286,-2386,-16323,1193,-38,-271,814
3,459,167291,-2306,-16390,1022,-32,-282,842
3,460,167296,-2552,-16327,1289,-33,-262,862
3,461,167301,-3001,-16361,1341,-31,-299,887
3,462,167306,-3093,-16445,1139,-27,-358,919
3,463,167311,-2719,-16410,960,-25,-387,949
3,464,167316,-2608,-16489,1215,-22,-385,968
3,465,167321,-2977,-16542,1289,-19,-391,981
3,466,167326,-3461,-16558,964,-20,-408,1003
3,467,167331,-3644,-16534,824,-15,-401,1024
3,468,167336,-3396,-16507,1208,-17,-372,1045
3,469,167341,-3157,-16490,1814,-17,-363,1065
3,470,167346,-3209,-16558,1844,-9,-400,1080
3,471,167351,-3614,-16618,1583,-3,-448,1093
3,472,167356,-3992,-16653,1605,2,-487,1112
3,473,167361,-3607,-16483,1993,12,-583,1145
3,474,167366,-3408,-16504,2003,21,-623,1157
3,475,167371,-3538,-16413,1779,26,-658,1163
3,476,167376,-3906,-16333,1506,27,-677,1172
3,477,167381,-4065,-16311,1247,33,-675,1180
3,478,167386,-3885,-16207,1139,32,-647,1189
3,479,167391,-3556,-16206,1068,31,-587,1191
3,480,167396,-3329,-16204,1331,30,-511,1186
3,481,167401,-3546,-16139,1327,27,-459,1180
3,482,167406,-4009,-16119,1261,27,-400,1176
3,483,167411,-4222,-16174,1528,28,-343,1173
3,484,167416,-3911,-16222,2016,25,-313,1168
3,485,167421,-3757,-16301,2466,27,-314,1161
3,486,167426,-3842,-16440,2670,35,-371,1151
3,487,167431,-4254,-16393,2884,40,-463,1138
3,488,167436,-4674,-16334,3258,40,-585,1131
3,489,167441,-4648,-16288,3691,51,-742,1125
3,490,167446,-4126,-16395,3710,68,-922,1121
3,491,167451,-3453,-16510,3588,88,-1109,1114
3,492,167456,-3154,-16577,3223,102,-1296,1099
3,493,167461,-3366,-16762,2337,118,-1461,1083
3,494,167466,-3607,-16916,1013,133,-1552,1070
3,495,167471,-3631,-17082,-171,138,-1511,1049
3,496,167476,-3453,-17304,-724,135,-1358,1020
3,497,167481,-3072,-17377,-1102,131,-1150,985
3,498,167486,-3106,-17544,-1276,129,-922,950
3,499,167491,-3331,-17639,-915,119,-696,906
3,500,167496,-3530,-17702,-350,111,-499,868
3,501,167501,-3327,-17649,521,107,-350,835
3,502,167506,-3209,-17623,1200,106,-289,800
3,503,167511,-3174,-17780,1555,106,-303,767
3,504,167516,-3407,-17747,2357,108,-344,730
3,505,167521,-3465,-17743,2676,118,-449,700
3,506,167526,-3500,-17766,2639,126,-550,671
3,507,167531,-3400,-17736,2083,134,-645,635
3,508,167536,-3252,-17625,2138,132,-709,593
3,509,167541,-3277,-17445,1694,132,-783,556
3,510,167546,-3236,-17242,1624,134,-798,516
3,511,167551,-3203,-17108,1076,133,-783,473
3,512,167556,-3057,-17000,822,126,-713,426
3,513,167561,-3070,-16754,895,117,-624,378
3,514,167566,-2992,-16746,1187,111,-554,333
3,515,167571,-2698,-16691,1310,102,-502,290
3,516,167576,-2237,-16596,1415,96,-439,241
3,517,167581,-2035,-16576,1361,88,-379,195
3,518,167586,-2319,-16522,1461,80,-334,145
3,519,167591,-2682,-16390,1501,73,-317,94
3,520,167596,-3071,-16056,1771,57,-296,50
3,521,167601,-2615,-15795,2121,53,-286,10
3,522,167606,-2193,-15898,2444,52,-301,-29
3,523,167611,-2018,-15857,2411,48,-355,-78
3,524,167616,-1926,-15776,2079,42,-410,-122
3,525,167621,-2311,-15634,1899,37,-439,-169
3,526,167626,-2621,-15460,2083,29,-456,-213
3,527,167631,-2564,-15321,2130,23,-467,-252
3,528,167636,-2044,-15214,2038,14,-456,-293
3,529,167641,-1654,-15172,1912,5,-441,-339
3,530,167646,-1533,-15173,2001,-2,-433,-383
3,531,167651,-1694,-15231,1868,-11,-429,-429
3,532,167656,-1961,-15274,1698,-26,-402,-471
3,533,167661,-2019,-15212,1567,-38,-339,-515
3,534,167666,-1752,-15134,1615,-47,-271,-560
3,535,167671,-1429,-15063,1786,-58,-225,-604
3,536,167676,-1388,-15020,1565,-68,-210,-641
3,537,167681,-1585,-15087,1269,-77,-168,-682
3,538,167686,-1868,-15188,1204,-88,-101,-728
3,539,167691,-2080,-15241,1414,-99,-30,-768
3,540,167696,-2063,-15306,1901,-111,25,-812
3,541,167701,-1834,-15345,2192,-114,34,-852
3,542,167706,-1576,-15317,2355,-117,22,-893
3,543,167711,-1526,-15354,2534,-124,-8,-931
3,544,167716,-1722,-15480,2334,-124,-67,-964
3,545,167721,-1988,-15561,1874,-126,-114,-994
3,546,167726,-2230,-15646,1764,-141,-63,-1067
3,547,167731,-2173,-15710,2185,-144,-35,-1103
3,548,167736,-2146,-15769,2468,-151,-43,-1144
3,549,167741,-2002,-15853,2586,-154,-82,-1178
3,550,167746,-1395,-16020,2516,-156,-138,-1204
3,551,167751,-765,-16252,2192,-151,-204,-1229
3,552,167756,-823,-16550,1747,-152,-256,-1264
3,553,167761,-1522,-16802,965,-158,-264,-1299
3,554,167766,-2052,-16830,280,-164,-194,-1331
3,555,167771,-1989,-16860,208,-172,-66,-1361
3,556,167776,-1558,-16814,910,-182,61,-1395
3,557,167781,-1148,-16951,1606,-183,121,-1425
3,558,167786,-1175,-17059,2038,-179,115,-1457
3,559,167791,-1373,-17063,2247,-174,70,-1485
3,560,167796,-1485,-17096,2170,-171,7,-1500
3,561,167801,-1355,-17162,2167,-166,-51,-1518
3,562,167806,-1068,-17298,1931,-164,-110,-1539
3,563,167811,-1135,-17332,1757,-160,-142,-1569
3,564,167816,-1226,-17276,1350,-163,-151,-1595
3,565,167821,-1157,-17322,1174,-166,-134,-1614
3,566,167826,-831,-17303,1134,-167,-100,-1633
3,567,167831,-392,-17324,1038,-170,-44,-1650
3,568,167836,-425,-17257,1035,-175,27,-1678
3,569,167841,-627,-17157,1261,-177,81,-1704
3,570,167846,-675,-17196,1603,-179,101,-1718
3,571,167851,-231,-17061,1903,-176,112,-1731
3,572,167856,340,-17046,2033,-174,115,-1741
3,573,167861,561,-17105,2029,-171,106,-1754
3,574,167866,279,-17139,1955,-168,82,-1767
3,575,167871,-15,-17150,1803,-167,53,-1779
3,576,167876,-52,-17065,1917,-168,42,-1786
3,577,167881,112,-16982,2049,-170,50,-1796
3,578,167886,410,-16843,2108,-168,48,-1807
3,579,167891,515,-16858,2013,-165,20,-1811
3,580,167896,410,-16835,1776,-169,-18,-1819
3,581,167901,349,-16860,1688,-170,-30,-1820
3,582,167906,550,-17009,1570,-168,-19,-1825
3,583,167911,1048,-17124,1416,-171,15,-1831
3,584,167916,1314,-17137,1325,-171,65,-1837
3,585,167921,1393,-17099,1494,-172,104,-1844
3,586,167926,1266,-17090,1567,-177,108,-1845
3,587,167931,1151,-17100,1591,-174,103,-1845
3,588,167936,1317,-17120,1614,-174,117,-1841
3,589,167941,1719,-16951,1755,-174,138,-1835
3,590,167946,2050,-17050,1927,-167,135,-1825
3,591,167951,2149,-17021,1589,-167,100,-1826
3,592,167956,1992,-17055,1414,-173,99,-1828
3,593,167961,1688,-17168,1471,-174,143,-1825
3,594,167966,1600,-17202,1531,-176,187,-1821
3,595,167971,1773,-17171,1468,-181,213,-1811
3,596,167976,2170,-17105,1656,-181,232,-1805
3,597,167981,2462,-16672,2031,-182,226,-1798
3,598,167986,-4655,-14713,-2422,-131,307,-1759
3,599,167991,709,-29432,-31451,305,1681,-2306
3,600,167996,-32768,-19633,-24994,-1183,11373,-1922
3,601,168001,-23292,-7974,26901,-1387,23394,26
3,602,168006,4076,4887,32767,-903,26801,169
3,603,168011,32767,-24197,32126,51,18326,211
3,604,168016,21181,-17870,17635,573,-846,-851
3,605,168021,-26205,-21603,13442,820,-10476,401
3,606,168026,-32768,-14967,32767,1424,-17441,870
3,607,168031,-7428,-2546,-14477,1725,-24428,1831
3,608,168036,32767,-24230,-32768,1346,-12828,3001
3,609,168041,26322,-21274,-28563,140,1199,353
3,610,168046,-9702,-20716,20143,-492,6198,-626
3,611,168051,-32768,-913,32767,154,-325,-673
3,612,168056,-8573,-14062,-17224,1588,-13286,2078
3,613,168061,20826,-22851,-32768,1234,-8496,1933
3,614,168066,15120,-19673,-31259,171,1645,95
3,615,168071,-5578,-15711,13279,-179,6539,-476
3,616,168076,-23904,-9975,32767,-114,5238,-270
3,617,168081,-4668,-13008,-434,437,-1085,868
3,618,168086,19481,-18978,-21205,497,-1636,1124
3,619,168091,-1237,-14576,26765,111,1616,56
3,620,168096,-12209,-12392,25023,360,-236,253
3,621,168101,-3164,-16861,-13417,531,-2553,810
3,622,168106,6837,-16861,-15166,350,-1340,686
3,623,168111,9723,-16018,4069,136,-64,433
3,624,168116,1888,-15279,17979,178,-42,299
3,625,168121,-3241,-15541,2954,355,-1157,386
3,626,168126,-2902,-16890,-13271,392,-1036,535
3,627,168131,1665,-15852,-8365,220,183,483
3,628,168136,5870,-14752,10755,117,873,392
3,629,168141,5943,-14876,15125,189,173,378
3,630,168146,1969,-16240,2321,321,-921,436
3,631,168151,-511,-16417,-9167,290,-880,455
3,632,168156,-1627,-14864,1695,171,84,401
3,633,168161,2434,-14578,7838,176,-76,470
3,634,168166,6001,-16004,4077,239,-477,507
3,635,168171,5261,-16883,-3218,248,-467,446
3,636,168176,1360,-16618,-3112,191,-34,380
3,637,168181,-1106,-15705,2073,139,212,396
3,638,168186,1258,-15905,2959,148,120,477
3,639,168191,4643,-17054,-484,169,195,501
3,640,168196,4945,-17678,-933,145,591,422
3,641,168201,2064,-17029,2646,108,770,353
3,642,168206,-268,-16751,4783,116,440,400
3,643,168211,393,-16493,3248,141,12,469
3,644,168216,2923,-16852,2058,148,-53,492
3,645,168221,3760,-16841,3354,129,67,455
3,646,168226,2476,-16592,4911,123,-73,430
3,647,168231,594,-16411,3037,136,-477,455
3,648,168236,5,-16450,373,140,-647,483
3,649,168241,746,-16570,349,116,-414,476
3,650,168246,1989,-16517,1861,97,-106,450
3,651,168251,2350,-16474,2934,84,-3,431
3,652,168256,1672,-16457,1736,76,-126,426
3,653,168261,855,-16309,1622,60,-170,427
3,654,168266,793,-16215,2165,44,-102,433
3,655,168271,1523,-16254,2665,33,11,422
3,656,168276,2066,-16381,2545,34,75,409
3,657,168281,1674,-16640,2056,27,37,401
3,658,168286,979,-16317,2052,10,-35,384
3,659,168291,616,-16307,2674,2,-42,393
3,660,168296,785,-16393,2497,1,-34,393
3,661,168301,1257,-16473,2474,-2,11,378
3,662,168306,1249,-16411,2569,-11,15,363
3,663,168311,968,-16296,3311,-18,-66,351
3,664,168316,592,-16212,3505,-20,-202,354
3,665,168321,635,-16132,3197,-19,-277,354
3,666,168326,883,-16087,3012,-22,-278,340
3,667,168331,1094,-16152,2859,-27,-293,331
3,668,168336,885,-16118,2723,-32,-350,322
3,669,168341,591,-16102,2372,-37,-396,313
3,670,168346,404,-16182,2223,-46,-349,300
3,671,168351,657,-16222,1969,-57,-238,284
3,672,168356,918,-16356,1949,-63,-111,273
3,673,168361,1055,-16310,2412,-76,-22,252
3,674,168366,1175,-16279,2286,-83,1,243
3,675,168371,1258,-16357,2440,-93,16,234
3,676,168376,869,-16266,2757,-95,31,217
3,677,168381,904,-16295,3002,-95,59,209
3,678,168386,994,-16369,2757,-94,80,204
3,679,168391,1377,-16315,2833,-96,58,195
3,680,168396,1367,-16162,3330,-95,-11,182
3,681,168401,1178,-16081,3300,-90,-118,179
3,682,168406,935,-16087,3034,-89,-189,179
3,683,168411,876,-16115,2597,-86,-208,171
3,684,168416,979,-16087,2601,-90,-202,162
3,685,168421,1183,-16124,2705,-88,-216,155
3,686,168426,1315,-16144,2447,-87,-239,149
3,687,168431,1078,-16111,2245,-90,-219,135
3,688,168436,964,-16173,2154,-91,-161,123
3,689,168441,1130,-16192,2114,-97,-96,115
3,690,168446,1491,-16223,2095,-98,-36,109
3,691,168451,1654,-16205,2181,-99,12,96
3,692,168456,1303,-16229,2370,-107,84,75
3,693,168461,1309,-16312,2168,-105,116,73
3,694,168466,1320,-16352,2200,-105,155,68
3,695,168471,1348,-16529,2405,-104,181,59
3,696,168476,995,-16538,2732,-102,183,50
3,697,168481,683,-16530,2876,-97,164,42
3,698,168486,376,-16433,3147,-93,137,34
3,699,168491,612,-16373,3504,-90,81,32
3,700,168496,1028,-16273,3768,-81,-9,31
3,701,168501,1192,-16309,3706,-70,-121,25
3,702,168506,992,-16355,3352,-66,-221,16
3,703,168511,614,-16321,2856,-62,-281,9
3,704,168516,370,-16240,2453,-59,-288,7
3,705,168521,515,-16181,2252,-63,-251,4
3,706,168526,934,-16200,2136,-64,-192,-7
3,707,168531,1104,-16215,2055,-61,-131,-16
3,708,168536,950,-16152,2044,-64,-67,-30
3,709,168541,704,-16180,2038,-68,5,-41
3,710,168546,646,-16204,2067,-68,75,-47
3,711,168551,847,-16165,2209,-70,144,-56
3,712,168556,1105,-16227,2494,-73,188,-60
3,713,168561,1110,-16250,2812,-72,199,-69
3,714,168566,935,-16286,2895,-67,183,-73
3,715,168571,872,-16344,2875,-63,156,-72
3,716,168576,850,-16249,2945,-58,127,-79
3,717,168581,946,-16175,2984,-53,94,-77
3,718,168586,976,-16123,2961,-46,52,-82
3,719,168591,948,-16063,2809,-41,6,-88
3,720,168596,857,-16080,2683,-37,-22,-85
3,721,168601,725,-16061,2646,-34,-33,-87
3,722,168606,682,-16022,2462,-34,-33,-93
3,723,168611,703,-15916,2491,-33,-23,-95
3,724,168616,808,-15870,2557,-29,-16,-96
3,725,168621,856,-15854,2480,-28,-10,-100
3,726,168626,778,-15783,2430,-30,8,-106
3,727,168631,705,-15810,2331,-34,40,-107
3,728,168636,687,-15759,2329,-34,77,-111
3,729,168641,811,-15683,2406,-37,120,-114
3,730,168646,868,-15591,2463,-41,160,-115
3,731,168651,891,-15617,2512,-45,196,-117
3,732,168656,767,-15688,2474,-47,241,-122
3,733,168661,674,-15755,2397,-45,280,-124
3,734,168666,574,-15837,2603,-48,306,-126
3,735,168671,570,-15883,2850,-50,307,-126
3,736,168676,553,-15843,3132,-47,280,-127
3,737,168681,456,-15811,3294,-43,227,-126
3,738,168686,352,-15787,3322,-41,149,-121
3,739,168691,419,-15750,3329,-39,65,-119
3,740,168696,362,-15828,3236,-36,-16,-117
3,741,168701,278,-15963,3041,-34,-82,-115
3,742,168706,146,-16063,2678,-31,-118,-118
3,743,168711,152,-16094,2285,-33,-130,-117
3,744,168716,351,-16202,2173,-32,-125,-114
3,745,168721,567,-16274,2173,-32,-112,-116
3,746,168726,667,-16355,2085,-36,-97,-118
3,747,168731,689,-16420,1901,-36,-73,-116
3,748,168736,715,-16487,1736,-38,-40,-114
3,749,168741,734,-16528,1814,-40,-5,-113
3,750,168746,861,-16571,1911,-44,21,-110
3,751,168751,956,-16693,1967,-42,44,-106
3,752,168756,951,-16825,1929,-39,60,-106
3,753,168761,984,-16871,1951,-38,65,-103
3,754,168766,996,-16823,2002,-38,59,-99
3,755,168771,999,-16815,2139,-38,44,-94
3,756,168776,1030,-16760,2255,-38,28,-90
3,757,168781,1070,-16703,2089,-34,17,-83
3,758,168786,1007,-16739,1912,-34,16,-80
3,759,168791,875,-16680,2014,-35,16,-78
3,760,168796,802,-16701,2013,-34,17,-73
3,761,168801,749,-16748,1873,-34,34,-67
3,762,168806,759,-16691,2022,-33,56,-69
3,763,168811,804,-16579,2197,-33,60,-66
3,764,168816,895,-16498,2440,-32,39,-60
3,765,168821,996,-16359,2362,-32,-8,-47
3,766,168826,923,-16418,2253,-31,-2,-45
3,767,168831,792,-16388,2094,-36,13,-43
3,768,168836,722,-16391,2048,-37,30,-38
3,769,168841,702,-16422,2084,-38,51,-34
3,770,168846,780,-16501,2147,-43,82,-35
3,771,168851,798,-16584,2199,-45,114,-34
3,772,168856,752,-16612,2225,-47,127,-32
3,773,168861,660,-16548,2333,-49,123,-29
3,774,168866,667,-16479,2452,-46,100,-22
3,775,168871,727,-16462,2552,-43,71,-18
3,776,168876,796,-16531,2499,-42,44,-17
3,777,168881,685,-16575,2406,-41,19,-15
3,778,168886,508,-16583,2294,-40,-1,-13
3,779,168891,466,-16532,2325,-43,-22,-8
3,780,168896,532,-16436,2379,-41,-33,0
3,781,168901,581,-16392,2358,-42,-34,1
3,782,168906,643,-16408,2225,-42,-27,1
3,783,168911,579,-16455,2146,-42,-9,0
3,784,168916,484,-16444,2144,-46,11,-3
3,785,168921,408,-16407,2280,-49,32,2
3,786,168926,547,-16395,2360,-51,52,5
3,787,168931,696,-16410,2377,-50,67,7
3,788,168936,769,-16419,2375,-52,83,5
3,789,168941,686,-16358,2456,-58,89,6
3,790,168946,630,-16416,2396,-55,78,11
3,791,168951,624,-16475,2281,-56,75,15
3,792,168956,587,-16490,2236,-58,95,11
3,793,168961,515,-16495,2271,-56,116,8
3,794,168966,429,-16562,2285,-56,114,10
3,795,168971,347,-16660,2330,-52,112,12
3,796,168976,416,-16710,2353,-52,103,9
3,797,168981,401,-16606,2506,-56,90,7
3,798,168986,371,-16566,2686,-56,62,8
3,799,168991,415,-16483,2559,-51,24,13
3,800,168996,393,-16484,2446,-45,-6,13
3,801,169001,411,-16455,2380,-47,-26,12
3,802,169006,427,-16374,2316,-44,-46,14
3,803,169011,437,-16349,2242,-42,-54,15
3,804,169016,543,-16325,2117,-42,-49,14
3,805,169021,616,-16313,2087,-44,-32,12
3,806,169026,684,-16326,2148,-45,-13,13
3,807,169031,756,-16327,2143,-49,7,11
3,808,169036,776,-16370,2141,-48,28,13
3,809,169041,750,-16317,2187,-47,50,12
3,810,169046,777,-16329,2213,-47,63,13
3,811,169051,805,-16372,2281,-47,64,17
3,812,169056,794,-16407,2286,-46,65,18
3,813,169061,782,-16481,2375,-44,55,15
3,814,169066,775,-16435,2387,-40,41,15
3,815,169071,782,-16407,2384,-38,19,18
3,816,169076,723,-16389,2371,-37,-6,19
3,817,169081,669,-16407,2304,-34,-23,20
3,818,169086,628,-16412,2224,-33,-36,20
3,819,169091,610,-16374,2173,-32,-38,24
3,820,169096,619,-16354,2113,-30,-33,23
3,821,169101,662,-16370,2069,-27,-28,22
3,822,169106,721,-16419,2100,-30,-17,21
3,823,169111,772,-16397,2046,-28,-13,22
3,824,169116,723,-16363,2041,-25,-5,22
3,825,169121,690,-16322,2095,-25,5,20
3,826,169126,695,-16310,2088,-23,14,20
3,827,169131,792,-16290,2087,-21,22,24
3,828,169136,865,-16303,2170,-23,30,27
3,829,169141,864,-16285,2222,-21,35,26
3,830,169146,773,-16394,2193,-18,33,24
3,831,169151,696,-16476,2150,-18,33,22
3,832,169156,645,-16491,2166,-13,31,25
3,833,169161,668,-16446,2273,-12,29,26
3,834,169166,732,-16404,2379,-11,14,22
3,835,169171,775,-16394,2344,-11,-13,25
3,836,169176,722,-16381,2294,-7,-33,28
3,837,169181,711,-16421,2292,-4,-44,27
3,838,169186,650,-16381,2263,-5,-50,27
3,839,169191,535,-16374,2097,-2,-42,26
3,840,169196,556,-16423,2067,-3,-23,26
3,841,169201,583,-16423,2119,-3,-5,20
3,842,169206,583,-16387,2170,-4,10,21
3,843,169211,607,-16400,2154,-1,24,22
3,844,169216,571,-16428,2180,-4,36,20
3,845,169221,579,-16459,2250,-7,47,18
3,846,169226,648,-16478,2309,-3,49,17
3,847,169231,628,-16478,2347,-1,41,16
3,848,169236,660,-16451,2381,0,27,15
3,849,169241,633,-16446,2367,1,9,15
3,850,169246,588,-16430,2327,2,-12,17
3,851,169251,632,-16419,2293,5,-25,17
3,852,169256,628,-16437,2254,7,-36,17
3,853,169261,685,-16471,2201,8,-38,18
3,854,169266,711,-16439,2178,10,-33,17
3,855,169271,701,-16367,2135,7,-31,18
3,856,169276,724,-16356,2077,10,-25,19
3,857,169281,765,-16443,1996,10,-12,17
3,858,169286,707,-16514,2048,10,3,15
3,859,169291,683,-16531,2078,10,16,13
3,860,169296,727,-16435,2201,11,22,10
3,861,169301,813,-16364,2366,13,7,13
3,862,169306,903,-16367,2402,12,-19,16
3,863,169311,910,-16394,2341,15,-41,19
3,864,169316,849,-16437,2207,16,-55,19
3,865,169321,745,-16392,2101,20,-60,16
3,866,169326,716,-16329,2034,20,-54,17
3,867,169331,740,-16319,2009,20,-44,20
3,868,169336,800,-16352,1998,18,-27,22
3,869,169341,807,-16368,2027,18,-3,17
3,870,169346,676,-16394,1952,17,14,16
3,871,169351,625,-16437,1966,16,27,17
3,872,169356,657,-16402,2092,16,36,16
3,873,169361,726,-16347,2232,17,35,18
3,874,169366,796,-16322,2337,18,26,19
3,875,169371,790,-16332,2328,20,9,20
3,876,169376,661,-16408,2236,21,-5,19
3,877,169381,623,-16517,2113,21,-11,18
3,878,169386,667,-16522,2032,24,-11,17
3,879,169391,735,-16449,2050,24,-8,17
3,880,169396,813,-16356,2164,27,-6,17
3,881,169401,789,-16296,2120,26,-15,17
3,882,169406,736,-16311,2091,24,-17,16
3,883,169411,644,-16317,2066,23,-12,20
3,884,169416,568,-16337,2018,22,2,20
3,885,169421,551,-16439,2048,23,17,17
3,886,169426,514,-16484,2125,22,28,13
3,887,169431,529,-16489,2265,21,27,13
3,888,169436,516,-16411,2486,23,13,11
3,889,169441,549,-16371,2559,22,-8,13
3,890,169446,573,-16340,2522,21,-32,11
3,891,169451,530,-16333,2439,23,-50,12
3,892,169456,504,-16269,2387,21,-60,12
3,893,169461,413,-16269,2357,19,-65,12
3,894,169466,422,-16291,2127,20,-59,10
3,895,169471,445,-16298,1904,19,-37,8
3,896,169476,466,-16445,1963,17,-17,7
3,897,169481,570,-16501,2138,12,-6,5
3,898,169486,653,-16421,2258,12,-7,2
3,899,169491,666,-16382,2332,15,-10,4
3,900,169496,623,-16341,2361,15,-21,3
3,901,169501,647,-16340,2309,14,-41,7
3,902,169506,739,-16339,2240,12,-63,8
3,903,169511,716,-16416,2148,15,-72,6
3,904,169516,635,-16468,2101,15,-70,6
3,905,169521,586,-16520,2010,15,-59,3
3,906,169526,603,-16498,1923,14,-44,1
3,907,169531,674,-16433,1922,11,-28,5
3,908,169536,696,-16446,1908,10,-18,5
3,909,169541,713,-16569,1915,12,-4,4
3,910,169546,753,-16612,1913,13,11,5
3,911,169551,801,-16576,2036,11,26,3
3,912,169556,759,-16442,2158,13,32,1
3,913,169561,728,-16436,2123,11,22,2
3,914,169566,793,-16363,2140,12,8,4
3,915,169571,828,-16356,2187,12,-1,5
3,916,169576,757,-16363,2152,12,-3,7
3,917,169581,636,-16318,2096,13,-2,5
3,918,169586,554,-16345,2072,11,5,4
3,919,169591,579,-16317,2198,9,17,4
3,920,169596,618,-16265,2307,7,25,5
3,921,169601,649,-16281,2333,7,28,3
3,922,169606,602,-16312,2320,10,29,2
3,923,169611,584,-16279,2323,8,22,3
3,924,169616,489,-16284,2361,7,14,3
3,925,169621,578,-16312,2389,7,3,2
3,926,169626,600,-16318,2345,6,-5,2
3,927,169631,550,-16313,2328,4,-7,3
3,928,169636,558,-16325,2328,4,-18,1
3,929,169641,514,-16278,2248,7,-36,1
3,930,169646,523,-16218,2247,7,-43,1
3,931,169651,494,-16252,2214,6,-40,0
3,932,169656,499,-16273,2201,7,-38,-1
3,933,169661,515,-16314,2135,6,-29,-2
3,934,169666,525,-16283,2112,3,-24,-1
3,935,169671,476,-16274,2143,1,-20,-7
3,936,169676,468,-16243,2210,2,-22,-6
3,937,169681,552,-16300,2194,3,-19,-3
3,938,169686,627,-16335,2149,3,-15,-4
3,939,169691,669,-16324,2134,5,-21,-5
3,940,169696,671,-16284,2166,3,-29,-6
3,941,169701,664,-16280,2197,5,-40,-4
3,942,169706,668,-16353,2133,2,-34,-3
3,943,169711,664,-16362,2052,5,-21,-6
3,944,169716,656,-16396,1961,2,-14,-6
3,945,169721,625,-16417,1985,0,-16,-5
3,946,169726,620,-16423,2093,3,-18,-4
3,947,169731,655,-16403,2198,4,-21,-5
3,948,169736,727,-16386,2240,4,-23,-6
3,949,169741,711,-16362,2224,7,-31,-7
3,950,169746,685,-16300,2226,10,-50,-6
3,951,169751,666,-16293,2183,8,-63,-4
3,952,169756,611,-16284,2109,9,-68,0
3,953,169761,624,-16278,2081,8,-64,-3
3,954,169766,677,-16250,2024,10,-52,-4
3,955,169771,659,-16173,2051,7,-38,-5
3,956,169776,674,-16150,2052,6,-26,-4
3,957,169781,684,-16204,2010,7,-10,-3
3,958,169786,659,-16272,2012,3,7,-5
3,959,169791,692,-16272,2060,1,22,-7
3,960,169796,738,-16286,2220,2,33,-7
3,961,169801,739,-16297,2352,4,33,-6
3,962,169806,759,-16250,2309,7,30,-6
3,963,169811,715,-16245,2301,3,30,-6
3,964,169816,696,-16211,2250,4,23,-3
3,965,169821,686,-16186,2258,3,11,-4
3,966,169826,629,-16294,2180,4,-1,-2
3,967,169831,571,-16353,2102,4,3,-1
3,968,169836,557,-16403,2113,7,12,-4
3,969,169841,460,-16377,2235,3,15,-5
3,970,169846,469,-16367,2250,3,7,-5
3,971,169851,530,-16383,2278,5,-5,-1
3,972,169856,526,-16333,2259,6,-12,0
3,973,169861,526,-16351,2169,4,-13,-4
3,974,169866,464,-16379,2143,6,-12,-5
3,975,169871,463,-16365,2110,3,-5,-6
3,976,169876,481,-16391,2132,3,4,-5
3,977,169881,557,-16423,2321,0,6,-8
3,978,169886,677,-16403,2397,2,-4,-6
3,979,169891,679,-16380,2315,3,-18,-3
3,980,169896,636,-16399,2190,1,-21,-3
3,981,169901,599,-16317,2151,3,-18,-7
3,982,169906,520,-16333,2053,3,-10,-7
3,983,169911,552,-16334,2085,2,-4,-5
3,984,169916,615,-16355,2110,1,6,-2
3,985,169921,560,-16390,2242,-3,18,-7
3,986,169926,490,-16404,2261,1,10,-5
3,987,169931,506,-16449,2171,-3,12,-6
3,988,169936,559,-16434,2194,-3,12,-5
3,989,169941,573,-16454,2198,-3,8,-8
3,990,169946,609,-16419,2227,0,-3,-7
3,991,169951,578,-16401,2173,0,-12,-7
3,992,169956,568,-16400,2190,-2,-18,-5
3,993,169961,617,-16403,2232,0,-20,-2
3,994,169966,656,-16378,2236,-2,-23,-5
3,995,169971,688,-16342,2184,-1,-22,-4
3,996,169976,661,-16298,2168,0,-19,-2
3,997,169981,599,-16276,2152,0,-15,-2
3,998,169986,586,-16304,2121,-2,-10,-4
3,999,169991,567,-16331,2072,-2,-3,-5
