event_id,seq,ts_ms,ax,ay,az,gx,gy,gz
5,0,606892,2621,-16009,-2081,-25,-143,1
5,1,606897,2536,-16016,-2170,-25,-138,1
5,2,606902,2435,-16057,-2337,-22,-128,2
5,3,606907,2451,-16061,-2396,-23,-119,3
5,4,606912,2468,-16062,-2330,-27,-106,3
5,5,606917,2490,-16106,-2210,-29,-92,4
5,6,606922,2500,-16135,-2114,-24,-89,4
5,7,606927,2501,-16166,-2080,-22,-94,3
5,8,606932,2496,-16133,-2152,-20,-104,5
5,9,606937,2465,-16134,-2231,-18,-119,5
5,10,606942,2419,-16114,-2250,-19,-127,6
5,11,606947,2443,-16016,-2284,-21,-131,7
5,12,606952,2466,-16028,-2350,-20,-126,8
5,13,606957,2493,-16059,-2331,-19,-117,5
5,14,606962,2490,-16040,-2333,-18,-109,8
5,15,606967,2430,-15991,-2326,-18,-107,7
5,16,606972,2412,-15919,-2282,-16,-110,7
5,17,606977,2470,-15911,-2287,-16,-110,9
5,18,606982,2490,-15924,-2263,-14,-111,8
5,19,606987,2473,-15918,-2237,-15,-115,5
5,20,606992,2415,-15943,-2203,-14,-125,7
5,21,606997,2404,-15937,-2230,-13,-139,8
5,22,607002,2402,-15976,-2372,-9,-146,11
5,23,607007,2487,-15966,-2360,-10,-140,11
5,24,607012,2531,-15984,-2343,-10,-133,12
5,25,607017,2543,-15999,-2263,-7,-131,11
5,26,607022,2551,-16005,-2219,-7,-136,11
5,27,607027,2531,-16005,-2161,-6,-145,16
5,28,607032,2526,-16008,-2107,-3,-157,16
5,29,607037,2524,-16016,-2170,-4,-167,14
5,30,607042,2531,-15998,-2238,-5,-171,15
5,31,607047,2585,-15914,-2220,-5,-174,19
5,32,607052,2578,-15870,-2227,-5,-176,20
5,33,607057,2624,-15824,-2155,-6,-174,22
5,34,607062,2663,-15806,-2129,-5,-175,23
5,35,607067,2712,-15819,-2021,-4,-180,25
5,36,607072,2732,-15802,-1929,-3,-193,26
5,37,607077,2701,-15812,-1749,-4,-218,27
5,38,607082,2637,-15773,-1676,-2,-257,32
5,39,607087,2652,-15811,-1700,0,-295,36
5,40,607092,2684,-15848,-1788,2,-336,39
5,41,607097,2682,-15909,-1787,1,-372,40
5,42,607102,2687,-15986,-1959,2,-408,43
5,43,607107,2659,-15996,-2037,5,-431,47
5,44,607112,2626,-15957,-2041,4,-437,48
5,45,607117,2591,-15984,-2362,4,-455,50
5,46,607122,2559,-15967,-2416,2,-453,48
5,47,607127,2522,-16008,-2177,1,-450,50
5,48,607132,2511,-16016,-2185,-1,-456,52
5,49,607137,2559,-15971,-2101,-1,-466,55
5,50,607142,2555,-16035,-2025,2,-487,59
5,51,607147,2515,-16065,-2003,1,-515,56
5,52,607152,2467,-16083,-1930,2,-554,57
5,53,607157,2496,-16023,-1846,4,-597,64
5,54,607162,2579,-15998,-1759,7,-638,70
5,55,607167,2632,-16002,-1711,8,-681,72
5,56,607172,2561,-16034,-1596,8,-733,76
5,57,607177,2375,-16054,-1563,11,-802,77
5,58,607182,2244,-16135,-1662,16,-881,80
5,59,607187,2188,-16240,-2063,19,-937,85
5,60,607192,2138,-16381,-2544,21,-960,86
5,61,607197,2157,-16407,-2906,19,-949,87
5,62,607202,2110,-16362,-3076,15,-912,84
5,63,607207,2086,-16406,-3263,15,-860,81
5,64,607212,2023,-16574,-3359,13,-801,80
5,65,607217,2006,-16599,-3062,4,-737,80
5,66,607222,1905,-16574,-2570,-1,-694,73
5,67,607227,1727,-16579,-2264,-2,-678,71
5,68,607232,1685,-16618,-2343,-2,-685,75
5,69,607237,1823,-16508,-2404,3,-694,74
5,70,607242,1847,-16482,-2384,0,-704,73
5,71,607247,1850,-16471,-2371,2,-714,71
5,72,607252,1881,-16404,-2391,0,-728,68
5,73,607257,1970,-16351,-2349,1,-738,69
5,74,607262,1956,-16389,-2355,3,-736,73
5,75,607267,1990,-16426,-2188,2,-743,73
5,76,607272,2004,-16277,-2013,4,-768,72
5,77,607277,2056,-16172,-2178,1,-801,76
5,78,607282,2043,-16115,-1961,0,-817,77
5,79,607287,2061,-16107,-1836,3,-847,83
5,80,607292,1916,-16324,-1702,3,-892,84
5,81,607297,1654,-16506,-1720,9,-949,85
5,82,607302,1535,-16485,-2269,13,-1009,90
5,83,607307,1530,-16336,-3194,9,-1004,87
5,84,607312,1618,-16210,-3692,5,-923,83
5,85,607317,1600,-16219,-4040,-1,-816,76
5,86,607322,1554,-16217,-4124,-7,-699,74
5,87,607327,1398,-16243,-3914,-13,-594,70
5,88,607332,1270,-16372,-3831,-15,-490,63
5,89,607337,1305,-16232,-3693,-26,-405,54
5,90,607342,1321,-16111,-3230,-26,-321,52
5,91,607347,1347,-16040,-2820,-25,-267,49
5,92,607352,1359,-16017,-2559,-25,-257,48
5,93,607357,1396,-16065,-2344,-26,-272,47
5,94,607362,1300,-16053,-2263,-24,-285,47
5,95,607367,1321,-16096,-2314,-19,-300,50
5,96,607372,1766,-16118,-2708,-23,-303,47
5,97,607377,1753,-16086,-2254,-25,-301,45
5,98,607382,1613,-16060,-2491,-15,-337,49
5,99,607387,1547,-16072,-2952,-9,-346,49
5,100,607392,1374,-16202,-2725,-12,-309,47
5,101,607397,1239,-16325,-2617,-11,-287,50
5,102,607402,1245,-16393,-2748,-14,-271,48
5,103,607407,1300,-16309,-2859,-22,-253,46
5,104,607412,1361,-16290,-3033,-15,-223,44
5,105,607417,1398,-16328,-3483,-13,-172,42
5,106,607422,1245,-16380,-3628,-14,-87,39
5,107,607427,1060,-16378,-3288,-16,-9,32
5,108,607432,1222,-16228,-3120,-19,39,30
5,109,607437,1462,-16134,-3050,-22,92,30
5,110,607442,1552,-16076,-2996,-22,126,27
5,111,607447,1462,-16101,-2610,-20,162,23
5,112,607452,1335,-16107,-2277,-24,161,22
5,113,607457,1319,-16072,-1922,-26,136,25
5,114,607462,1399,-16040,-1859,-24,91,28
5,115,607467,1554,-16050,-2017,-24,37,28
5,116,607472,1545,-16031,-2011,-22,8,29
5,117,607477,1454,-16078,-1984,-18,-27,30
5,118,607482,1455,-16131,-2134,-19,-72,33
5,119,607487,1479,-16192,-2500,-15,-101,36
5,120,607492,1500,-16190,-2624,-13,-97,35
5,121,607497,1502,-16176,-2719,-15,-80,37
5,122,607502,1460,-16150,-2728,-14,-52,35
5,123,607507,1400,-16169,-2759,-15,-20,33
5,124,607512,1484,-16175,-2941,-17,-9,33
5,125,607517,1489,-16091,-3022,-17,16,33
5,126,607522,1406,-16041,-2880,-19,48,30
5,127,607527,1347,-16039,-2818,-19,67,30
5,128,607532,1356,-16020,-2740,-19,85,31
5,129,607537,1421,-16013,-2723,-21,99,27
5,130,607542,1459,-15963,-2708,-21,108,26
5,131,607547,1366,-16022,-2408,-21,110,26
5,132,607552,1327,-16094,-2324,-19,87,24
5,133,607557,1397,-16147,-2474,-20,74,25
5,134,607562,1512,-16114,-2238,-19,70,24
5,135,607567,1530,-16096,-2258,-18,45,24
5,136,607572,1440,-16160,-2405,-17,18,24
5,137,607577,1425,-16189,-2412,-16,-1,26
5,138,607582,1503,-16214,-2496,-17,-23,29
5,139,607587,1622,-16233,-2413,-16,-23,29
5,140,607592,1624,-16238,-2391,-11,-25,27
5,141,607597,1652,-16227,-2620,-8,-33,27
5,142,607602,1601,-16240,-2776,-6,-25,28
5,143,607607,1480,-16254,-2735,-8,-14,27
5,144,607612,1405,-16281,-2662,-8,-12,28
5,145,607617,1499,-16308,-2656,-9,-16,28
5,146,607622,1546,-16301,-2662,-8,-4,25
5,147,607627,1457,-16270,-2731,-6,13,23
5,148,607632,1397,-16272,-2785,-8,31,22
5,149,607637,1391,-16265,-2768,-10,47,23
5,150,607642,1478,-16216,-2608,-14,62,21
5,151,607647,1497,-16172,-2395,-14,64,18
5,152,607652,1532,-16181,-2322,-13,49,17
5,153,607657,1456,-16172,-2329,-12,29,14
5,154,607662,1492,-16145,-2515,-10,6,18
5,155,607667,1593,-16116,-2514,-9,-7,18
5,156,607672,1659,-16062,-2356,-10,-23,17
5,157,607677,1655,-16057,-2234,-8,-44,19
5,158,607682,1611,-16077,-2278,-5,-74,21
5,159,607687,1553,-16093,-2464,-4,-101,20
5,160,607692,1429,-16111,-2636,-2,-116,19
5,161,607697,1403,-16220,-2801,-3,-120,20
5,162,607702,1493,-16230,-2890,-4,-107,19
5,163,607707,1544,-16254,-2972,-4,-82,17
5,164,607712,1483,-16285,-2959,-5,-48,13
5,165,607717,1375,-16326,-2988,-5,-13,9
5,166,607722,1341,-16223,-2961,-7,18,10
5,167,607727,1281,-16199,-2824,-7,41,6
5,168,607732,1333,-16225,-2593,-12,55,4
5,169,607737,1396,-16204,-2427,-10,52,1
5,170,607742,1385,-16221,-2338,-6,12,0
5,171,607747,1426,-16162,-2501,-7,-13,-1
5,172,607752,1421,-16158,-2627,-6,-30,-1
5,173,607757,1442,-16166,-2631,-6,-36,-1
5,174,607762,1459,-16232,-2718,-9,-42,-4
5,175,607767,1497,-16191,-2627,-10,-44,-8
5,176,607772,1494,-16198,-2672,-7,-49,-7
5,177,607777,1465,-16225,-2698,-6,-47,-8
5,178,607782,1411,-16225,-2767,-6,-52,-11
5,179,607787,1405,-16209,-2802,-8,-55,-12
5,180,607792,1371,-16180,-2689,-8,-52,-8
5,181,607797,1417,-16214,-2796,-5,-47,-8
5,182,607802,1514,-16215,-2821,-6,-32,-13
5,183,607807,1515,-16265,-2738,-5,-22,-13
5,184,607812,1411,-16171,-2696,-7,-22,-14
5,185,607817,1379,-16158,-2789,-6,-28,-17
5,186,607822,1409,-16163,-2816,-4,-21,-17
5,187,607827,1510,-16168,-2802,-4,-8,-19
5,188,607832,1508,-16196,-2763,-3,5,-21
5,189,607837,1544,-16221,-2810,-6,8,-23
5,190,607842,1547,-16140,-2834,-12,4,-23
5,191,607847,1454,-16158,-2735,-11,7,-26
5,192,607852,1393,-16158,-2743,-11,9,-26
5,193,607857,1455,-16154,-2846,-11,14,-25
5,194,607862,1550,-16146,-2828,-11,24,-27
5,195,607867,1593,-16120,-2797,-12,33,-28
5,196,607872,1479,-16080,-2661,-16,33,-26
5,197,607877,1370,-16108,-2597,-15,25,-25
5,198,607882,1405,-16122,-2646,-13,18,-25
5,199,607887,1462,-16160,-2618,-15,16,-24
5,200,607892,1480,-16094,-2570,-12,12,-25
5,201,607897,1537,-16013,-2514,-15,-1,-28
5,202,607902,1470,-16052,-2588,-12,-23,-26
5,203,607907,1389,-16120,-2709,-7,-41,-25
5,204,607912,1421,-16135,-2784,-9,-52,-23
5,205,607917,1454,-16077,-2797,-9,-56,-25
5,206,607922,1426,-16098,-2828,-6,-53,-23
5,207,607927,1390,-16114,-2869,-5,-50,-24
5,208,607932,1387,-16140,-2868,-8,-45,-24
5,209,607937,1422,-16161,-2835,-7,-39,-26
5,210,607942,1399,-16131,-2770,-9,-29,-27
5,211,607947,1406,-16119,-2723,-8,-27,-29
5,212,607952,1372,-16199,-2719,-6,-34,-30
5,213,607957,1426,-16119,-2769,-8,-42,-27
5,214,607962,1411,-16081,-2788,-9,-47,-27
5,215,607967,1358,-16109,-2897,-6,-46,-24
5,216,607972,1326,-16111,-2954,-6,-35,-24
5,217,607977,1349,-16135,-3003,-7,-22,-26
5,218,607982,1406,-16172,-3010,-7,-4,-28
5,219,607987,1370,-16275,-2978,-5,10,-30
5,220,607992,1418,-16274,-2845,-5,23,-32
5,221,607997,1404,-16213,-2660,-4,29,-32
5,222,608002,1417,-16235,-2668,-4,28,-31
5,223,608007,1423,-16207,-2602,-1,23,-28
5,224,608012,1370,-16181,-2411,1,10,-29
5,225,608017,1366,-16086,-2447,2,-15,-26
5,226,608022,1375,-16064,-2584,4,-31,-26
5,227,608027,1371,-16090,-2496,3,-38,-25
5,228,608032,1430,-16172,-2628,6,-58,-24
5,229,608037,1412,-16170,-2804,8,-69,-24
5,230,608042,1357,-16126,-2854,9,-68,-24
5,231,608047,1317,-16083,-3086,11,-61,-25
5,232,608052,1321,-16063,-3158,11,-29,-26
5,233,608057,1374,-16081,-3096,7,10,-28
5,234,608062,1430,-16106,-2956,5,39,-27
5,235,608067,1467,-16093,-2810,6,48,-29
5,236,608072,1414,-16062,-2695,9,46,-28
5,237,608077,1363,-16077,-2613,7,38,-28
5,238,608082,1352,-16028,-2664,7,30,-29
5,239,608087,1413,-16036,-2683,10,26,-24
5,240,608092,1516,-16060,-2649,12,23,-27
5,241,608097,1650,-16060,-2620,9,21,-26
5,242,608102,1665,-16066,-2552,10,18,-25
5,243,608107,1555,-16099,-2522,13,12,-25
5,244,608112,1434,-16058,-2557,11,-1,-22
5,245,608117,1491,-16073,-2455,11,-4,-19
5,246,608122,1605,-16071,-2416,5,-11,-17
5,247,608127,1596,-16071,-2411,10,-19,-16
5,248,608132,1560,-16056,-2427,10,-32,-17
5,249,608137,1503,-16102,-2574,9,-44,-13
5,250,608142,1431,-16126,-2681,8,-52,-10
5,251,608147,1466,-16200,-2699,10,-55,-10
5,252,608152,1458,-16218,-2761,9,-55,-7
5,253,608157,1443,-16222,-2802,9,-53,-9
5,254,608162,1404,-16201,-3033,10,-42,-11
5,255,608167,1390,-16156,-3173,12,-17,-12
5,256,608172,1364,-16115,-3083,10,15,-13
5,257,608177,1338,-16169,-2915,9,36,-13
5,258,608182,1346,-16197,-2743,6,41,-11
5,259,608187,1390,-16209,-2568,8,36,-10
5,260,608192,1369,-16194,-2499,9,24,-12
5,261,608197,1373,-16175,-2703,12,7,-11
5,262,608202,1429,-16139,-2735,11,11,-12
5,263,608207,1472,-16123,-2643,9,9,-8
5,264,608212,1553,-16152,-2621,8,-6,-7
5,265,608217,1580,-16180,-2704,11,-11,-8
5,266,608222,1544,-16163,-2697,11,-14,-9
5,267,608227,1428,-16147,-2715,12,-20,-6
5,268,608232,1380,-16217,-2791,15,-23,-3
5,269,608237,1436,-16283,-2872,16,-25,-3
5,270,608242,1541,-16207,-2922,14,-21,-4
5,271,608247,1618,-16161,-2883,15,-2,-5
5,272,608252,1541,-16145,-2832,15,17,-4
5,273,608257,1417,-16125,-2862,14,24,-3
5,274,608262,1338,-16153,-2881,16,30,-2
5,275,608267,1308,-16190,-2835,13,31,-4
5,276,608272,1405,-16146,-2681,13,31,-4
5,277,608277,1513,-16107,-2598,13,26,0
5,278,608282,1536,-16107,-2775,17,22,2
5,279,608287,1421,-16106,-2799,17,29,0
5,280,608292,1362,-16119,-2834,16,30,-3
5,281,608297,1430,-16083,-2810,14,23,-1
5,282,608302,1558,-16111,-2700,14,21,4
5,283,608307,1606,-16172,-2617,14,15,5
5,284,608312,1507,-16195,-2562,13,10,0
5,285,608317,1346,-16204,-2608,18,2,-1
5,286,608322,1317,-16162,-2707,18,-14,6
5,287,608327,1412,-16091,-2853,15,-16,5
5,288,608332,1531,-16066,-2863,13,-2,5
5,289,608337,1520,-16115,-2787,14,9,5
5,290,608342,1524,-16072,-2810,14,14,4
5,291,608347,1517,-16044,-2914,15,18,5
5,292,608352,1462,-16028,-2814,15,27,3
5,293,608357,1441,-16069,-2802,13,33,5
5,294,608362,1452,-16157,-2648,13,41,8
5,295,608367,1520,-16158,-2477,11,36,9
5,296,608372,1554,-16103,-2454,8,29,6
5,297,608377,1531,-16105,-2479,8,19,5
5,298,608382,1486,-16132,-2444,10,12,8
5,299,608387,1459,-16156,-2549,11,-4,10
5,300,608392,1525,-16154,-2602,9,-20,11
5,301,608397,1548,-16178,-2736,8,-30,11
5,302,608402,1594,-16153,-2811,6,-29,9
5,303,608407,1571,-16126,-2742,7,-24,13
5,304,608412,1502,-16099,-2754,9,-22,12
5,305,608417,1497,-16173,-2774,8,-18,12
5,306,608422,1487,-16249,-2803,4,-19,13
5,307,608427,1537,-16182,-2680,5,-16,13
5,308,608432,1543,-16131,-2721,5,-13,13
5,309,608437,1448,-16169,-2772,7,-7,12
5,310,608442,1427,-16198,-2893,6,5,13
5,311,608447,1437,-16252,-2948,6,23,12
5,312,608452,1468,-16234,-2723,0,43,12
5,313,608457,1518,-16167,-2559,-2,44,13
5,314,608462,1529,-16142,-2502,-2,43,10
5,315,608467,1473,-16193,-2535,-1,39,7
5,316,608472,1415,-16218,-2653,2,21,10
5,317,608477,1505,-16195,-2743,-4,7,12
5,318,608482,1610,-16125,-2622,-3,8,12
5,319,608487,1689,-16116,-2506,-4,11,13
5,320,608492,1630,-16144,-2509,-2,6,14
5,321,608497,1574,-16144,-2532,-3,-8,14
5,322,608502,1519,-16154,-2457,-3,-26,18
5,323,608507,1481,-16195,-2409,-4,-49,16
5,324,608512,1547,-16249,-2464,-1,-68,18
5,325,608517,1573,-16308,-2650,1,-78,19
5,326,608522,1539,-16348,-2843,-1,-70,17
5,327,608527,1443,-16332,-2967,-6,-48,17
5,328,608532,1440,-16264,-2968,-5,-24,14
5,329,608537,1447,-16274,-2913,-9,-6,17
5,330,608542,1467,-16251,-2882,-10,9,17
5,331,608547,1431,-16248,-2878,-7,25,14
5,332,608552,1341,-16190,-2868,-9,31,13
5,333,608557,1347,-16085,-2848,-8,36,12
5,334,608562,1427,-16060,-2874,-12,40,10
5,335,608567,1430,-16071,-2752,-9,38,16
5,336,608572,1417,-16029,-2595,-9,26,15
5,337,608577,1428,-15980,-2584,-10,5,14
5,338,608582,1463,-15978,-2666,-10,-11,11
5,339,608587,1448,-16034,-2900,-6,-24,13
5,340,608592,1393,-16073,-3008,-8,-18,15
5,341,608597,1367,-16144,-2985,-7,-7,15
5,342,608602,1441,-16165,-3001,-9,0,12
5,343,608607,1457,-16125,-2975,-10,20,12
5,344,608612,1405,-16153,-2873,-7,44,13
5,345,608617,1388,-16180,-2935,-5,63,14
5,346,608622,1433,-16143,-2711,-9,80,13
5,347,608627,1504,-16115,-2570,-10,84,11
5,348,608632,1455,-16118,-2370,-9,77,10
5,349,608637,1305,-16109,-2187,-9,56,11
5,350,608642,1350,-16091,-2401,-8,18,16
5,351,608647,1403,-16048,-2571,-7,7,17
5,352,608652,1435,-16090,-2521,-7,8,16
5,353,608657,1386,-16113,-2574,-5,-8,17
5,354,608662,1368,-16044,-2774,-3,-24,19
5,355,608667,1364,-16036,-2910,-7,-26,21
5,356,608672,1349,-16037,-2971,-6,-16,24
5,357,608677,1314,-16045,-2872,-5,-2,23
5,358,608682,1223,-16011,-2791,-5,7,21
5,359,608687,1162,-16045,-2798,-6,10,22
5,360,608692,1112,-16046,-2720,-8,10,23
5,361,608697,1117,-16130,-2728,-7,6,26
5,362,608702,1156,-16139,-2718,-7,2,26
5,363,608707,1107,-16094,-2744,-8,1,29
5,364,608712,1005,-16080,-2804,-9,1,31
5,365,608717,986,-16126,-2932,-7,9,32
5,366,608722,1123,-16085,-2957,-11,27,32
5,367,608727,1230,-16012,-2836,-13,63,31
5,368,608732,1097,-16021,-2620,-15,89,34
5,369,608737,957,-16074,-2443,-17,97,35
5,370,608742,941,-16076,-2283,-19,80,41
5,371,608747,1025,-16047,-2199,-19,46,49
5,372,608752,1136,-16039,-2105,-19,10,55
5,373,608757,1170,-16085,-1997,-21,-27,60
5,374,608762,1084,-16134,-2069,-18,-77,66
5,375,608767,918,-16151,-2361,-16,-124,75
5,376,608772,979,-16080,-2673,-19,-154,84
5,377,608777,1173,-16084,-2917,-22,-161,93
5,378,608782,1256,-16113,-2968,-26,-149,100
5,379,608787,1063,-16113,-2992,-26,-139,109
5,380,608792,825,-16225,-3115,-26,-146,117
5,381,608797,568,-16272,-3310,-33,-144,127
5,382,608802,686,-16296,-3508,-42,-119,137
5,383,608807,857,-16226,-3421,-47,-63,148
5,384,608812,869,-16138,-3304,-52,-2,151
5,385,608817,498,-16087,-3200,-57,36,158
5,386,608822,300,-16063,-3247,-59,37,168
5,387,608827,426,-15945,-3204,-63,31,182
5,388,608832,718,-15923,-2824,-68,30,193
5,389,608837,727,-15980,-2416,-72,14,206
5,390,608842,606,-16065,-2278,-72,-27,218
5,391,608847,434,-16065,-2748,-76,-152,247
5,392,608852,527,-16029,-2939,-80,-186,264
5,393,608857,601,-16033,-2920,-88,-195,280
5,394,608862,566,-16088,-2878,-92,-198,295
5,395,608867,507,-16080,-3109,-99,-200,309
5,396,608872,689,-16014,-3349,-107,-185,326
5,397,608877,815,-15976,-3215,-114,-159,342
5,398,608882,674,-15982,-2986,-123,-136,355
5,399,608887,277,-15988,-2800,-128,-132,367
5,400,608892,111,-15945,-2872,-138,-145,385
5,401,608897,234,-15903,-3062,-143,-164,408
5,402,608902,352,-15899,-3128,-153,-164,423
5,403,608907,277,-15893,-3071,-161,-158,437
5,404,608912,97,-15907,-3066,-169,-164,452
5,405,608917,16,-15864,-3289,-173,-184,467
5,406,608922,13,-15868,-3580,-182,-183,482
5,407,608927,-136,-15858,-3546,-193,-155,499
5,408,608932,-249,-15866,-3458,-204,-136,514
5,409,608937,-272,-15807,-3330,-213,-127,526
5,410,608942,-318,-15864,-3412,-215,-138,544
5,411,608947,-370,-15879,-3561,-223,-152,558
5,412,608952,-362,-15890,-3615,-234,-150,573
5,413,608957,-340,-15832,-3349,-247,-143,589
5,414,608962,-454,-15950,-3340,-253,-150,603
5,415,608967,-580,-15962,-3408,-258,-158,616
5,416,608972,-809,-15933,-3543,-265,-178,627
5,417,608977,-914,-15903,-3903,-272,-201,644
5,418,608982,-884,-15880,-4125,-282,-197,658
5,419,608987,-873,-15894,-4196,-289,-175,672
5,420,608992,-878,-15834,-4235,-299,-151,684
5,421,608997,-838,-15759,-4214,-310,-127,696
5,422,609002,-911,-15763,-4142,-317,-105,706
5,423,609007,-1123,-15748,-4013,-326,-97,715
5,424,609012,-1295,-15759,-4026,-332,-103,729
5,425,609017,-1408,-15775,-4107,-337,-111,741
5,426,609022,-1386,-15789,-4186,-345,-116,752
5,427,609027,-1349,-15831,-4318,-355,-112,763
5,428,609032,-1407,-15884,-4296,-363,-102,774
5,429,609037,-1462,-15938,-4246,-370,-87,783
5,430,609042,-1643,-16026,-4196,-375,-76,791
5,431,609047,-1639,-16056,-4229,-382,-78,800
5,432,609052,-1551,-16020,-4181,-393,-84,812
5,433,609057,-1634,-16042,-4064,-397,-93,823
5,434,609062,-1860,-16110,-4130,-403,-107,830
5,435,609067,-1914,-16090,-4359,-408,-123,840
5,436,609072,-1861,-16141,-4487,-419,-123,851
5,437,609077,-1866,-16298,-4648,-426,-108,857
5,438,609082,-1976,-16296,-4516,-431,-77,865
5,439,609087,-2015,-16252,-4382,-438,-73,872
5,440,609092,-1997,-16247,-4624,-445,-75,877
5,441,609097,-2009,-16231,-4672,-448,-57,882
5,442,609102,-2165,-16282,-4883,-457,-42,886
5,443,609107,-2392,-16255,-4679,-464,-15,890
5,444,609112,-2413,-16254,-4625,-467,-21,898
5,445,609117,-2360,-16181,-4885,-472,-29,900
5,446,609122,-2440,-16228,-4827,-477,-13,904
5,447,609127,-2647,-16332,-5005,-482,-7,907
5,448,609132,-2671,-16252,-5117,-491,12,907
5,449,609137,-2642,-16218,-4736,-496,32,910
5,450,609142,-2592,-16241,-4621,-499,30,911
5,451,609147,-2628,-16183,-4588,-503,28,910
5,452,609152,-2787,-16091,-4509,-508,20,907
5,453,609157,-2859,-16014,-4494,-508,-4,907
5,454,609162,-2850,-16007,-4581,-507,-38,912
5,455,609167,-2723,-16033,-4399,-509,-72,914
5,456,609172,-2567,-16002,-4488,-507,-111,915
5,457,609177,-2712,-16019,-4632,-507,-137,909
5,458,609182,-3059,-16068,-4955,-501,-156,907
5,459,609187,-3321,-16107,-5631,-500,-173,909
5,460,609192,-3195,-16168,-6188,-510,-148,908
5,461,609197,-2817,-16157,-5978,-518,-65,902
5,462,609202,-2643,-16082,-5535,-519,15,894
5,463,609207,-2983,-16096,-5137,-515,67,883
5,464,609212,-3410,-16079,-5504,-511,80,872
5,465,609217,-3317,-15790,-5520,-514,105,861
5,466,609222,-3031,-15811,-5063,-518,124,854
5,467,609227,-2929,-15873,-4451,-514,120,846
5,468,609232,-3026,-15899,-4486,-506,77,836
5,469,609237,-3269,-15796,-4837,-497,28,826
5,470,609242,-3410,-15633,-5309,-492,-12,820
5,471,609247,-3178,-15414,-5296,-492,-18,813
5,472,609252,-2913,-15201,-4623,-489,-16,804
5,473,609257,-2916,-15191,-4162,-477,-46,795
5,474,609262,-3325,-15294,-4289,-461,-121,782
5,475,609267,-3577,-15309,-4777,-449,-207,775
5,476,609272,-3519,-15312,-5226,-441,-271,774
5,477,609277,-3263,-15442,-5451,-439,-289,767
5,478,609282,-3051,-15481,-5337,-432,-258,751
5,479,609287,-3092,-15477,-5365,-423,-212,738
5,480,609292,-3423,-15512,-5785,-413,-168,719
5,481,609297,-3735,-15561,-6188,-407,-115,700
5,482,609302,-3756,-15550,-6259,-407,-57,684
5,483,609307,-3606,-15426,-5810,-405,15,667
5,484,609312,-3455,-15377,-5278,-402,81,647
5,485,609317,-3456,-15359,-5222,-388,116,627
5,486,609322,-3576,-15301,-5349,-376,138,604
5,487,609327,-3698,-15120,-5229,-370,141,587
5,488,609332,-3725,-15036,-4873,-364,121,569
5,489,609337,-3562,-14942,-4417,-353,90,555
5,490,609342,-3463,-14817,-3939,-341,45,536
5,491,609347,-3383,-14729,-4092,-318,-39,522
5,492,609352,-3451,-14606,-4541,-300,-125,505
5,493,609357,-3775,-14543,-4792,-284,-196,488
5,494,609362,-3964,-14566,-5193,-267,-267,473
5,495,609367,-3912,-14559,-5551,-257,-296,455
5,496,609372,-3557,-14550,-5667,-245,-264,435
5,497,609377,-3402,-14595,-5900,-231,-202,412
5,498,609382,-3601,-14680,-6109,-220,-131,382
5,499,609387,-4075,-14735,-6170,-209,-71,353
5,500,609392,-4341,-14758,-6156,-201,-27,332
5,501,609397,-4195,-14786,-6213,-193,32,308
5,502,609402,-3788,-14756,-6049,-184,124,280
5,503,609407,-3653,-14708,-5584,-171,221,252
5,504,609412,-3812,-14762,-5287,-160,270,223
5,505,609417,-3941,-14676,-5006,-148,265,197
5,506,609422,-3964,-14636,-4744,-130,223,177
5,507,609427,-3864,-14625,-4533,-116,180,155
5,508,609432,-3680,-14583,-4334,-100,143,132
5,509,609437,-3601,-14520,-4276,-81,98,110
5,510,609442,-3549,-14574,-4481,-61,34,89
5,511,609447,-3581,-14670,-4647,-44,-32,69
5,512,609452,-3479,-14661,-4790,-26,-92,47
5,513,609457,-3463,-14680,-4730,-12,-128,28
5,514,609462,-3509,-14719,-4730,4,-152,4
5,515,609467,-3561,-14788,-4986,25,-163,-16
5,516,609472,-3556,-14831,-5401,42,-163,-42
5,517,609477,-3569,-14877,-5648,52,-156,-68
5,518,609482,-3555,-14835,-5609,62,-133,-89
5,519,609487,-3587,-14816,-5491,76,-100,-114
5,520,609492,-3587,-14854,-5491,91,-56,-142
5,521,609497,-3655,-14918,-5622,110,-8,-169
5,522,609502,-3710,-14877,-5662,120,33,-197
5,523,609507,-3674,-14855,-5512,131,67,-221
5,524,609512,-3570,-14904,-5177,142,92,-246
5,525,609517,-3510,-14962,-4846,157,104,-271
5,526,609522,-3545,-14981,-4589,174,103,-299
5,527,609527,-3533,-15056,-4537,190,81,-324
5,528,609532,-3499,-15117,-4495,207,48,-346
5,529,609537,-3359,-15144,-4399,221,2,-367
5,530,609542,-3200,-15153,-4320,239,-47,-391
5,531,609547,-3219,-15181,-4291,254,-93,-414
5,532,609552,-3347,-15254,-4721,270,-134,-439
5,533,609557,-3350,-15326,-5182,283,-145,-459
5,534,609562,-3153,-15295,-5067,294,-124,-484
5,535,609567,-2993,-15359,-5191,310,-104,-508
5,536,609572,-2958,-15407,-5317,316,-77,-536
5,537,609577,-3098,-15423,-4852,330,-44,-561
5,538,609582,-3027,-15355,-4955,357,-26,-612
5,539,609587,-3074,-15335,-4705,368,-20,-636
5,540,609592,-3032,-15304,-4720,383,-39,-659
5,541,609597,-3012,-15269,-4708,398,-58,-684
5,542,609602,-2919,-15339,-4893,410,-70,-708
5,543,609607,-2851,-15416,-5037,421,-62,-731
5,544,609612,-2746,-15430,-4638,427,-39,-754
5,545,609617,-2745,-15374,-3806,440,-31,-778
5,546,609622,-2318,-15180,-3168,475,-125,-794
5,547,609627,-2134,-15596,-5725,485,-234,-814
5,548,609632,-2573,-15453,-3901,471,-147,-848
5,549,609637,-2620,-15533,-4095,491,-182,-864
5,550,609642,-2316,-15784,-4523,496,-197,-883
5,551,609647,-2087,-15904,-4164,503,-183,-906
5,552,609652,-1915,-15953,-4421,517,-207,-930
5,553,609657,-2113,-15927,-4468,528,-206,-956
5,554,609662,-2342,-15972,-4479,530,-197,-978
5,555,609667,-2388,-15885,-4343,534,-178,-999
5,556,609672,-2142,-15837,-4232,541,-162,-1019
5,557,609677,-1835,-15816,-4279,547,-157,-1040
5,558,609682,-1869,-15750,-4310,554,-156,-1062
5,559,609687,-1984,-15716,-4276,566,-167,-1082
5,560,609692,-2034,-15654,-4385,574,-181,-1101
5,561,609697,-1986,-15551,-4676,577,-172,-1123
5,562,609702,-1795,-15537,-4659,581,-135,-1142
5,563,609707,-1683,-15481,-4370,588,-99,-1161
5,564,609712,-1678,-15480,-4148,595,-93,-1185
5,565,609717,-1659,-15409,-3897,601,-110,-1202
5,566,609722,-1609,-15381,-3870,609,-141,-1218
5,567,609727,-1593,-15364,-3910,615,-171,-1233
5,568,609732,-1521,-15303,-3867,623,-185,-1248
5,569,609737,-1394,-15322,-3814,633,-203,-1262
5,570,609742,-1286,-15375,-3918,638,-226,-1282
5,571,609747,-1294,-15366,-4013,641,-242,-1298
5,572,609752,-1426,-15388,-3939,644,-250,-1313
5,573,609757,-1542,-15496,-4221,652,-255,-1325
5,574,609762,-1386,-15517,-4519,650,-238,-1342
5,575,609767,-1226,-15501,-4412,647,-186,-1357
5,576,609772,-1064,-15603,-4292,647,-136,-1372
5,577,609777,-1078,-15677,-3878,650,-95,-1386
5,578,609782,-937,-15798,-3784,652,-92,-1399
5,579,609787,-920,-15803,-3742,659,-94,-1406
5,580,609792,-935,-15913,-3505,659,-94,-1419
5,581,609797,-981,-15953,-3551,658,-104,-1426
5,582,609802,-822,-16093,-3259,665,-113,-1430
5,583,609807,-677,-16174,-3368,674,-144,-1436
5,584,609812,-499,-16297,-3297,680,-155,-1439
5,585,609817,-593,-16480,-3753,682,-159,-1448
5,586,609822,-698,-16607,-3576,684,-131,-1451
5,587,609827,-589,-16721,-3370,684,-110,-1451
5,588,609832,-386,-16831,-3597,674,-91,-1456
5,589,609837,-511,-17013,-3319,676,-35,-1457
5,590,609842,-373,-17116,-3466,682,-7,-1454
5,591,609847,3,-17140,-3547,675,29,-1455
5,592,609852,231,-17059,-2729,668,92,-1455
5,593,609857,251,-17203,-2785,668,98,-1452
5,594,609862,79,-17167,-2171,667,107,-1451
5,595,609867,31,-17124,-1724,672,52,-1438
5,596,609872,168,-17067,-2287,672,-34,-1425
5,597,609877,379,-17021,-2057,675,-80,-1415
5,598,609882,449,-17007,-2094,672,-142,-1405
5,599,609887,361,-17001,-2315,671,-203,-1394
5,600,609892,240,-17070,-2609,666,-232,-1380
5,601,609897,410,-17094,-2807,662,-252,-1368
5,602,609902,871,-16923,-6196,557,-190,-1382
5,603,609907,131,-17168,-2419,551,108,-1365
5,604,609912,285,-16986,-1659,579,33,-1348
5,605,609917,505,-17195,-4257,589,-90,-1328
5,606,609922,476,-17009,-3421,570,6,-1317
5,607,609927,680,-17167,-3324,588,51,-1287
5,608,609932,945,-16892,-3079,594,101,-1269
5,609,609937,1064,-17129,-2267,580,150,-1254
5,610,609942,978,-17095,-2186,579,159,-1234
5,611,609964,9233,-30654,-30228,1323,1020,-925
5,612,609965,9233,-30654,-30228,1323,1020,-925
5,613,609966,9233,-30654,-30228,1323,1020,-925
5,614,609967,-12899,-16764,-31248,718,5632,-772
5,615,609968,-12899,-16764,-31248,718,5632,-772
5,616,609972,-32768,-6316,25822,-972,13208,-902
5,617,609977,-31188,-1137,32767,109,10570,-288
5,618,609982,11718,-13922,31936,336,4941,284
5,619,609987,26517,-21794,31417,390,4068,80
5,620,609992,19238,-23317,-2142,759,347,-58
5,621,609997,-26472,-17572,-12211,867,-3647,168
5,622,610002,-27636,-10983,2387,492,-7294,426
5,623,610007,5141,-10854,-3616,308,-8298,812
5,624,610012,29004,-11704,-9218,-73,-4750,520
5,625,610017,12963,-18152,12145,266,-1512,388
5,626,610022,-8195,-17748,-14003,664,-2774,321
5,627,610027,-10323,-13897,-32768,624,-3682,399
5,628,610032,-1753,-14294,-23810,218,-1880,532
5,629,610037,12143,-14541,-2909,-30,307,504
5,630,610042,10947,-15929,8867,144,1272,379
5,631,610047,1121,-16807,-3137,483,1145,270
5,632,610052,-6790,-15160,-10663,441,1055,231
5,633,610057,-7442,-14861,-4012,247,977,316
5,634,610062,-777,-14609,1067,153,646,442
5,635,610067,7308,-14962,10832,98,570,442
5,636,610072,6912,-16193,15941,198,235,385
5,637,610077,3207,-17060,1976,344,-990,360
5,638,610082,-1149,-16755,-15454,384,-1448,355
5,639,610087,-2635,-15661,-7206,247,-684,351
5,640,610092,1320,-15900,-3924,164,-331,422
5,641,610097,6451,-16242,-2833,73,110,399
5,642,610102,6098,-16900,1520,71,513,343
5,643,610107,2807,-17200,-427,132,322,300
5,644,610112,-236,-16506,-2477,154,117,287
5,645,610117,153,-16470,-1550,122,128,324
5,646,610122,2474,-16300,-1259,58,205,351
5,647,610127,4615,-16383,868,6,314,344
5,648,610132,4186,-16459,3662,5,237,322
5,649,610137,3060,-16578,1388,61,-100,313
5,650,610142,1700,-16400,-1022,80,-254,307
5,651,610147,1669,-16401,-3502,63,-215,320
5,652,610152,2596,-16192,-4487,10,-25,326
5,653,610157,3473,-16001,-1517,-45,218,312
5,654,610162,3458,-16055,780,-52,261,300
5,655,610167,3068,-16122,-99,-27,170,280
5,656,610172,2266,-16179,-1095,-20,152,269
5,657,610177,1867,-16248,-2126,-31,143,275
5,658,610182,1825,-16198,-1564,-55,132,275
5,659,610187,2140,-16178,295,-71,88,273
5,660,610192,2582,-16247,476,-65,-35,269
5,661,610197,2615,-16372,-950,-52,-134,258
5,662,610202,2162,-16524,-2366,-50,-136,244
5,663,610207,1591,-16610,-2561,-63,-78,234
5,664,610212,1552,-16618,-2512,-82,-38,227
5,665,610217,1913,-16562,-1876,-94,6,221
5,666,610222,2160,-16625,-1498,-95,32,209
5,667,610227,2220,-16663,-1897,-87,47,193
5,668,610232,1862,-16594,-1935,-90,95,176
5,669,610237,1622,-16556,-1768,-106,123,164
5,670,610242,1709,-16556,-1640,-118,107,159
5,671,610247,1901,-16497,-842,-122,88,157
5,672,610252,2027,-16505,-572,-126,43,151
5,673,610257,1957,-16487,-917,-118,-2,140
5,674,610262,1860,-16483,-1234,-118,-28,130
5,675,610267,1831,-16440,-1584,-124,-49,124
5,676,610272,1977,-16456,-1639,-131,-59,121
5,677,610277,2107,-16505,-1177,-138,-64,116
5,678,610282,2153,-16547,-879,-144,-76,109
5,679,610287,2034,-16623,-923,-144,-98,100
5,680,610292,1885,-16672,-1117,-145,-123,96
5,681,610297,1787,-16705,-1316,-148,-153,92
5,682,610302,1788,-16749,-1247,-153,-177,91
5,683,610307,1815,-16800,-1050,-161,-196,85
5,684,610312,1666,-16901,-978,-161,-215,81
5,685,610317,1525,-16975,-1323,-160,-228,78
5,686,610322,1530,-16889,-2135,-165,-191,63
5,687,610327,1581,-16835,-2138,-174,-146,56
5,688,610332,1613,-16825,-1777,-182,-99,49
5,689,610337,1571,-16783,-1522,-181,-63,47
5,690,610342,1386,-16748,-1485,-182,-45,42
5,691,610347,1312,-16762,-1497,-184,-44,39
5,692,610352,1302,-16733,-1500,-186,-51,38
5,693,610357,1405,-16701,-1397,-185,-61,36
5,694,610362,1527,-16680,-1339,-190,-72,36
5,695,610367,1541,-16688,-1323,-191,-84,32
5,696,610372,1440,-16638,-1449,-186,-92,28
5,697,610377,1366,-16593,-1588,-185,-95,28
5,698,610382,1336,-16594,-1567,-184,-93,27
5,699,610387,1347,-16594,-1550,-185,-95,28
5,700,610392,1443,-16633,-1707,-186,-98,25
5,701,610397,1438,-16623,-1707,-187,-81,22
5,702,610402,1394,-16463,-1203,-183,-73,22
5,703,610407,1357,-16480,-1682,-174,-97,23
5,704,610412,1292,-16567,-1975,-176,-91,22
5,705,610417,1213,-16499,-1804,-178,-73,20
5,706,610422,1215,-16433,-1977,-178,-62,20
5,707,610427,1206,-16378,-1672,-181,-23,18
5,708,610432,1206,-16317,-1688,-180,-1,18
5,709,610437,1192,-16307,-1817,-174,11,18
5,710,610442,1176,-16249,-1838,-168,17,16
5,711,610447,1160,-16196,-1737,-167,13,14
5,712,610452,1165,-16158,-1567,-169,12,15
5,713,610457,1199,-16210,-1347,-164,15,19
5,714,610462,1262,-16264,-1339,-160,11,17
5,715,610467,1263,-16285,-1462,-156,0,15
5,716,610472,1292,-16236,-1427,-153,-14,17
5,717,610477,1324,-16225,-1479,-154,-29,20
5,718,610482,1360,-16321,-1497,-152,-34,18
5,719,610487,1310,-16416,-1476,-150,-35,20
5,720,610492,1265,-16355,-1602,-148,-26,19
5,721,610497,1225,-16345,-1710,-145,-12,18
5,722,610502,1176,-16316,-1716,-142,-1,22
5,723,610507,1203,-16276,-1804,-138,8,21
5,724,610512,1173,-16226,-1751,-135,22,21
5,725,610517,1098,-16131,-1665,-134,32,25
5,726,610522,1184,-16094,-1616,-130,41,24
5,727,610527,1183,-16098,-1546,-129,45,22
5,728,610532,1213,-16048,-1557,-121,39,23
5,729,610537,1215,-16051,-1653,-121,31,22
5,730,610542,1188,-16044,-1655,-116,17,24
5,731,610547,1115,-16064,-1685,-115,13,23
5,732,610552,1036,-16106,-1591,-109,13,23
5,733,610557,1000,-16118,-1668,-99,-3,27
5,734,610562,1154,-16142,-1894,-92,-16,28
5,735,610567,1275,-16153,-1870,-90,-12,27
5,736,610572,1260,-16096,-1756,-88,-4,25
5,737,610577,1109,-16062,-1680,-84,6,25
5,738,610582,1045,-16093,-1643,-79,4,23
5,739,610587,1049,-16088,-1837,-79,1,22
5,740,610592,1089,-16104,-1899,-74,5,26
5,741,610597,1165,-16027,-1810,-74,18,22
5,742,610602,1155,-15966,-1789,-69,27,21
5,743,610607,1107,-15955,-1829,-65,41,20
5,744,610612,1079,-16029,-1908,-60,48,14
5,745,610617,1021,-16100,-1829,-59,51,13
5,746,610622,947,-16135,-1738,-58,44,15
5,747,610627,972,-16151,-1703,-54,38,13
5,748,610632,1097,-16095,-1703,-51,44,10
5,749,610637,1220,-16069,-1771,-46,56,10
5,750,610642,1233,-16090,-1749,-45,67,7
5,751,610647,1090,-16115,-1697,-44,62,6
5,752,610652,1070,-16151,-1603,-39,45,6
5,753,610657,1203,-16124,-1503,-37,23,6
5,754,610662,1284,-16130,-1581,-33,15,5
5,755,610667,1288,-16186,-1767,-28,13,1
5,756,610672,1195,-16253,-1828,-26,10,0
5,757,610677,1245,-16262,-1856,-25,5,-2
5,758,610682,1307,-16305,-1785,-23,1,-1
5,759,610687,1288,-16369,-1665,-24,1,-4
5,760,610692,1304,-16261,-1663,-14,2,-6
5,761,610697,1248,-16207,-1753,-12,-4,-6
5,762,610702,1261,-16218,-1790,-15,-12,-9
5,763,610707,1289,-16231,-1714,-11,-28,-8
5,764,610712,1288,-16283,-1610,-7,-42,-7
5,765,610717,1257,-16324,-1673,-2,-54,-7
5,766,610722,1239,-16372,-1855,-2,-59,-11
5,767,610727,1214,-16373,-1982,1,-56,-12
5,768,610732,1173,-16334,-2131,1,-44,-15
5,769,610737,1234,-16337,-2141,1,-25,-14
5,770,610742,1280,-16337,-1996,4,-5,-16
5,771,610747,1298,-16334,-1951,6,10,-18
5,772,610752,1248,-16408,-1979,8,22,-21
5,773,610757,1118,-16475,-2013,9,28,-23
5,774,610762,1088,-16438,-1966,8,28,-28
5,775,610767,1146,-16370,-1934,9,25,-27
5,776,610772,1256,-16348,-1918,11,30,-26
5,777,610777,1247,-16416,-1904,9,35,-31
5,778,610782,1211,-16477,-1844,14,30,-33
5,779,610787,1203,-16473,-1853,16,19,-33
5,780,610792,1261,-16438,-1838,15,6,-34
5,781,610797,1382,-16383,-1780,17,-3,-33
5,782,610802,1381,-16421,-1839,22,-9,-32
5,783,610807,1342,-16495,-1967,22,-15,-35
5,784,610812,1262,-16472,-2051,23,-22,-34
5,785,610817,1266,-16467,-2138,23,-25,-34
5,786,610822,1285,-16381,-2218,24,-13,-38
5,787,610827,1294,-16354,-2183,25,10,-40
5,788,610832,1233,-16372,-2160,27,32,-41
5,789,610837,1203,-16395,-2111,27,42,-41
5,790,610842,1176,-16400,-2074,26,42,-43
5,791,610847,1247,-16365,-2063,28,39,-44
5,792,610852,1279,-16371,-2000,28,39,-46
5,793,610857,1206,-16350,-2042,28,46,-48
5,794,610862,1194,-16358,-2100,30,53,-46
5,795,610867,1284,-16314,-2025,26,62,-47
5,796,610872,1326,-16251,-1883,23,64,-50
5,797,610877,1358,-16200,-1726,21,62,-52
5,798,610882,1332,-16181,-1623,24,51,-53
5,799,610887,1373,-16180,-1653,28,26,-48
5,800,610892,1390,-16189,-1695,26,-2,-49
5,801,610897,1415,-16137,-1772,26,-33,-47
5,802,610902,1456,-16135,-1901,28,-61,-46
5,803,610907,1474,-16186,-1994,27,-68,-45
5,804,610912,1496,-16234,-2049,28,-67,-43
5,805,610917,1394,-16271,-2145,28,-58,-46
5,806,610922,1311,-16352,-2301,29,-44,-47
5,807,610927,1309,-16324,-2257,26,-26,-47
5,808,610932,1354,-16327,-2236,23,-8,-48
5,809,610937,1348,-16372,-2214,23,12,-48
5,810,610942,1350,-16330,-2179,22,32,-51
5,811,610947,1314,-16243,-2135,24,50,-53
5,812,610952,1241,-16205,-2071,23,59,-55
5,813,610957,1198,-16153,-2049,21,61,-53
5,814,610962,1259,-16146,-1954,19,63,-53
5,815,610967,1371,-16150,-1800,20,57,-54
5,816,610972,1399,-16146,-1758,22,49,-55
5,817,610977,1444,-16127,-1773,20,32,-56
5,818,610982,1520,-16166,-1816,18,17,-55
5,819,610987,1514,-16114,-1794,17,3,-54
5,820,610992,1493,-16081,-1750,18,-14,-53
5,821,610997,1548,-16116,-1712,20,-33,-49
5,822,611002,1539,-16198,-1648,19,-58,-48
5,823,611007,1563,-16255,-1694,20,-82,-47
5,824,611012,1503,-16365,-1818,22,-101,-43
5,825,611017,1409,-16384,-2029,20,-114,-47
5,826,611022,1367,-16393,-2197,22,-114,-45
5,827,611027,1440,-16377,-2369,22,-95,-43
5,828,611032,1456,-16367,-2476,20,-56,-44
5,829,611037,1378,-16408,-2458,20,-12,-46
5,830,611042,1303,-16401,-2331,15,24,-49
5,831,611047,1259,-16429,-2198,17,45,-48
5,832,611052,1281,-16463,-2054,17,57,-48
5,833,611057,1307,-16371,-1796,13,72,-52
5,834,611062,1224,-16353,-1802,13,63,-51
5,835,611067,1302,-16336,-1755,11,54,-49
5,836,611072,1411,-16297,-1673,9,43,-50
5,837,611077,1468,-16241,-1634,7,24,-48
5,838,611082,1465,-16270,-1644,9,4,-47
5,839,611087,1436,-16270,-1723,12,-19,-44
5,840,611092,1463,-16216,-1831,11,-35,-47
5,841,611097,1475,-16156,-1918,11,-44,-43
5,842,611102,1525,-16202,-1901,11,-48,-38
5,843,611107,1537,-16261,-1820,9,-50,-38
5,844,611112,1466,-16337,-1763,9,-56,-39
5,845,611117,1351,-16340,-1816,8,-67,-37
5,846,611122,1368,-16310,-1977,11,-71,-35
5,847,611127,1379,-16271,-2175,12,-63,-37
5,848,611132,1341,-16329,-2204,14,-46,-36
5,849,611137,1349,-16333,-2199,9,-22,-38
5,850,611142,1374,-16306,-2053,9,-3,-36
5,851,611147,1317,-16326,-2019,8,6,-37
5,852,611152,1228,-16308,-2049,7,20,-35
5,853,611157,1263,-16205,-1993,6,34,-38
5,854,611162,1342,-16174,-1875,5,39,-38
5,855,611167,1332,-16139,-1778,6,31,-34
5,856,611172,1334,-16186,-1671,5,16,-35
5,857,611177,1362,-16184,-1668,5,-6,-35
5,858,611182,1377,-16151,-1752,6,-22,-32
5,859,611187,1418,-16086,-1895,9,-33,-32
5,860,611192,1412,-16154,-1995,7,-41,-29
5,861,611197,1417,-16235,-2043,4,-39,-29
5,862,611202,1455,-16202,-1986,3,-43,-25
5,863,611207,1433,-16192,-1887,3,-42,-26
5,864,611212,1452,-16167,-1890,3,-35,-27
5,865,611217,1479,-16240,-1850,6,-29,-26
5,866,611222,1420,-16277,-1891,5,-30,-26
5,867,611227,1395,-16248,-1871,5,-35,-26
5,868,611232,1437,-16334,-1928,6,-42,-20
5,869,611237,1526,-16383,-1981,8,-37,-18
5,870,611242,1489,-16361,-1996,6,-27,-20
5,871,611247,1441,-16325,-2032,5,-11,-19
5,872,611252,1350,-16283,-2014,6,5,-20
5,873,611257,1326,-16274,-2000,8,15,-15
5,874,611262,1397,-16276,-1987,6,28,-14
5,875,611267,1366,-16201,-1873,4,32,-17
5,876,611272,1376,-16221,-1733,5,29,-15
5,877,611277,1431,-16207,-1675,4,22,-14
5,878,611282,1390,-16189,-1683,7,9,-12
5,879,611287,1343,-16175,-1754,6,-7,-9
5,880,611292,1349,-16159,-1772,5,-21,-9
5,881,611297,1389,-16199,-1807,5,-35,-9
5,882,611302,1448,-16254,-1880,6,-44,-7
5,883,611307,1598,-16296,-1877,2,-43,-8
5,884,611312,1613,-16276,-1842,4,-39,-8
5,885,611317,1542,-16287,-1829,5,-36,-4
5,886,611322,1444,-16290,-1828,5,-37,-4
5,887,611327,1438,-16276,-1856,6,-41,-3
5,888,611332,1412,-16191,-1896,8,-47,0
5,889,611337,1483,-16114,-1859,7,-48,5
5,890,611342,1552,-16023,-1827,8,-54,3
5,891,611347,1522,-16101,-1879,10,-62,5
5,892,611352,1404,-16405,-1981,12,-66,7
5,893,611357,1296,-16606,-2045,7,-74,4
5,894,611362,1331,-16572,-1940,5,-74,4
5,895,611367,1424,-16530,-2083,7,-57,5
5,896,611372,1474,-16506,-2285,8,-14,5
5,897,611377,1443,-16504,-2358,8,40,3
5,898,611382,1375,-16436,-2173,4,74,-3
5,899,611387,1328,-16324,-1851,1,74,-3
5,900,611392,1356,-16238,-1637,-1,59,2
5,901,611397,1434,-16169,-1615,4,43,3
5,902,611402,1494,-16109,-1767,7,29,4
5,903,611407,1453,-16025,-1988,7,12,3
5,904,611412,1447,-15924,-2121,8,-6,4
5,905,611417,1419,-15882,-2063,5,-25,6
5,906,611422,1520,-15895,-1973,7,-40,9
5,907,611427,1342,-16422,-1930,13,-55,7
5,908,611432,1219,-16563,-1880,12,-67,4
5,909,611437,1285,-16532,-1917,12,-70,5
5,910,611442,1400,-16387,-2015,14,-53,6
5,911,611447,1445,-16340,-2066,16,-17,4
5,912,611452,1391,-16357,-2055,13,16,6
5,913,611457,1339,-16309,-1931,10,30,4
5,914,611462,1362,-16260,-1808,11,19,5
5,915,611467,1395,-16169,-1770,10,4,5
5,916,611472,1478,-16275,-1773,13,-6,8
5,917,611477,1455,-16288,-1884,14,-9,5
5,918,611482,1365,-16326,-1941,15,-12,7
5,919,611487,1390,-16327,-1944,15,-13,9
5,920,611492,1525,-16357,-1848,14,-8,9
5,921,611497,1596,-16418,-1693,10,-4,9
5,922,611502,1549,-16413,-1647,12,-3,9
5,923,611507,1474,-16424,-1666,13,-12,8
5,924,611512,1470,-16360,-1852,13,-24,8
5,925,611517,1454,-16357,-1957,12,-29,12
5,926,611522,1499,-16349,-1941,12,-28,12
5,927,611527,1506,-16360,-1941,11,-24,12
5,928,611532,1497,-16373,-1971,11,-15,12
5,929,611537,1465,-16321,-2017,12,-3,12
5,930,611542,1416,-16280,-2046,11,4,13
5,931,611547,1427,-16266,-1967,12,9,13
5,932,611552,1312,-16329,-1841,12,11,10
5,933,611557,1341,-16317,-1692,11,4,12
5,934,611562,1376,-16265,-1723,14,-4,13
5,935,611567,1363,-16268,-1829,16,-9,14
5,936,611572,1441,-16291,-1879,14,-10,14
5,937,611577,1393,-16312,-1839,15,-10,14
5,938,611582,1387,-16321,-1807,13,-15,13
5,939,611587,1453,-16276,-1816,16,-17,13
5,940,611592,1511,-16274,-1823,15,-13,15
5,941,611597,1513,-16282,-1889,15,-5,16
5,942,611602,1441,-16282,-1883,15,-1,16
5,943,611607,1448,-16266,-1789,14,-9,17
5,944,611612,1451,-16252,-1649,10,-16,17
5,945,611617,1395,-16288,-1674,13,-22,17
5,946,611622,1425,-16342,-1712,12,-32,16
5,947,611627,1410,-16306,-1779,11,-40,16
5,948,611632,1432,-16308,-1827,14,-39,16
5,949,611637,1462,-16308,-1840,12,-35,17
5,950,611642,1453,-16259,-1760,10,-25,17
5,951,611647,1445,-16196,-1776,9,-15,14
5,952,611652,1431,-16183,-1853,10,-13,15
5,953,611657,1372,-16160,-1858,8,-13,14
5,954,611662,1367,-16204,-1906,10,-16,12
5,955,611667,1326,-16315,-1889,8,-24,14
5,956,611672,1252,-16378,-1804,3,-29,16
5,957,611677,1321,-16403,-1758,4,-27,12
5,958,611682,1362,-16345,-1789,6,-22,11
5,959,611687,1356,-16342,-1927,4,-7,11
5,960,611692,1344,-16319,-2087,4,8,8
5,961,611697,1380,-16224,-1992,3,18,11
5,962,611702,1410,-16127,-1829,1,17,6
5,963,611707,1415,-16011,-1763,0,12,7
5,964,611712,1431,-15991,-1733,2,6,8
5,965,611717,1413,-16134,-1815,3,-3,7
5,966,611722,1310,-16261,-1908,2,-19,8
5,967,611727,1354,-16286,-1952,1,-33,6
5,968,611732,1500,-16234,-1919,-4,-34,7
5,969,611737,1525,-16213,-1974,-4,-22,3
5,970,611742,1478,-16203,-2094,-2,6,1
5,971,611747,1424,-16166,-2156,-6,30,0
5,972,611752,1438,-16110,-2088,-5,44,0
5,973,611757,1455,-15993,-1921,-6,39,1
5,974,611762,1506,-15910,-1709,-4,26,2
5,975,611767,1556,-15958,-1657,-3,13,-1
5,976,611772,1415,-16157,-1723,-2,-8,3
5,977,611777,1318,-16349,-1811,-3,-31,1
5,978,611782,1332,-16492,-1810,-2,-52,2
5,979,611787,1400,-16566,-1865,-3,-63,4
5,980,611792,1540,-16620,-1972,-3,-45,0
5,981,611797,1455,-16593,-2086,-3,21,-6
5,982,611802,1366,-16562,-1996,-8,41,-7
5,983,611807,1309,-16480,-1821,-10,41,-5
5,984,611812,1375,-16435,-1713,-8,31,-5
5,985,611817,1470,-16387,-1715,-7,24,-8
5,986,611822,1485,-16378,-1737,-6,13,-7
5,987,611827,1519,-16348,-1852,-8,5,-8
5,988,611832,1452,-16362,-1899,-8,-2,-7
5,989,611837,1436,-16402,-1866,-6,-14,-6
5,990,611842,1505,-16463,-1755,-9,-22,-6
5,991,611847,1540,-16504,-1655,-12,-23,-7
5,992,611852,1473,-16537,-1695,-11,-24,-7
5,993,611857,1430,-16532,-1823,-9,-31,-11
5,994,611862,1430,-16525,-1952,-9,-37,-8
5,995,611867,1454,-16494,-2037,-10,-33,-9
5,996,611872,1453,-16420,-1995,-12,-25,-9
5,997,611877,1473,-16334,-1922,-13,-11,-11
5,998,611882,1445,-16302,-1916,-10,-1,-11
5,999,611887,1364,-16294,-1867,-10,1,-12
