event_id,seq,ts_ms,ax,ay,az,gx,gy,gz
2,0,231882,-1370,-16615,-26,-9,0,-1
2,1,231887,-1349,-16613,-107,-9,5,-2
2,2,231892,-1334,-16573,-13,-9,3,0
2,3,231897,-1398,-16594,166,-10,-13,1
2,4,231902,-1417,-16616,264,-9,-52,4
2,5,231907,-1403,-16651,152,-7,-67,3
2,6,231912,-1441,-16603,112,-5,-77,1
2,7,231917,-1451,-16541,126,-8,-90,2
2,8,231922,-1454,-16502,4,-11,-101,3
2,9,231927,-1448,-16436,-40,-10,-98,1
2,10,231932,-1478,-16395,-82,-7,-84,2
2,11,231937,-1507,-16381,-191,-5,-68,-1
2,12,231942,-1590,-16389,-251,-6,-45,-2
2,13,231947,-1560,-16333,-222,-7,-20,-2
2,14,231952,-1539,-16285,-160,-4,-2,-5
2,15,231957,-1571,-16255,-110,-2,10,-6
2,16,231962,-1564,-16238,-9,-2,21,-7
2,17,231967,-1639,-16198,24,0,23,-7
2,18,231972,-1655,-16168,-31,2,19,-9
2,19,231977,-1656,-16166,10,2,10,-11
2,20,231982,-1695,-16099,131,2,-6,-10
2,21,231987,-1650,-16085,225,0,-27,-12
2,22,231992,-1600,-16064,294,4,-55,-10
2,23,231997,-1605,-16133,337,2,-82,-11
2,24,232002,-1579,-16126,283,-1,-102,-14
2,25,232007,-1613,-16135,214,3,-117,-16
2,26,232012,-1534,-16194,48,2,-123,-17
2,27,232017,-1387,-16234,-59,1,-122,-17
2,28,232022,-1358,-16272,-64,1,-115,-14
2,29,232027,-1301,-16329,-81,2,-111,-15
2,30,232032,-1317,-16374,-89,3,-106,-16
2,31,232037,-1228,-16366,-22,3,-94,-15
2,32,232042,-1146,-16379,25,4,-81,-13
2,33,232047,-1145,-16404,84,6,-67,-13
2,34,232052,-1175,-16442,27,4,-56,-11
2,35,232057,-1193,-16498,30,2,-46,-12
2,36,232062,-1244,-16490,8,4,-35,-13
2,37,232067,-1280,-16528,50,4,-26,-10
2,38,232072,-1258,-16533,126,6,-19,-7
2,39,232077,-1240,-16504,259,5,-20,-7
2,40,232082,-1251,-16528,337,6,-26,-8
2,41,232087,-1325,-16502,318,4,-37,-6
2,42,232092,-1356,-16480,231,4,-50,-5
2,43,232097,-1405,-16440,297,3,-63,-6
2,44,232102,-1391,-16424,250,2,-75,-6
2,45,232107,-1433,-16451,267,3,-81,-5
2,46,232112,-1390,-16498,289,2,-83,-2
2,47,232117,-1390,-16452,192,1,-85,-2
2,48,232122,-1461,-16460,171,1,-83,-5
2,49,232127,-1434,-16486,92,0,-78,-3
2,50,232132,-1420,-16490,74,3,-71,-4
2,51,232137,-1376,-16487,62,1,-62,-6
2,52,232142,-1296,-16497,97,0,-49,-6
2,53,232147,-1267,-16477,140,3,-40,-6
2,54,232152,-1224,-16477,171,2,-40,-1
2,55,232157,-1226,-16477,149,-1,-39,-4
2,56,232162,-1246,-16426,179,2,-36,-2
2,57,232167,-1239,-16407,191,1,-31,-2
2,58,232172,-1253,-16412,170,-1,-22,-2
2,59,232177,-1280,-16423,133,0,-19,0
2,60,232182,-1345,-16405,160,0,-17,0
2,61,232187,-1398,-16335,182,2,-17,1
2,62,232192,-1419,-16369,234,3,-18,-1
2,63,232197,-1462,-16380,302,-1,-24,1
2,64,232202,-1438,-16341,383,0,-30,3
2,65,232207,-1372,-16328,393,-2,-40,0
2,66,232212,-1316,-16354,345,-5,-52,-1
2,67,232217,-1316,-16349,279,-3,-62,1
2,68,232222,-1350,-16306,165,-2,-71,1
2,69,232227,-1281,-16281,75,-4,-69,0
2,70,232232,-1202,-16309,66,-2,-60,0
2,71,232237,-1206,-16325,39,-7,-44,2
2,72,232242,-1250,-16343,8,-5,-31,3
2,73,232247,-1271,-16333,12,-1,-11,2
2,74,232252,-1291,-16385,53,-2,7,3
2,75,232257,-1325,-16406,24,-2,24,3
2,76,232262,-1326,-16423,84,-2,36,3
2,77,232267,-1356,-16471,328,-3,19,2
2,78,232272,-1417,-16468,417,-2,0,4
2,79,232277,-1369,-16471,333,-3,-20,2
2,80,232282,-1322,-16498,200,0,-33,4
2,81,232287,-1390,-16555,56,-1,-42,5
2,82,232292,-1469,-16522,-39,-2,-46,3
2,83,232297,-1546,-16518,-57,0,-47,3
2,84,232302,-1494,-16546,-10,1,-47,5
2,85,232307,-1448,-16540,-12,1,-40,2
2,86,232312,-1456,-16478,70,0,-42,4
2,87,232317,-1470,-16447,82,3,-44,1
2,88,232322,-1550,-16445,175,2,-49,3
2,89,232327,-1519,-16371,191,2,-60,3
2,90,232332,-1452,-16380,148,2,-64,2
2,91,232337,-1372,-16414,71,5,-64,1
2,92,232342,-1380,-16407,85,6,-67,0
2,93,232347,-1400,-16391,78,3,-67,-1
2,94,232352,-1407,-16414,45,2,-67,-1
2,95,232357,-1370,-16465,12,3,-60,2
2,96,232362,-1350,-16446,4,5,-42,1
2,97,232367,-1300,-16470,-54,3,-23,-1
2,98,232372,-1337,-16476,-128,4,-6,1
2,99,232377,-1340,-16447,-124,4,4,0
2,100,232382,-1401,-16480,-100,10,12,0
2,101,232387,-1378,-16449,42,9,16,-2
2,102,232392,-1307,-16364,156,7,10,0
2,103,232397,-1285,-16286,281,12,-4,4
2,104,232402,-1300,-16236,338,12,-22,1
2,105,232407,-1295,-16177,348,8,-43,-2
2,106,232412,-1340,-16158,247,11,-67,3
2,107,232417,-1347,-16115,227,9,-87,6
2,108,232422,-1291,-16093,236,6,-96,5
2,109,232427,-1250,-16062,235,5,-100,4
2,110,232432,-1290,-16083,121,6,-92,4
2,111,232437,-1325,-16112,13,10,-72,5
2,112,232442,-1379,-16143,-102,11,-44,4
2,113,232447,-1368,-16179,-177,11,-11,3
2,114,232452,-1304,-16256,-94,8,25,1
2,115,232457,-1265,-16285,-3,10,49,2
2,116,232462,-1258,-16333,82,12,57,3
2,117,232467,-1228,-16331,131,13,58,3
2,118,232472,-1261,-16351,96,13,58,5
2,119,232477,-1301,-16421,116,11,50,3
2,120,232482,-1324,-16412,172,11,31,4
2,121,232487,-1307,-16409,195,10,11,3
2,122,232492,-1346,-16421,209,10,-10,4
2,123,232497,-1470,-16402,163,13,-31,6
2,124,232502,-1539,-16398,155,12,-46,6
2,125,232507,-1531,-16417,196,11,-58,8
2,126,232512,-1535,-16442,195,10,-67,7
2,127,232517,-1522,-16412,110,10,-70,2
2,128,232522,-1529,-16418,109,12,-76,4
2,129,232527,-1525,-16463,59,13,-79,2
2,130,232532,-1564,-16477,37,11,-74,-2
2,131,232537,-1559,-16452,71,10,-72,0
2,132,232542,-1554,-16434,46,13,-70,-2
2,133,232547,-1546,-16473,92,14,-66,-3
2,134,232552,-1537,-16530,40,12,-61,-5
2,135,232557,-1493,-16500,85,14,-66,-5
2,136,232562,-1505,-16515,140,12,-74,-4
2,137,232567,-1506,-16494,216,10,-76,-5
2,138,232572,-1496,-16497,215,10,-79,-7
2,139,232577,-1486,-16512,215,11,-76,-8
2,140,232582,-1488,-16491,156,12,-70,-8
2,141,232587,-1442,-16471,136,9,-67,-11
2,142,232592,-1472,-16490,148,7,-71,-11
2,143,232597,-1447,-16521,154,9,-73,-11
2,144,232602,-1494,-16507,151,10,-69,-11
2,145,232607,-1491,-16550,118,12,-66,-12
2,146,232612,-1496,-16547,154,12,-65,-13
2,147,232617,-1508,-16533,163,7,-68,-15
2,148,232622,-1501,-16538,198,7,-75,-16
2,149,232627,-1491,-16559,206,7,-82,-12
2,150,232632,-1501,-16600,178,10,-89,-17
2,151,232637,-1486,-16536,188,8,-97,-17
2,152,232642,-1452,-16548,207,8,-101,-15
2,153,232647,-1413,-16492,236,6,-104,-15
2,154,232652,-1401,-16489,184,6,-103,-21
2,155,232657,-1386,-16505,76,8,-97,-24
2,156,232662,-1392,-16501,44,8,-88,-21
2,157,232667,-1405,-16425,82,6,-76,-20
2,158,232672,-1388,-16375,120,6,-63,-21
2,159,232677,-1381,-16344,130,7,-55,-22
2,160,232682,-1432,-16363,187,6,-42,-21
2,161,232687,-1409,-16373,249,5,-33,-21
2,162,232692,-1384,-16385,251,5,-27,-22
2,163,232697,-1350,-16380,258,3,-28,-22
2,164,232702,-1366,-16417,240,3,-31,-22
2,165,232707,-1360,-16477,213,3,-32,-24
2,166,232712,-1343,-16479,108,7,-32,-24
2,167,232717,-1293,-16472,114,5,-31,-21
2,168,232722,-1374,-16428,167,5,-35,-21
2,169,232727,-1405,-16468,189,4,-42,-23
2,170,232732,-1377,-16476,189,2,-50,-22
2,171,232737,-1332,-16481,231,2,-56,-20
2,172,232742,-1345,-16453,252,4,-69,-20
2,173,232747,-1292,-16406,239,2,-81,-22
2,174,232752,-1272,-16358,266,1,-94,-20
2,175,232757,-1269,-16354,199,3,-104,-20
2,176,232762,-1241,-16349,109,4,-101,-20
2,177,232767,-1207,-16328,-9,3,-89,-20
2,178,232772,-1224,-16353,-47,2,-70,-18
2,179,232777,-1220,-16339,-50,3,-48,-19
2,180,232782,-1273,-16325,-113,4,-24,-21
2,181,232787,-1284,-16340,-81,4,-3,-17
2,182,232792,-1321,-16345,-14,7,16,-18
2,183,232797,-1314,-16352,55,6,28,-19
2,184,232802,-1297,-16365,117,7,26,-19
2,185,232807,-1349,-16404,197,7,25,-16
2,186,232812,-1401,-16351,258,8,17,-17
2,187,232817,-1465,-16331,250,8,4,-16
2,188,232822,-1482,-16295,207,6,-9,-19
2,189,232827,-1405,-16269,239,6,-25,-15
2,190,232832,-1396,-16256,236,7,-38,-14
2,191,232837,-1482,-16231,160,10,-50,-16
2,192,232842,-1547,-16235,140,9,-59,-20
2,193,232847,-1542,-16200,62,6,-65,-20
2,194,232852,-1520,-16156,66,6,-61,-20
2,195,232857,-1527,-16137,92,10,-58,-22
2,196,232862,-1477,-16102,113,10,-55,-21
2,197,232867,-1469,-16099,126,9,-52,-21
2,198,232872,-1507,-16069,159,9,-53,-22
2,199,232877,-1460,-16015,78,11,-45,-24
2,200,232882,-1447,-15987,71,11,-31,-27
2,201,232887,-1385,-15994,58,11,-24,-24
2,202,232892,-1325,-16016,44,11,-16,-23
2,203,232897,-1315,-16080,29,12,-9,-26
2,204,232902,-1344,-16083,34,13,-4,-26
2,205,232907,-1388,-16133,24,13,4,-26
2,206,232912,-1452,-16146,16,14,14,-26
2,207,232917,-1514,-16159,36,18,21,-28
2,208,232922,-1484,-16155,146,18,16,-28
2,209,232927,-1439,-16146,283,16,1,-27
2,210,232932,-1369,-16108,398,16,-20,-26
2,211,232937,-1386,-16102,456,16,-44,-25
2,212,232942,-1454,-16081,426,15,-65,-29
2,213,232947,-1483,-16129,271,15,-82,-29
2,214,232952,-1506,-16126,82,17,-93,-28
2,215,232957,-1442,-16188,72,16,-97,-28
2,216,232962,-1387,-16267,117,16,-106,-26
2,217,232967,-1354,-16278,210,20,-115,-29
2,218,232972,-1335,-16296,326,19,-127,-30
2,219,232977,-1321,-16290,343,19,-134,-31
2,220,232982,-1240,-16310,375,19,-144,-28
2,221,232987,-1137,-16362,403,21,-149,-28
2,222,232992,-1091,-16370,311,19,-147,-27
2,223,232997,-1079,-16398,256,15,-138,-26
2,224,233002,-1149,-16472,78,18,-97,-25
2,225,233007,-1120,-16510,95,18,-70,-25
2,226,233012,-1069,-16523,128,16,-39,-22
2,227,233017,-1096,-16573,253,16,-11,-21
2,228,233022,-1151,-16623,279,14,5,-21
2,229,233027,-1258,-16654,298,16,16,-22
2,230,233032,-1270,-16694,352,18,21,-22
2,231,233037,-1300,-16693,394,16,12,-18
2,232,233042,-1223,-16729,558,14,-8,-17
2,233,233047,-1268,-16721,561,15,-36,-18
2,234,233052,-1271,-16819,456,15,-62,-19
2,235,233057,-1306,-16818,358,14,-84,-19
2,236,233062,-1354,-16803,253,13,-106,-18
2,237,233067,-1370,-16810,260,14,-125,-15
2,238,233072,-1379,-16781,281,14,-136,-15
2,239,233077,-1330,-16728,254,13,-143,-14
2,240,233082,-1286,-16782,231,15,-138,-14
2,241,233087,-1290,-16750,145,17,-126,-16
2,242,233092,-1324,-16756,75,15,-109,-16
2,243,233097,-1267,-16715,96,15,-89,-14
2,244,233102,-1201,-16648,138,17,-66,-13
2,245,233107,-1184,-16608,187,15,-39,-14
2,246,233112,-1167,-16622,241,13,-13,-16
2,247,233117,-1174,-16621,213,16,11,-16
2,248,233122,-1144,-16645,234,16,29,-13
2,249,233127,-1203,-16647,191,18,40,-12
2,250,233132,-1222,-16652,203,19,46,-9
2,251,233137,-1231,-16636,289,18,46,-9
2,252,233142,-1236,-16578,455,17,34,-12
2,253,233147,-1247,-16496,584,13,8,-12
2,254,233152,-1266,-16507,669,14,-28,-9
2,255,233157,-1271,-16475,673,14,-56,-7
2,256,233162,-1250,-16474,513,11,-76,-5
2,257,233167,-1278,-16475,304,12,-88,-7
2,258,233172,-1284,-16433,250,13,-96,-6
2,259,233177,-1288,-16375,212,10,-97,-5
2,260,233182,-1289,-16322,204,9,-92,-4
2,261,233187,-1237,-16323,295,10,-78,-6
2,262,233192,-1202,-16314,317,9,-63,-5
2,263,233197,-1210,-16296,259,9,-44,-7
2,264,233202,-1235,-16253,238,11,-26,-7
2,265,233207,-1216,-16253,226,7,-6,-7
2,266,233212,-1212,-16297,232,7,11,-6
2,267,233217,-1177,-16316,247,10,26,-4
2,268,233222,-1181,-16393,262,10,40,-4
2,269,233227,-1210,-16419,334,11,47,-4
2,270,233232,-1209,-16435,344,9,46,-4
2,271,233237,-1243,-16440,371,8,37,-4
2,272,233242,-1267,-16424,407,9,27,-3
2,273,233247,-1266,-16477,463,10,10,-1
2,274,233252,-1275,-16472,504,8,-7,-3
2,275,233257,-1335,-16437,423,7,-22,-2
2,276,233262,-1397,-16424,401,3,-37,-3
2,277,233267,-1401,-16409,365,4,-44,-1
2,278,233272,-1364,-16447,306,4,-47,-2
2,279,233277,-1337,-16425,295,3,-52,-4
2,280,233282,-1356,-16470,246,5,-48,-3
2,281,233287,-1351,-16461,258,5,-38,-6
2,282,233292,-1343,-16362,232,4,-26,-2
2,283,233297,-1377,-16336,268,3,-12,-3
2,284,233302,-1355,-16313,328,1,6,-5
2,285,233307,-1336,-16343,334,3,26,-7
2,286,233312,-1315,-16364,284,3,44,-7
2,287,233317,-1332,-16341,270,4,56,-7
2,288,233322,-1379,-16428,321,4,65,-8
2,289,233327,-1378,-16496,304,4,66,-7
2,290,233332,-1389,-16528,347,6,68,-7
2,291,233337,-1400,-16584,435,3,60,-9
2,292,233342,-1385,-16571,483,1,48,-9
2,293,233347,-1377,-16532,549,4,22,-8
2,294,233352,-1368,-16523,577,5,-3,-9
2,295,233357,-1366,-16533,451,3,-28,-8
2,296,233362,-1328,-16549,391,5,-45,-7
2,297,233367,-1312,-16431,276,2,-66,-4
2,298,233372,-1284,-16385,199,1,-68,-8
2,299,233377,-1295,-16396,221,1,-60,-7
2,300,233382,-1291,-16401,214,4,-52,-7
2,301,233387,-1302,-16397,285,3,-38,-9
2,302,233392,-1268,-16341,329,2,-22,-8
2,303,233397,-1258,-16366,308,3,-7,-6
2,304,233402,-1238,-16377,294,2,9,-9
2,305,233407,-1234,-16396,246,3,21,-9
2,306,233412,-1265,-16445,250,4,36,-10
2,307,233417,-1305,-16478,295,3,47,-10
2,308,233422,-1305,-16481,346,3,53,-7
2,309,233427,-1306,-16527,413,5,57,-10
2,310,233432,-1289,-16604,384,6,54,-11
2,311,233437,-1332,-16564,352,4,46,-8
2,312,233442,-1354,-16486,468,4,28,-10
2,313,233447,-1381,-16445,537,7,5,-7
2,314,233452,-1369,-16455,564,5,-19,-6
2,315,233457,-1314,-16456,558,3,-36,-8
2,316,233462,-1263,-16424,521,3,-51,-9
2,317,233467,-1295,-16448,344,3,-58,-8
2,318,233472,-1297,-16403,302,0,-61,-5
2,319,233477,-1340,-16386,296,3,-53,-4
2,320,233482,-1386,-16403,203,2,-40,-6
2,321,233487,-1278,-16399,161,2,-17,-4
2,322,233492,-1225,-16390,207,2,7,-9
2,323,233497,-1190,-16375,191,2,21,-7
2,324,233502,-1231,-16361,167,0,37,-10
2,325,233507,-1303,-16330,222,0,52,-8
2,326,233512,-1303,-16367,183,0,65,-7
2,327,233517,-1282,-16385,199,1,76,-9
2,328,233522,-1243,-16456,341,2,76,-7
2,329,233527,-1198,-16438,413,0,63,-10
2,330,233532,-1234,-16420,524,0,44,-9
2,331,233537,-1267,-16408,477,-1,25,-6
2,332,233542,-1273,-16441,411,-1,11,-6
2,333,233547,-1294,-16466,344,0,1,-5
2,334,233552,-1269,-16456,272,-1,-9,-7
2,335,233557,-1297,-16492,313,-3,-20,-4
2,336,233562,-1318,-16492,381,-1,-33,-4
2,337,233567,-1261,-16461,343,-1,-45,-4
2,338,233572,-1250,-16460,322,0,-49,-3
2,339,233577,-1233,-16457,329,-5,-44,-3
2,340,233582,-1246,-16461,311,-4,-42,1
2,341,233587,-1176,-16412,250,-4,-33,-1
2,342,233592,-1102,-16390,175,-6,-20,1
2,343,233597,-1095,-16365,186,-6,-4,1
2,344,233602,-1152,-16386,175,-6,10,2
2,345,233607,-1177,-16382,134,-6,27,2
2,346,233612,-1115,-16387,132,-4,51,2
2,347,233617,-1106,-16456,146,-3,72,4
2,348,233622,-1081,-16493,79,-5,90,5
2,349,233627,-1124,-16520,105,-4,102,9
2,350,233632,-1165,-16492,137,-2,105,9
2,351,233637,-1228,-16542,109,-2,102,9
2,352,233642,-1337,-16555,200,-4,97,13
2,353,233647,-1349,-16600,272,-6,87,16
2,354,233652,-1258,-16650,264,-4,72,19
2,355,233657,-1196,-16653,347,-6,54,22
2,356,233662,-1228,-16628,501,-11,32,23
2,357,233667,-1354,-16590,504,-14,13,27
2,358,233672,-1416,-16604,438,-15,2,27
2,359,233677,-1361,-16642,361,-20,7,33
2,360,233682,-1346,-16625,257,-21,16,37
2,361,233687,-1332,-16687,137,-22,16,38
2,362,233692,-1158,-16784,19,-23,12,44
2,363,233697,-897,-16714,-75,-27,0,52
2,364,233702,-814,-16708,-146,-27,-19,62
2,365,233707,-957,-16774,-228,-33,-40,69
2,366,233712,-1062,-16880,-74,-36,-63,82
2,367,233717,-971,-16754,5,-42,-82,91
2,368,233722,-821,-16515,258,-47,-93,100
2,369,233727,-917,-16398,193,-51,-95,110
2,370,233732,-1151,-16394,-12,-57,-84,121
2,371,233737,-1830,-16289,-975,-67,9,136
2,372,233742,-1969,-16247,-1224,-69,108,146
2,373,233747,-2011,-16292,-1064,-77,207,156
2,374,233752,-2090,-16339,-683,-85,279,164
2,375,233757,-2255,-16367,-341,-91,320,170
2,376,233762,-2393,-16406,-88,-94,336,174
2,377,233767,-2558,-16383,69,-105,326,184
2,378,233772,-2746,-16422,101,-115,290,193
2,379,233777,-2867,-16503,285,-125,223,209
2,380,233782,-2642,-16436,693,-138,122,223
2,381,233787,-2401,-16230,1012,-153,-3,234
2,382,233792,-2524,-16020,1032,-165,-132,244
2,383,233797,-2748,-15940,523,-174,-243,256
2,384,233802,-2856,-15883,-308,-184,-313,269
2,385,233807,-2653,-15900,-948,-198,-335,286
2,386,233812,-2398,-15866,-1206,-208,-319,300
2,387,233817,-2394,-15892,-1155,-217,-281,311
2,388,233822,-2547,-15863,-1006,-228,-237,321
2,389,233827,-2591,-15821,-846,-234,-196,332
2,390,233832,-2591,-15766,-772,-239,-161,351
2,391,233837,-2486,-15829,-489,-250,-136,371
2,392,233842,-2454,-15845,-360,-261,-145,387
2,393,233847,-2425,-15796,-207,-273,-182,405
2,394,233852,-2488,-15712,-289,-286,-233,422
2,395,233857,-2499,-15632,-385,-295,-265,437
2,396,233862,-2576,-15654,-660,-305,-287,454
2,397,233867,-2655,-15652,-868,-313,-293,473
2,398,233872,-2621,-15643,-905,-321,-289,491
2,399,233877,-2494,-15652,-954,-332,-283,510
2,400,233882,-2475,-15659,-1045,-342,-259,527
2,401,233887,-2595,-15695,-1116,-348,-221,540
2,402,233892,-2882,-15719,-1419,-357,-173,554
2,403,233897,-3141,-15743,-1507,-359,-124,575
2,404,233902,-3167,-15760,-1245,-366,-87,593
2,405,233907,-3068,-15730,-692,-379,-82,611
2,406,233912,-3014,-15765,-260,-385,-103,625
2,407,233917,-3093,-15829,-239,-390,-143,640
2,408,233922,-3355,-15810,-633,-396,-181,654
2,409,233927,-3546,-15781,-1120,-402,-206,672
2,410,233932,-3631,-15788,-1235,-412,-222,690
2,411,233937,-3617,-15856,-1023,-421,-232,705
2,412,233942,-3551,-15861,-651,-430,-245,719
2,413,233947,-3548,-15880,-635,-433,-261,732
2,414,233952,-3627,-15821,-808,-435,-279,743
2,415,233957,-3793,-15837,-1135,-441,-288,754
2,416,233962,-3869,-15922,-1464,-447,-283,769
2,417,233967,-3868,-16047,-1535,-451,-262,782
2,418,233972,-3865,-16087,-1490,-454,-229,792
2,419,233977,-3948,-16050,-1444,-452,-202,803
2,420,233982,-4123,-16055,-1434,-451,-182,814
2,421,233987,-4309,-16148,-1411,-458,-176,825
2,422,233992,-4295,-16188,-1197,-462,-194,839
2,423,233997,-4125,-16135,-954,-467,-227,848
2,424,234002,-4081,-16143,-791,-467,-265,857
2,425,234007,-4373,-16213,-1101,-465,-308,862
2,426,234012,-4663,-16254,-1509,-468,-337,869
2,427,234017,-4571,-16175,-1672,-469,-347,885
2,428,234022,-4198,-16191,-1450,-471,-338,897
2,429,234027,-4027,-16304,-1416,-467,-326,902
2,430,234032,-4245,-16320,-1547,-468,-309,901
2,431,234037,-4629,-16252,-1866,-466,-282,903
2,432,234042,-4821,-16211,-1996,-464,-248,911
2,433,234047,-4771,-16198,-1729,-463,-213,921
2,434,234052,-4542,-16215,-1209,-467,-196,927
2,435,234057,-4497,-16257,-940,-465,-203,924
2,436,234062,-4624,-16231,-1130,-459,-225,924
2,437,234067,-4926,-16096,-1528,-453,-236,925
2,438,234072,-5214,-16087,-1829,-454,-243,928
2,439,234077,-5180,-16040,-1722,-456,-241,934
2,440,234082,-4938,-16028,-1442,-453,-237,938
2,441,234087,-4731,-15949,-1281,-448,-238,935
2,442,234092,-4947,-15918,-1447,-445,-242,931
2,443,234097,-5369,-15846,-1706,-441,-236,921
2,444,234102,-5404,-15781,-1980,-433,-169,917
2,445,234107,-5365,-15780,-1827,-430,-118,912
2,446,234112,-5568,-15744,-1794,-424,-74,900
2,447,234117,-5895,-15600,-1822,-415,-45,886
2,448,234122,-6090,-15461,-1996,-411,-29,875
2,449,234127,-6152,-15400,-1772,-410,-14,868
2,450,234132,-6087,-15430,-1438,-409,-14,860
2,451,234137,-6009,-15504,-1208,-402,-37,847
2,452,234142,-5938,-15506,-1148,-396,-71,832
2,453,234147,-5894,-15387,-1315,-392,-117,821
2,454,234152,-6042,-15352,-1544,-389,-160,809
2,455,234157,-6181,-15369,-1791,-382,-195,795
2,456,234162,-6155,-15448,-1814,-373,-219,785
2,457,234167,-5834,-15471,-1596,-366,-243,774
2,458,234172,-5587,-15374,-1448,-359,-282,761
2,459,234177,-5607,-15268,-1418,-348,-321,747
2,460,234182,-5820,-15226,-1632,-341,-356,730
2,461,234187,-6005,-15199,-1913,-332,-371,718
2,462,234192,-5875,-15151,-2110,-325,-360,707
2,463,234197,-5724,-15142,-2114,-320,-327,693
2,464,234202,-5653,-15103,-2036,-310,-287,676
2,465,234207,-5732,-15115,-2194,-299,-247,660
2,466,234212,-5830,-15039,-2374,-286,-205,642
2,467,234217,-5849,-14972,-2371,-277,-153,626
2,468,234222,-5859,-14964,-2209,-274,-98,612
2,469,234227,-5821,-14970,-1925,-266,-52,595
2,470,234232,-5760,-14893,-1841,-254,-15,576
2,471,234237,-5812,-14852,-2020,-244,22,558
2,472,234242,-5967,-14816,-2122,-234,60,540
2,473,234247,-6037,-14815,-2125,-230,94,522
2,474,234252,-5955,-14801,-2038,-224,125,503
2,475,234257,-5937,-14847,-2054,-218,151,484
2,476,234262,-6087,-14955,-2072,-205,176,462
2,477,234267,-6277,-15057,-2025,-193,185,440
2,478,234272,-6279,-15008,-1920,-186,164,421
2,479,234277,-6158,-14999,-1589,-182,116,408
2,480,234282,-6019,-15032,-1130,-178,38,390
2,481,234287,-5937,-15062,-938,-169,-60,369
2,482,234292,-5978,-15099,-1141,-160,-153,348
2,483,234297,-6097,-15069,-1559,-150,-233,328
2,484,234302,-6156,-15058,-1983,-139,-291,308
2,485,234307,-6189,-15039,-2269,-131,-315,290
2,486,234312,-6122,-15030,-2380,-124,-311,270
2,487,234317,-6026,-15011,-2476,-111,-286,248
2,488,234322,-6008,-14989,-2546,-97,-245,227
2,489,234327,-6104,-14947,-2585,-88,-190,202
2,490,234332,-6233,-14892,-2573,-79,-129,178
2,491,234337,-6313,-14853,-2489,-68,-75,155
2,492,234342,-6324,-14830,-2317,-59,-26,135
2,493,234347,-6291,-14850,-2152,-48,12,114
2,494,234352,-6267,-14835,-2085,-37,38,87
2,495,234357,-6360,-14893,-2073,-31,52,61
2,496,234362,-6329,-14954,-2009,-19,62,38
2,497,234367,-6337,-14945,-1887,-10,54,15
2,498,234372,-6312,-14928,-1769,-1,42,-11
2,499,234377,-6361,-14990,-1904,7,23,-32
2,500,234382,-6437,-15110,-1997,22,4,-55
2,501,234387,-6468,-15083,-1903,31,-25,-80
2,502,234392,-6346,-14989,-1759,37,-58,-103
2,503,234397,-6283,-14934,-1654,48,-88,-126
2,504,234402,-6275,-14977,-1762,59,-117,-152
2,505,234407,-6309,-14945,-1982,67,-137,-176
2,506,234412,-6342,-14896,-2210,79,-140,-201
2,507,234417,-6358,-14925,-2275,90,-135,-224
2,508,234422,-6290,-14901,-2299,99,-119,-248
2,509,234427,-6157,-14925,-2296,111,-98,-272
2,510,234432,-6116,-14936,-2158,121,-74,-296
2,511,234437,-6076,-14951,-2106,131,-47,-322
2,512,234442,-6172,-14962,-2073,140,-24,-350
2,513,234447,-6128,-15003,-1946,152,-8,-376
2,514,234452,-6089,-15005,-1845,162,-3,-395
2,515,234457,-6031,-15055,-1597,171,-2,-417
2,516,234462,-6010,-15032,-1513,183,-10,-442
2,517,234467,-5945,-15117,-1520,192,-33,-467
2,518,234472,-6154,-15223,-1571,209,-101,-514
2,519,234477,-6199,-15205,-1623,217,-141,-534
2,520,234482,-5964,-15216,-1547,229,-175,-554
2,521,234487,-5781,-15215,-1493,237,-204,-579
2,522,234492,-5810,-15254,-1450,245,-241,-602
2,523,234497,-5902,-15182,-1554,253,-279,-629
2,524,234502,-5887,-15103,-1830,264,-294,-651
2,525,234507,-5764,-15123,-2136,272,-278,-670
2,526,234512,-5520,-15221,-2207,280,-241,-688
2,527,234517,-5374,-15311,-2102,289,-195,-713
2,528,234522,-5349,-15300,-2036,296,-146,-740
2,529,234527,-5469,-15354,-2161,310,-85,-762
2,530,234532,-5481,-15382,-2212,323,-10,-786
2,531,234537,-5438,-15349,-2158,331,61,-806
2,532,234542,-5436,-15407,-2057,342,109,-826
2,533,234547,-5360,-15595,-1785,352,134,-845
2,534,234552,-5191,-15726,-1428,363,131,-863
2,535,234557,-5087,-15755,-1080,371,103,-879
2,536,234562,-5066,-15758,-965,383,56,-898
2,537,234567,-5185,-15755,-931,390,-5,-919
2,538,234572,-5171,-15736,-1079,397,-82,-935
2,539,234577,-5117,-15683,-1165,403,-150,-947
2,540,234582,-5049,-15697,-1053,409,-206,-964
2,541,234587,-5027,-15746,-1045,412,-249,-984
2,542,234592,-4941,-15761,-1118,419,-275,-1002
2,543,234597,-4773,-15740,-1241,427,-284,-1018
2,544,234602,-4597,-15721,-1464,432,-273,-1034
2,545,234607,-4472,-15728,-1708,437,-232,-1051
2,546,234612,-4393,-15720,-1691,443,-164,-1069
2,547,234617,-4464,-15762,-1725,449,-88,-1086
2,548,234622,-4539,-15858,-1895,457,3,-1101
2,549,234627,-4579,-15903,-1895,466,100,-1117
2,550,234632,-4414,-15991,-1655,479,162,-1129
2,551,234637,-4098,-16064,-1118,482,191,-1138
2,552,234642,-3872,-16086,-438,487,173,-1150
2,553,234647,-3855,-16131,-8,492,111,-1160
2,554,234652,-3858,-16176,-91,497,34,-1169
2,555,234657,-3804,-16207,-255,501,-40,-1176
2,556,234662,-3648,-16187,-330,502,-111,-1182
2,557,234667,-3415,-16223,-484,501,-173,-1185
2,558,234672,-3290,-16260,-591,498,-216,-1198
2,559,234677,-3291,-16277,-686,500,-236,-1209
2,560,234682,-3276,-16299,-888,504,-234,-1215
2,561,234687,-3165,-16260,-1164,506,-215,-1220
2,562,234692,-2991,-16241,-1132,506,-170,-1224
2,563,234697,-2805,-16337,-1024,508,-113,-1227
2,564,234702,-2594,-16379,-1006,513,-53,-1232
2,565,234707,-2526,-16410,-981,515,11,-1238
2,566,234712,-2538,-16468,-865,516,73,-1237
2,567,234717,-2503,-16518,-698,519,116,-1237
2,568,234722,-2407,-16506,-428,519,142,-1237
2,569,234727,-2299,-16481,-267,521,154,-1237
2,570,234732,-2146,-16514,-245,523,156,-1232
2,571,234737,-2145,-16491,-103,522,150,-1233
2,572,234742,-2199,-16466,-25,517,132,-1227
2,573,234747,-2150,-16397,-4,516,115,-1223
2,574,234752,-2050,-16373,-49,516,111,-1222
2,575,234757,-1971,-16369,-159,512,110,-1214
2,576,234762,-1933,-16385,-93,507,112,-1211
2,577,234767,-1915,-16347,-45,502,113,-1210
2,578,234772,-1842,-16327,-114,499,116,-1204
2,579,234777,-1738,-16390,-190,499,129,-1196
2,580,234782,-1541,-16411,-223,495,146,-1184
2,581,234787,-1258,-16481,76,485,166,-1173
2,582,234792,-1060,-16513,189,481,167,-1163
2,583,234797,-949,-16520,103,483,173,-1153
2,584,234802,-980,-16541,-114,476,188,-1148
2,585,234807,-965,-16541,-319,473,208,-1137
2,586,234812,-983,-16528,-393,468,234,-1120
2,587,234817,-918,-16698,-220,460,262,-1108
2,588,234822,-842,-16730,-102,455,293,-1095
2,589,234827,-874,-16671,-118,453,317,-1086
2,590,234832,-994,-16618,-105,450,334,-1079
2,591,234837,-1223,-16567,273,439,346,-1055
2,592,234842,-1080,-16498,369,431,341,-1040
2,593,234847,-955,-16504,346,425,340,-1032
2,594,234852,-1115,-16597,120,421,348,-1025
2,595,234857,-1251,-16673,-209,415,350,-1012
2,596,234862,-1359,-16958,-249,408,343,-991
2,597,234867,-5656,-23275,-6345,466,438,-972
2,598,234872,-237,-26503,-31590,707,1856,-1199
2,599,234877,-15563,-10884,-32768,309,5396,-1538
2,600,234882,-31069,-13958,17765,-4,10979,-636
2,601,234904,-9326,-21857,26069,545,2274,358
2,602,234905,-9326,-21857,26069,545,2274,358
2,603,234906,-28088,-12480,16175,184,-2862,-85
2,604,234907,-28088,-12480,16175,184,-2862,-85
2,605,234908,-28088,-12480,16175,184,-2862,-85
2,606,234912,-23327,-11559,-3401,196,-6147,306
2,607,234917,3615,-14393,-18380,-71,-6142,441
2,608,234922,13258,-17939,16,-94,-3238,496
2,609,234927,1329,-18218,15178,-38,-2315,324
2,610,234932,-12482,-15350,-7093,171,-3729,135
2,611,234937,-12122,-13616,-32768,262,-3439,102
2,612,234942,-4548,-11265,-11507,5,-727,194
2,613,234947,2707,-15796,14758,-129,148,506
2,614,234952,5292,-17671,5887,95,-351,445
2,615,234957,267,-16838,441,230,10,230
2,616,234962,-6525,-16749,-1012,160,65,186
2,617,234967,-7151,-15099,-9996,165,-367,198
2,618,234972,-2695,-13283,-9989,87,-149,236
2,619,234977,1686,-15077,2012,11,598,326
2,620,234982,1824,-17323,12397,31,900,307
2,621,234987,-400,-16957,7617,161,403,192
2,622,234992,-2909,-15526,-3571,205,-58,172
2,623,234997,-3780,-14647,-5118,94,26,214
2,624,235002,-1782,-14765,812,10,119,277
2,625,235007,960,-15947,5072,12,-7,316
2,626,235012,1706,-16387,5246,51,-109,258
2,627,235017,132,-16315,783,81,-219,213
2,628,235022,-2470,-15675,-3149,78,-199,207
2,629,235027,-3284,-14935,-3318,36,-100,235
2,630,235032,-1388,-15335,-32,7,4,288
2,631,235037,1238,-16128,3121,17,70,293
2,632,235042,1905,-16564,2052,39,67,258
2,633,235047,-307,-16324,-121,58,135,213
2,634,235052,-2871,-15686,-1603,41,177,204
2,635,235057,-3094,-15402,-1459,13,190,243
2,636,235062,-1030,-15725,677,-4,246,274
2,637,235067,1056,-16408,2255,-3,275,275
2,638,235072,966,-16723,2682,12,259,242
2,639,235077,-1009,-16434,1214,19,151,210
2,640,235082,-2586,-16096,-457,12,49,212
2,641,235087,-2439,-15895,-488,-11,43,238
2,642,235092,-855,-16233,334,-23,92,265
2,643,235097,324,-16747,1572,-22,155,260
2,644,235102,7,-16919,1339,-15,140,232
2,645,235107,-1319,-16753,74,-11,93,209
2,646,235112,-2329,-16332,-739,-21,83,207
2,647,235117,-2083,-16202,-578,-35,125,226
2,648,235122,-1077,-16305,784,-40,206,238
2,649,235127,-336,-16529,1643,-41,237,233
2,650,235132,-553,-16566,1313,-38,201,210
2,651,235137,-1529,-16352,474,-38,143,194
2,652,235142,-2179,-16075,-238,-48,100,201
2,653,235147,-1967,-15965,324,-61,106,213
2,654,235152,-1244,-16124,1181,-70,102,218
2,655,235157,-725,-16347,1600,-71,77,212
2,656,235162,-959,-16378,1320,-67,28,194
2,657,235167,-1634,-16238,425,-70,-26,183
2,658,235172,-2068,-16130,85,-78,-40,185
2,659,235177,-1881,-16143,238,-89,-30,194
2,660,235182,-1279,-16372,722,-94,-2,193
2,661,235187,-971,-16512,1036,-95,18,187
2,662,235192,-1181,-16501,803,-94,15,173
2,663,235197,-1683,-16489,392,-95,12,163
2,664,235202,-1939,-16457,192,-102,17,162
2,665,235207,-1292,-16602,977,-110,43,167
2,666,235212,-1047,-16686,1207,-108,38,158
2,667,235217,-1314,-16564,1075,-110,17,148
2,668,235222,-1701,-16434,635,-110,-12,143
2,669,235227,-1818,-16342,389,-120,-25,143
2,670,235232,-1628,-16288,571,-127,-20,145
2,671,235237,-1338,-16339,764,-128,-19,144
2,672,235242,-1281,-16352,923,-128,-23,138
2,673,235247,-1484,-16304,731,-126,-37,130
2,674,235252,-1749,-16266,601,-130,-51,125
2,675,235257,-1746,-16204,620,-133,-55,126
2,676,235262,-1528,-16369,622,-136,-43,127
2,677,235267,-1399,-16545,587,-135,-29,122
2,678,235272,-1425,-16598,567,-134,-26,114
2,679,235277,-1642,-16559,535,-137,-36,107
2,680,235282,-1722,-16531,568,-137,-44,104
2,681,235287,-1691,-16558,646,-138,-41,105
2,682,235292,-1512,-16595,779,-136,-30,102
2,683,235297,-1419,-16671,755,-136,-30,101
2,684,235302,-1503,-16596,743,-137,-45,96
2,685,235307,-1605,-16549,605,-139,-70,89
2,686,235312,-1625,-16478,502,-137,-86,89
2,687,235317,-1571,-16480,561,-139,-88,90
2,688,235322,-1509,-16472,603,-140,-87,86
2,689,235327,-1468,-16384,696,-138,-85,81
2,690,235332,-1476,-16317,670,-137,-82,75
2,691,235337,-1528,-16290,548,-137,-73,76
2,692,235342,-1551,-16301,434,-137,-56,74
2,693,235347,-1543,-16308,369,-137,-34,72
2,694,235352,-1558,-16415,375,-137,-9,70
2,695,235357,-1564,-16455,411,-134,15,66
2,696,235362,-1610,-16468,386,-133,39,61
2,697,235367,-1636,-16484,460,-129,53,58
2,698,235372,-1596,-16489,508,-130,57,55
2,699,235377,-1582,-16497,615,-128,50,55
2,700,235382,-1595,-16514,643,-127,37,52
2,701,235387,-1558,-16475,623,-127,17,50
2,702,235392,-1679,-16484,601,-125,-3,48
2,703,235397,-1741,-16482,597,-121,-25,46
2,704,235402,-1704,-16525,539,-123,-43,44
2,705,235407,-1624,-16474,603,-120,-59,43
2,706,235412,-1641,-16457,697,-118,-74,43
2,707,235417,-1668,-16397,677,-118,-91,38
2,708,235422,-1734,-16349,552,-116,-97,33
2,709,235427,-1786,-16305,427,-113,-88,31
2,710,235432,-1763,-16278,319,-112,-76,28
2,711,235437,-1709,-16326,334,-110,-52,28
2,712,235442,-1694,-16342,354,-109,-24,23
2,713,235447,-1692,-16353,292,-109,-1,19
2,714,235452,-1693,-16386,273,-105,26,14
2,715,235457,-1677,-16409,381,-103,50,10
2,716,235462,-1683,-16406,474,-102,66,12
2,717,235467,-1698,-16410,500,-101,74,10
2,718,235472,-1609,-16498,547,-99,68,7
2,719,235477,-1647,-16472,589,-98,56,8
2,720,235482,-1684,-16457,632,-99,37,2
2,721,235487,-1740,-16420,567,-95,13,2
2,722,235492,-1845,-16367,479,-91,-8,1
2,723,235497,-1874,-16396,401,-88,-21,0
2,724,235502,-1818,-16425,437,-86,-33,-1
2,725,235507,-1782,-16462,542,-83,-54,-3
2,726,235512,-1706,-16418,673,-85,-76,-4
2,727,235517,-1723,-16355,672,-82,-97,-5
2,728,235522,-1744,-16323,556,-78,-106,-8
2,729,235527,-1752,-16283,385,-76,-107,-9
2,730,235532,-1768,-16293,294,-78,-99,-9
2,731,235537,-1741,-16272,279,-74,-82,-9
2,732,235542,-1689,-16303,225,-72,-63,-12
2,733,235547,-1717,-16278,218,-68,-44,-16
2,734,235552,-1685,-16302,271,-66,-24,-16
2,735,235557,-1701,-16293,302,-67,-6,-14
2,736,235562,-1732,-16324,311,-61,4,-14
2,737,235567,-1668,-16350,380,-58,15,-16
2,738,235572,-1642,-16323,425,-55,16,-16
2,739,235577,-1700,-16354,451,-55,4,-16
2,740,235582,-1817,-16376,402,-51,-6,-20
2,741,235587,-1841,-16406,333,-51,-9,-20
2,742,235592,-1835,-16408,276,-48,-9,-18
2,743,235597,-1828,-16438,265,-45,-8,-18
2,744,235602,-1806,-16450,262,-44,-9,-20
2,745,235607,-1839,-16438,336,-40,-18,-22
2,746,235612,-1872,-16374,433,-38,-30,-21
2,747,235617,-1888,-16337,444,-37,-43,-23
2,748,235622,-1852,-16352,443,-35,-52,-23
2,749,235627,-1788,-16355,431,-34,-62,-21
2,750,235632,-1759,-16371,300,-33,-70,-23
2,751,235637,-1798,-16383,235,-30,-75,-25
2,752,235642,-1844,-16341,227,-30,-77,-26
2,753,235647,-1867,-16345,196,-24,-74,-22
2,754,235652,-1857,-16432,173,-22,-65,-24
2,755,235657,-1774,-16432,184,-22,-49,-25
2,756,235662,-1791,-16502,166,-19,-34,-26
2,757,235667,-1796,-16540,210,-16,-25,-25
2,758,235672,-1810,-16590,180,-12,-16,-24
2,759,235677,-1805,-16567,181,-11,-9,-25
2,760,235682,-1792,-16529,214,-10,-4,-27
2,761,235687,-1809,-16505,292,-8,-3,-27
2,762,235692,-1834,-16505,369,-5,-7,-26
2,763,235697,-1807,-16523,422,-4,-17,-24
2,764,235702,-1831,-16484,408,1,-28,-24
2,765,235707,-1847,-16531,383,-1,-39,-26
2,766,235712,-1812,-16577,332,-1,-49,-23
2,767,235717,-1767,-16583,254,3,-55,-24
2,768,235722,-1751,-16586,357,7,-67,-22
2,769,235727,-1724,-16578,498,3,-85,-23
2,770,235732,-1710,-16532,548,3,-104,-20
2,771,235737,-1716,-16500,428,5,-112,-20
2,772,235742,-1716,-16496,272,7,-104,-20
2,773,235747,-1674,-16483,119,12,-89,-19
2,774,235752,-1706,-16472,55,11,-68,-21
2,775,235757,-1683,-16424,85,12,-49,-19
2,776,235762,-1690,-16435,163,14,-32,-17
2,777,235767,-1681,-16452,206,16,-8,-17
2,778,235772,-1723,-16426,244,16,15,-19
2,779,235777,-1688,-16449,240,17,34,-19
2,780,235782,-1712,-16443,225,20,43,-19
2,781,235787,-1692,-16421,260,18,42,-16
2,782,235792,-1667,-16407,387,20,34,-15
2,783,235797,-1697,-16360,500,20,21,-12
2,784,235802,-1690,-16390,530,19,9,-11
2,785,235807,-1689,-16422,393,22,1,-14
2,786,235812,-1716,-16479,209,26,1,-11
2,787,235817,-1760,-16521,100,23,2,-11
2,788,235822,-1790,-16506,122,22,8,-11
2,789,235827,-1821,-16478,267,24,9,-10
2,790,235832,-1794,-16485,362,25,7,-6
2,791,235837,-1744,-16516,367,27,3,-9
2,792,235842,-1783,-16507,301,30,-2,-6
2,793,235847,-1802,-16505,308,30,-6,-5
2,794,235852,-1800,-16468,255,28,-13,-8
2,795,235857,-1742,-16444,302,25,-21,-6
2,796,235862,-1710,-16439,348,30,-18,-5
2,797,235867,-1646,-16456,253,30,-13,-5
2,798,235872,-1635,-16474,233,30,-7,-7
2,799,235877,-1679,-16463,200,29,-3,-6
2,800,235882,-1677,-16414,209,28,0,-5
2,801,235887,-1675,-16439,245,30,7,-5
2,802,235892,-1659,-16449,266,31,19,-4
2,803,235897,-1639,-16413,284,33,30,-2
2,804,235902,-1653,-16418,288,34,36,0
2,805,235907,-1668,-16391,259,34,31,0
2,806,235912,-1658,-16399,315,31,24,1
2,807,235917,-1699,-16368,390,30,19,4
2,808,235922,-1734,-16392,370,32,13,2
2,809,235927,-1698,-16413,225,32,16,0
2,810,235932,-1744,-16432,151,33,20,2
2,811,235937,-1790,-16427,153,33,21,2
2,812,235942,-1813,-16365,452,33,0,6
2,813,235947,-1717,-16358,485,31,-8,4
2,814,235952,-1637,-16341,427,30,-13,5
2,815,235957,-1635,-16365,389,32,-16,8
2,816,235962,-1685,-16372,304,31,-19,7
2,817,235967,-1709,-16286,242,31,-21,5
2,818,235972,-1684,-16286,142,29,-14,7
2,819,235977,-1602,-16320,122,28,3,5
2,820,235982,-1612,-16314,185,28,22,7
2,821,235987,-1613,-16302,255,29,36,9
2,822,235992,-1683,-16245,238,28,46,8
2,823,235997,-1724,-16264,233,29,51,10
2,824,236002,-1790,-16285,231,27,59,10
2,825,236007,-1782,-16324,216,26,67,8
2,826,236012,-1802,-16347,347,25,74,8
2,827,236017,-1809,-16383,341,24,66,9
2,828,236022,-1811,-16397,382,26,52,6
2,829,236027,-1844,-16404,385,24,31,10
2,830,236032,-1825,-16414,404,25,18,9
2,831,236037,-1829,-16376,331,24,6,9
2,832,236042,-1813,-16353,324,21,-1,8
2,833,236047,-1808,-16306,242,21,-7,7
2,834,236052,-1818,-16319,151,20,-10,7
2,835,236057,-1838,-16289,130,22,-6,8
2,836,236062,-1803,-16271,160,20,0,8
2,837,236067,-1819,-16283,249,19,6,7
2,838,236072,-1825,-16270,260,18,11,8
2,839,236077,-1800,-16271,222,20,17,8
2,840,236082,-1899,-16321,241,18,20,7
2,841,236087,-1945,-16257,231,19,24,3
2,842,236092,-1876,-16253,203,15,32,4
2,843,236097,-1910,-16292,218,17,38,4
2,844,236102,-1901,-16300,261,15,42,4
2,845,236107,-1906,-16329,269,14,36,4
2,846,236112,-1877,-16359,287,10,30,3
2,847,236117,-1874,-16378,280,13,22,4
2,848,236122,-1853,-16380,261,13,13,5
2,849,236127,-1829,-16404,263,12,0,1
2,850,236132,-1815,-16396,337,9,-18,1
2,851,236137,-1814,-16359,370,11,-37,4
2,852,236142,-1847,-16358,319,10,-51,0
2,853,236147,-1847,-16348,328,10,-63,2
2,854,236152,-1856,-16319,257,10,-74,3
2,855,236157,-1839,-16319,156,8,-79,2
2,856,236162,-1867,-16341,109,9,-68,0
2,857,236167,-1835,-16348,158,7,-57,1
2,858,236172,-1825,-16324,261,6,-45,-2
2,859,236177,-1784,-16334,367,7,-33,-5
2,860,236182,-1719,-16308,421,5,-23,-2
2,861,236187,-1696,-16301,405,1,-12,1
2,862,236192,-1706,-16363,322,1,-5,-4
2,863,236197,-1694,-16424,277,0,3,-3
2,864,236202,-1679,-16390,267,-3,5,0
2,865,236207,-1681,-16403,306,0,4,1
2,866,236212,-1683,-16427,271,-2,-1,-1
2,867,236217,-1690,-16504,329,-4,-2,-2
2,868,236222,-1774,-16518,333,-6,-6,0
2,869,236227,-1793,-16512,311,-8,-17,-2
2,870,236232,-1823,-16465,316,-8,-22,0
2,871,236237,-1763,-16435,290,-8,-24,-1
2,872,236242,-1721,-16416,267,-6,-24,1
2,873,236247,-1692,-16458,292,-6,-29,1
2,874,236252,-1729,-16409,304,-8,-31,-1
2,875,236257,-1757,-16369,230,-8,-32,0
2,876,236262,-1699,-16367,170,-10,-22,-1
2,877,236267,-1642,-16348,117,-7,-12,2
2,878,236272,-1719,-16397,145,-11,-2,2
2,879,236277,-1719,-16380,231,-13,6,0
2,880,236282,-1754,-16329,211,-13,11,2
2,881,236287,-1787,-16335,227,-10,25,2
2,882,236292,-1766,-16373,184,-12,37,-1
2,883,236297,-1827,-16414,141,-10,49,-1
2,884,236302,-1847,-16436,116,-11,56,-2
2,885,236307,-1957,-16480,215,-11,52,-2
2,886,236312,-1957,-16462,292,-10,39,-4
2,887,236317,-1994,-16451,446,-11,27,-5
2,888,236322,-1970,-16381,524,-10,6,-4
2,889,236327,-1886,-16407,460,-11,-18,-5
2,890,236332,-1922,-16384,358,-13,-41,-6
2,891,236337,-1961,-16403,224,-13,-60,-7
2,892,236342,-1965,-16409,155,-13,-72,-8
2,893,236347,-1937,-16360,215,-12,-82,-9
2,894,236352,-1868,-16302,232,-11,-81,-10
2,895,236357,-1769,-16341,215,-12,-76,-9
2,896,236362,-1783,-16323,237,-11,-72,-9
2,897,236367,-1801,-16280,165,-14,-63,-12
2,898,236372,-1816,-16266,212,-15,-50,-12
2,899,236377,-1811,-16273,211,-13,-34,-12
2,900,236382,-1757,-16279,146,-10,-13,-11
2,901,236387,-1781,-16273,111,-12,7,-11
2,902,236392,-1802,-16285,168,-13,23,-13
2,903,236397,-1848,-16301,150,-13,39,-16
2,904,236402,-1853,-16314,206,-11,43,-18
2,905,236407,-1835,-16311,303,-10,45,-16
2,906,236412,-1824,-16339,378,-10,47,-16
2,907,236417,-1795,-16315,439,-11,38,-15
2,908,236422,-1759,-16289,443,-12,21,-15
2,909,236427,-1802,-16320,326,-10,4,-13
2,910,236432,-1871,-16344,162,-10,-9,-13
2,911,236437,-1819,-16393,147,-11,-20,-14
2,912,236442,-1815,-16359,273,-12,-34,-15
2,913,236447,-1808,-16273,466,-12,-47,-15
2,914,236452,-1800,-16254,578,-12,-63,-16
2,915,236457,-1741,-16238,497,-11,-74,-14
2,916,236462,-1737,-16274,309,-12,-76,-12
2,917,236467,-1727,-16291,152,-11,-70,-13
2,918,236472,-1720,-16287,58,-11,-61,-12
2,919,236477,-1709,-16314,45,-12,-48,-11
2,920,236482,-1650,-16318,93,-13,-30,-13
2,921,236487,-1638,-16336,145,-11,-8,-13
2,922,236492,-1680,-16326,162,-10,17,-13
2,923,236497,-1676,-16373,131,-10,38,-15
2,924,236502,-1704,-16386,140,-12,54,-15
2,925,236507,-1762,-16366,151,-11,62,-17
2,926,236512,-1763,-16415,193,-8,65,-14
2,927,236517,-1774,-16417,283,-10,66,-12
2,928,236522,-1774,-16439,418,-10,59,-13
2,929,236527,-1780,-16381,542,-10,41,-12
2,930,236532,-1793,-16322,632,-11,13,-11
2,931,236537,-1821,-16349,608,-12,-11,-11
2,932,236542,-1795,-16377,491,-11,-32,-13
2,933,236547,-1794,-16408,308,-11,-46,-11
2,934,236552,-1759,-16429,193,-10,-51,-10
2,935,236557,-1800,-16420,175,-13,-56,-11
2,936,236562,-1758,-16392,276,-14,-66,-11
2,937,236567,-1707,-16345,386,-13,-69,-10
2,938,236572,-1700,-16374,346,-11,-62,-9
2,939,236577,-1697,-16352,239,-9,-52,-10
2,940,236582,-1722,-16372,95,-9,-40,-8
2,941,236587,-1732,-16377,1,-10,-24,-10
2,942,236592,-1701,-16352,119,-9,-13,-9
2,943,236597,-1714,-16317,252,-8,-6,-8
2,944,236602,-1665,-16314,349,-6,3,-10
2,945,236607,-1616,-16266,335,-7,15,-8
2,946,236612,-1677,-16288,295,-7,16,-9
2,947,236617,-1727,-16278,269,-5,17,-6
2,948,236622,-1683,-16281,321,-6,14,-6
2,949,236627,-1700,-16293,396,-8,8,-7
2,950,236632,-1709,-16253,393,-9,3,-7
2,951,236637,-1753,-16279,307,-11,2,-6
2,952,236642,-1798,-16322,210,-10,2,-7
2,953,236647,-1775,-16338,164,-6,3,-8
2,954,236652,-1873,-16372,234,-7,-5,-4
2,955,236657,-1827,-16380,321,-7,-16,-4
2,956,236662,-1766,-16353,347,-9,-22,-6
2,957,236667,-1808,-16352,382,-5,-25,-6
2,958,236672,-1772,-16397,176,-5,-27,-7
2,959,236677,-1815,-16342,122,-4,-28,-5
2,960,236682,-1744,-16319,217,-7,-29,-7
2,961,236687,-1697,-16327,266,-4,-27,-3
2,962,236692,-1748,-16328,292,-5,-21,-3
2,963,236697,-1697,-16338,244,-3,-12,-8
2,964,236702,-1681,-16318,150,-2,-4,-9
2,965,236707,-1736,-16349,108,-2,8,-5
2,966,236712,-1707,-16396,124,-3,18,-3
2,967,236717,-1684,-16406,169,0,20,-3
2,968,236722,-1716,-16387,299,0,21,-4
2,969,236727,-1709,-16383,326,-3,22,-5
2,970,236732,-1740,-16375,280,-3,24,-4
2,971,236737,-1793,-16352,285,-1,20,-2
2,972,236742,-1741,-16357,200,-1,16,-7
2,973,236747,-1758,-16379,107,2,16,-7
2,974,236752,-1816,-16385,134,0,14,-6
2,975,236757,-1855,-16360,241,-1,7,-3
2,976,236762,-1840,-16341,313,0,2,-7
2,977,236767,-1807,-16347,363,0,-6,-7
2,978,236772,-1762,-16326,374,1,-13,-8
2,979,236777,-1743,-16375,313,1,-16,-7
2,980,236782,-1761,-16346,184,0,-21,-7
2,981,236787,-1804,-16394,95,3,-22,-7
2,982,236792,-1736,-16408,158,2,-17,-8
2,983,236797,-1721,-16386,237,0,-12,-8
2,984,236802,-1730,-16389,292,2,-10,-4
2,985,236807,-1707,-16454,325,2,-8,-9
2,986,236812,-1692,-16477,209,2,-7,-7
2,987,236817,-1767,-16443,165,0,-1,-7
2,988,236822,-1795,-16434,107,3,3,-7
2,989,236827,-1804,-16443,57,4,8,-8
2,990,236832,-1754,-16442,129,4,16,-5
2,991,236837,-1817,-16442,140,5,20,-8
2,992,236842,-1833,-16400,238,6,23,-10
2,993,236847,-1855,-16375,282,5,21,-9
2,994,236852,-1864,-16354,275,6,21,-9
2,995,236857,-1864,-16383,281,5,18,-8
2,996,236862,-1874,-16367,300,4,10,-11
2,997,236867,-1843,-16381,355,5,2,-8
2,998,236872,-1839,-16388,375,2,-13,-9
2,999,236877,-1850,-16400,353,3,-29,-11
