event_id,seq,ts_ms,ax,ay,az,gx,gy,gz
8,0,933902,1948,-15936,-2686,9,-22,-28
8,1,933907,1989,-15971,-2750,11,-36,-26
8,2,933912,1975,-16071,-2867,12,-46,-27
8,3,933917,1980,-16161,-2847,14,-48,-28
8,4,933922,1916,-16246,-2858,7,-42,-34
8,5,933927,1931,-16268,-2875,6,-37,-32
8,6,933932,1937,-16254,-2994,5,-25,-33
8,7,933937,1927,-16332,-2949,6,-11,-35
8,8,933942,1900,-16364,-2841,7,-11,-32
8,9,933947,1907,-16351,-2843,6,-13,-32
8,10,933952,1955,-16344,-2882,7,-14,-34
8,11,933957,2040,-16321,-2858,8,-9,-36
8,12,933962,2013,-16320,-2797,5,-1,-36
8,13,933967,1990,-16342,-2760,5,-3,-36
8,14,933972,1985,-16312,-2735,5,-9,-35
8,15,933977,2005,-16286,-2732,6,-16,-34
8,16,933982,1998,-16345,-2692,6,-18,-34
8,17,933987,1984,-16334,-2665,7,-21,-33
8,18,933992,2021,-16236,-2665,5,-25,-34
8,19,933997,2065,-16249,-2709,3,-33,-34
8,20,934002,2051,-16316,-2685,8,-35,-33
8,21,934007,1982,-16357,-2549,7,-43,-31
8,22,934012,1859,-16452,-2505,4,-52,-34
8,23,934017,1826,-16477,-2567,4,-68,-36
8,24,934022,1915,-16433,-2648,4,-67,-37
8,25,934027,1964,-16415,-2658,5,-56,-36
8,26,934032,1953,-16363,-2588,6,-49,-35
8,27,934037,1909,-16342,-2563,4,-52,-33
8,28,934042,1932,-16287,-2643,1,-58,-36
8,29,934047,2041,-16190,-2683,2,-60,-38
8,30,934052,2129,-16104,-2719,3,-61,-40
8,31,934057,2149,-15978,-2766,0,-64,-38
8,32,934062,2156,-15934,-2823,3,-67,-37
8,33,934067,2200,-15905,-2857,3,-70,-37
8,34,934072,2134,-15901,-2755,3,-73,-35
8,35,934077,2062,-15957,-2724,6,-76,-34
8,36,934082,2091,-15978,-2804,6,-74,-35
8,37,934087,2171,-15975,-2836,2,-63,-34
8,38,934092,2168,-15930,-2796,3,-55,-34
8,39,934097,2123,-15934,-2706,4,-47,-33
8,40,934102,2062,-15965,-2601,4,-48,-32
8,41,934107,2051,-16072,-2574,4,-56,-32
8,42,934112,2065,-16128,-2558,6,-63,-33
8,43,934117,2082,-16102,-2543,3,-72,-32
8,44,934122,2090,-16071,-2546,4,-79,-31
8,45,934127,2086,-16061,-2566,5,-84,-30
8,46,934132,2060,-16076,-2579,7,-96,-29
8,47,934137,2029,-16114,-2602,7,-106,-29
8,48,934142,2088,-16125,-2597,7,-114,-31
8,49,934147,2077,-16068,-2708,9,-118,-29
8,50,934152,2068,-16026,-2817,9,-117,-30
8,51,934157,2087,-15967,-2814,9,-113,-27
8,52,934162,2092,-16025,-2801,9,-112,-28
8,53,934167,2012,-16048,-2776,12,-115,-29
8,54,934172,1897,-16106,-2783,13,-119,-29
8,55,934177,1813,-16123,-2888,13,-121,-27
8,56,934182,1839,-16085,-3015,16,-110,-31
8,57,934187,1931,-16078,-3079,13,-94,-32
8,58,934192,1985,-16050,-3092,12,-72,-34
8,59,934197,1923,-16004,-3045,13,-50,-40
8,60,934202,1917,-15981,-3002,13,-35,-39
8,61,934207,1900,-15965,-2938,15,-25,-38
8,62,934212,1921,-15933,-2798,19,-25,-39
8,63,934217,1901,-15899,-2732,22,-38,-37
8,64,934222,1831,-15935,-2754,21,-55,-37
8,65,934227,1864,-15907,-2883,21,-66,-40
8,66,934232,1949,-15844,-2997,26,-67,-38
8,67,934237,2066,-15797,-2992,28,-61,-38
8,68,934242,2058,-15849,-2955,29,-50,-39
8,69,934247,2050,-15921,-2929,31,-44,-40
8,70,934252,2055,-15948,-2941,34,-48,-38
8,71,934257,2057,-15909,-2929,35,-47,-38
8,72,934262,2136,-15856,-2870,38,-43,-38
8,73,934267,2136,-15898,-2792,39,-45,-37
8,74,934272,2110,-16008,-2682,40,-56,-36
8,75,934277,2055,-16020,-2644,44,-67,-34
8,76,934282,2089,-16029,-2692,48,-82,-35
8,77,934287,2051,-15957,-2800,51,-83,-33
8,78,934292,2036,-15917,-2756,50,-72,-34
8,79,934297,2013,-15887,-2725,51,-67,-36
8,80,934302,1959,-15907,-2734,53,-68,-36
8,81,934307,1912,-15912,-2799,54,-67,-36
8,82,934312,1872,-15904,-2841,58,-63,-35
8,83,934317,1842,-15886,-2896,59,-60,-37
8,84,934322,1878,-15929,-2881,60,-53,-37
8,85,934327,1923,-15934,-2975,64,-44,-37
8,86,934332,1956,-15932,-2969,62,-31,-39
8,87,934337,1929,-15912,-2917,67,-19,-41
8,88,934342,1965,-15918,-2907,69,-19,-44
8,89,934347,1943,-15902,-2950,71,-22,-45
8,90,934352,1972,-15913,-3017,76,-26,-43
8,91,934357,2002,-15902,-3096,77,-17,-42
8,92,934362,2061,-15886,-3078,75,-3,-45
8,93,934367,2068,-15905,-2983,78,8,-44
8,94,934372,1992,-15974,-2849,82,8,-46
8,95,934377,1925,-16021,-2735,82,-1,-48
8,96,934382,1877,-16038,-2707,84,-9,-50
8,97,934387,1954,-15975,-2830,88,-9,-49
8,98,934392,1952,-15970,-2946,91,-1,-50
8,99,934397,1955,-16005,-2893,92,4,-50
8,100,934402,1922,-15992,-2845,89,10,-53
8,101,934407,1911,-15954,-2783,93,14,-54
8,102,934412,1964,-15955,-2841,96,23,-55
8,103,934417,1958,-15986,-2952,95,35,-59
8,104,934422,1920,-16001,-2892,93,45,-60
8,105,934427,1961,-16000,-2762,94,50,-61
8,106,934432,1965,-15995,-2803,94,54,-62
8,107,934437,2041,-15999,-2871,97,54,-63
8,108,934442,2074,-15924,-2901,102,65,-65
8,109,934447,2081,-15863,-2933,99,77,-66
8,110,934452,2069,-15829,-2878,99,76,-69
8,111,934457,2139,-15804,-2802,99,71,-68
8,112,934462,2186,-15891,-2724,99,70,-67
8,113,934467,2206,-15821,-2692,103,69,-72
8,114,934472,2163,-15790,-2727,103,65,-68
8,115,934477,2115,-15888,-2591,104,61,-68
8,116,934482,2087,-16038,-2552,106,49,-68
8,117,934487,2088,-16035,-2479,106,39,-70
8,118,934492,2196,-16118,-2615,106,37,-69
8,119,934497,2230,-16177,-2641,106,48,-75
8,120,934502,2257,-16203,-2633,104,59,-76
8,121,934507,2186,-16118,-2528,102,66,-76
8,122,934512,2238,-16044,-2565,105,69,-78
8,123,934517,2322,-16009,-2637,105,77,-75
8,124,934522,2335,-16053,-2462,101,86,-74
8,125,934527,2279,-16057,-2331,100,84,-78
8,126,934532,2263,-16021,-2326,104,64,-80
8,127,934537,2347,-16018,-2430,103,51,-77
8,128,934542,2469,-15987,-2517,98,57,-74
8,129,934547,2473,-15929,-2477,98,65,-75
8,130,934552,2484,-15949,-2393,99,61,-74
8,131,934557,2414,-15973,-2387,98,52,-71
8,132,934562,2419,-16087,-2383,99,47,-68
8,133,934567,2407,-16125,-2414,96,52,-71
8,134,934572,2508,-16130,-2432,95,55,-73
8,135,934577,2563,-16127,-2447,96,58,-71
8,136,934582,2597,-16163,-2470,95,66,-73
8,137,934587,2559,-16189,-2357,90,67,-72
8,138,934592,2540,-16160,-2240,91,63,-71
8,139,934597,2558,-16144,-2253,89,64,-71
8,140,934602,2627,-16199,-2300,90,67,-67
8,141,934607,2579,-16182,-2236,90,64,-67
8,142,934612,2560,-16189,-2245,89,55,-64
8,143,934617,2635,-16170,-2271,88,49,-60
8,144,934622,2754,-16184,-2285,84,57,-61
8,145,934627,2730,-16194,-2244,83,62,-61
8,146,934632,2643,-16202,-2106,82,67,-60
8,147,934637,2586,-16203,-2001,80,60,-59
8,148,934642,2639,-16199,-2089,80,52,-55
8,149,934647,2635,-16186,-2099,76,55,-55
8,150,934652,2615,-16161,-2042,76,54,-56
8,151,934657,2638,-16306,-2054,75,45,-51
8,152,934662,2574,-16361,-2042,69,38,-53
8,153,934667,2574,-16386,-1996,68,31,-51
8,154,934672,2608,-16384,-2092,68,27,-46
8,155,934677,2680,-16368,-2169,66,31,-48
8,156,934682,2754,-16342,-2200,62,39,-47
8,157,934687,2689,-16244,-2028,63,35,-49
8,158,934692,2610,-16236,-2015,60,23,-46
8,159,934697,2617,-16255,-2180,60,8,-42
8,160,934702,2587,-16229,-2167,59,3,-43
8,161,934707,2606,-16161,-2126,58,5,-43
8,162,934712,2551,-16087,-2187,61,1,-40
8,163,934717,2616,-16157,-2303,57,1,-39
8,164,934722,2673,-16145,-2355,54,8,-38
8,165,934727,2714,-16141,-2255,53,22,-38
8,166,934732,2693,-16090,-2126,52,30,-37
8,167,934737,2702,-16032,-2048,50,31,-36
8,168,934742,2645,-16041,-2067,47,26,-37
8,169,934747,2631,-16055,-1975,45,11,-36
8,170,934752,2564,-16093,-1923,43,-2,-34
8,171,934757,2543,-16157,-1924,44,-14,-34
8,172,934762,2563,-16156,-2025,41,-16,-36
8,173,934767,2605,-16103,-2209,40,-10,-38
8,174,934772,2621,-16034,-2238,35,-7,-37
8,175,934777,2627,-15948,-2199,34,0,-35
8,176,934782,2691,-15895,-2172,34,7,-32
8,177,934787,2727,-15877,-2152,31,17,-32
8,178,934792,2741,-15849,-2051,31,17,-32
8,179,934797,2718,-15781,-1979,30,6,-29
8,180,934802,2704,-15768,-1972,29,-12,-25
8,181,934807,2821,-15759,-2016,27,-22,-24
8,182,934812,2858,-15750,-1959,27,-24,-24
8,183,934817,2750,-15820,-1847,27,-33,-24
8,184,934822,2661,-15851,-1873,26,-48,-23
8,185,934827,2724,-15853,-1966,22,-59,-20
8,186,934832,2787,-15849,-1984,19,-53,-19
8,187,934837,2747,-15872,-1959,17,-42,-18
8,188,934842,2664,-15871,-1966,14,-35,-19
8,189,934847,2641,-15855,-2049,16,-42,-18
8,190,934852,2669,-15802,-2122,13,-47,-16
8,191,934857,2708,-15675,-2170,11,-45,-19
8,192,934862,2687,-15596,-2214,7,-38,-18
8,193,934867,2677,-15538,-2227,8,-38,-15
8,194,934872,2641,-15480,-2177,7,-46,-13
8,195,934877,2577,-15531,-2130,8,-59,-15
8,196,934882,2644,-15587,-2206,11,-73,-12
8,197,934887,2713,-15565,-2203,11,-78,-10
8,198,934892,2618,-15646,-2113,11,-85,-11
8,199,934897,2443,-15697,-2071,9,-99,-8
8,200,934902,2466,-15711,-2155,9,-111,-7
8,201,934907,2604,-15809,-2205,11,-112,-6
8,202,934912,2618,-15876,-2139,8,-99,-6
8,203,934917,2516,-15963,-2075,7,-94,-9
8,204,934922,2454,-16035,-2047,5,-101,-9
8,205,934927,2497,-16138,-2081,7,-113,-7
8,206,934932,2530,-16327,-1982,6,-113,-6
8,207,934937,2438,-16495,-1861,4,-108,-11
8,208,934942,2407,-16572,-1899,-1,-102,-12
8,209,934947,2497,-16607,-2086,-2,-97,-14
8,210,934952,2543,-16609,-2178,-3,-89,-12
8,211,934957,2553,-16612,-2120,-6,-78,-13
8,212,934962,2527,-16592,-1996,-9,-70,-15
8,213,934967,2504,-16617,-2020,-9,-70,-15
8,214,934972,2498,-16595,-2113,-6,-73,-12
8,215,934977,2491,-16633,-2145,-4,-76,-11
8,216,934982,2553,-16739,-2071,-7,-80,-9
8,217,934987,2612,-16800,-2018,-6,-87,-10
8,218,934992,2629,-16836,-2026,-6,-87,-13
8,219,934997,2585,-16969,-2146,-6,-87,-13
8,220,935002,2608,-16956,-2180,-7,-89,-13
8,221,935007,2611,-16937,-2084,-10,-88,-12
8,222,935012,2598,-16918,-2111,-11,-86,-13
8,223,935017,2662,-16916,-2193,-11,-76,-15
8,224,935022,2656,-16904,-2198,-11,-62,-15
8,225,935027,2646,-16741,-2164,-14,-46,-13
8,226,935032,2787,-16708,-2218,-16,-32,-12
8,227,935037,2861,-16677,-2195,-16,-19,-14
8,228,935042,2789,-16688,-2053,-17,-12,-13
8,229,935047,2755,-16669,-1935,-19,-9,-13
8,230,935052,2703,-16607,-1968,-20,-19,-11
8,231,935057,2798,-16549,-1984,-17,-25,-11
8,232,935062,2849,-16521,-1939,-19,-24,-11
8,233,935067,2770,-16458,-1865,-21,-31,-10
8,234,935072,2786,-16421,-1937,-20,-39,-7
8,235,935077,2834,-16422,-2004,-20,-46,-8
8,236,935082,2898,-16467,-1990,-24,-40,-6
8,237,935087,2841,-16423,-1915,-28,-33,-10
8,238,935092,2814,-16347,-1883,-29,-34,-10
8,239,935097,2826,-16284,-1963,-29,-38,-10
8,240,935102,2802,-16188,-2013,-29,-38,-10
8,241,935107,2785,-16097,-1959,-35,-35,-11
8,242,935112,2820,-16107,-1893,-37,-39,-11
8,243,935117,2879,-16080,-1957,-37,-47,-9
8,244,935122,2883,-16015,-1961,-37,-52,-8
8,245,935127,2787,-15941,-1960,-37,-58,-9
8,246,935132,2746,-15859,-1993,-37,-68,-7
8,247,935137,2802,-15888,-2021,-39,-80,-4
8,248,935142,2786,-15910,-2037,-42,-91,-6
8,249,935147,2702,-15894,-2015,-41,-95,-7
8,250,935152,2638,-15902,-2092,-43,-95,-6
8,251,935157,2588,-15972,-2236,-44,-94,-7
8,252,935162,2629,-16088,-2296,-47,-86,-8
8,253,935167,2640,-16140,-2237,-47,-75,-11
8,254,935172,2641,-16096,-2181,-49,-68,-12
8,255,935177,2653,-16094,-2193,-48,-62,-15
8,256,935182,2652,-16083,-2227,-51,-58,-16
8,257,935187,2640,-16006,-2174,-52,-59,-17
8,258,935192,2649,-16003,-2055,-52,-68,-17
8,259,935197,2605,-16045,-2036,-53,-85,-16
8,260,935202,2573,-16084,-2083,-54,-102,-16
8,261,935207,2562,-15987,-2271,-54,-118,-20
8,262,935212,2672,-15942,-2398,-51,-123,-20
8,263,935217,2706,-15887,-2526,-53,-119,-19
8,264,935222,2690,-15934,-2536,-52,-113,-23
8,265,935227,2542,-15979,-2510,-55,-102,-25
8,266,935232,2486,-15999,-2512,-53,-93,-25
8,267,935237,2501,-16025,-2531,-53,-80,-26
8,268,935242,2542,-16077,-2413,-55,-59,-27
8,269,935247,2565,-16079,-2312,-56,-41,-32
8,270,935252,2531,-16085,-2138,-56,-45,-34
8,271,935257,2501,-16087,-2174,-54,-62,-34
8,272,935262,2523,-16146,-2192,-49,-78,-32
8,273,935267,2521,-16168,-2251,-52,-83,-34
8,274,935272,2554,-16109,-2309,-55,-91,-34
8,275,935277,2592,-16179,-2340,-52,-95,-37
8,276,935282,2590,-16188,-2384,-52,-93,-38
8,277,935287,2593,-16160,-2394,-54,-87,-38
8,278,935292,2502,-16168,-2366,-50,-84,-40
8,279,935297,2529,-16167,-2410,-48,-83,-43
8,280,935302,2623,-16089,-2462,-50,-77,-44
8,281,935307,2666,-16115,-2462,-50,-68,-46
8,282,935312,2577,-16169,-2388,-52,-64,-48
8,283,935317,2502,-16179,-2395,-49,-62,-48
8,284,935322,2523,-16124,-2523,-46,-56,-48
8,285,935327,2542,-16115,-2485,-48,-47,-51
8,286,935332,2501,-16089,-2430,-47,-41,-52
8,287,935337,2489,-16043,-2411,-44,-43,-52
8,288,935342,2482,-16052,-2500,-41,-49,-53
8,289,935347,2537,-16063,-2508,-41,-47,-54
8,290,935352,2559,-16124,-2551,-40,-38,-56
8,291,935357,2538,-16091,-2526,-42,-26,-59
8,292,935362,2527,-16064,-2487,-39,-20,-60
8,293,935367,2574,-16077,-2439,-39,-25,-58
8,294,935372,2543,-16073,-2417,-40,-29,-60
8,295,935377,2569,-16100,-2358,-37,-25,-63
8,296,935382,2647,-16045,-2359,-34,-20,-63
8,297,935387,2706,-16047,-2313,-33,-22,-62
8,298,935392,2715,-16045,-2275,-33,-24,-65
8,299,935397,2580,-16010,-2216,-28,-49,-62
8,300,935402,2585,-15999,-2331,-27,-52,-62
8,301,935407,2651,-15974,-2454,-28,-46,-62
8,302,935412,2692,-15941,-2476,-26,-37,-62
8,303,935417,2695,-15885,-2430,-28,-34,-64
8,304,935422,2703,-15850,-2500,-30,-29,-67
8,305,935427,2772,-15815,-2509,-26,-19,-65
8,306,935432,2804,-15804,-2452,-23,-8,-66
8,307,935437,2775,-15864,-2346,-24,-1,-66
8,308,935442,2736,-15878,-2267,-22,-4,-65
8,309,935447,2768,-15886,-2114,-20,-14,-64
8,310,935452,2740,-15904,-2100,-19,-26,-65
8,311,935457,2756,-15945,-2229,-17,-39,-64
8,312,935462,2843,-15956,-2262,-16,-43,-62
8,313,935467,2884,-15963,-2304,-17,-43,-62
8,314,935472,2912,-16013,-2304,-16,-39,-62
8,315,935477,2929,-15994,-2350,-16,-37,-65
8,316,935482,2901,-16022,-2314,-17,-29,-61
8,317,935487,2880,-15995,-2296,-17,-22,-60
8,318,935492,2930,-15937,-2280,-15,-22,-64
8,319,935497,2913,-15921,-2243,-14,-28,-60
8,320,935502,2948,-15908,-2245,-11,-41,-55
8,321,935507,3026,-15839,-2298,-10,-54,-55
8,322,935512,3042,-15768,-2319,-8,-60,-53
8,323,935517,3048,-15789,-2341,-8,-62,-51
8,324,935522,2944,-15899,-2378,-5,-62,-48
8,325,935527,2872,-15984,-2364,-8,-62,-51
8,326,935532,2903,-16043,-2354,-8,-59,-51
8,327,935537,2976,-16064,-2357,-6,-49,-51
8,328,935542,3016,-16150,-2350,-3,-34,-50
8,329,935547,2976,-16117,-2288,-5,-27,-49
8,330,935552,2976,-16106,-2202,-6,-35,-50
8,331,935557,2977,-16082,-2100,-4,-47,-46
8,332,935562,2914,-16073,-2119,-4,-58,-45
8,333,935567,2902,-16058,-2240,-3,-68,-44
8,334,935572,2939,-15995,-2265,-2,-78,-44
8,335,935577,2951,-15927,-2373,0,-88,-39
8,336,935582,3008,-15825,-2489,0,-93,-40
8,337,935587,3024,-15796,-2489,0,-88,-41
8,338,935592,3011,-15791,-2558,3,-81,-39
8,339,935597,2950,-15847,-2513,3,-76,-39
8,340,935602,2903,-15819,-2447,4,-77,-35
8,341,935607,2936,-15794,-2457,4,-77,-34
8,342,935612,2976,-15799,-2527,5,-77,-34
8,343,935617,2914,-15805,-2485,7,-79,-33
8,344,935622,2828,-15907,-2343,8,-86,-33
8,345,935627,2794,-16014,-2338,10,-102,-31
8,346,935632,2805,-16084,-2418,12,-114,-31
8,347,935637,2813,-16093,-2478,9,-113,-32
8,348,935642,2757,-16098,-2559,10,-103,-35
8,349,935647,2763,-16112,-2610,11,-91,-35
8,350,935652,2800,-16089,-2571,11,-84,-33
8,351,935657,2881,-16091,-2518,10,-77,-35
8,352,935662,2854,-16103,-2475,13,-72,-34
8,353,935667,2779,-16101,-2475,12,-71,-33
8,354,935672,2762,-16097,-2515,13,-73,-34
8,355,935677,2833,-16072,-2506,14,-77,-31
8,356,935682,2932,-16034,-2537,14,-82,-31
8,357,935687,2975,-16057,-2562,16,-86,-32
8,358,935692,2975,-16015,-2608,15,-88,-34
8,359,935697,2958,-15971,-2649,21,-88,-29
8,360,935702,2908,-15931,-2636,21,-92,-31
8,361,935707,2872,-15964,-2569,19,-92,-31
8,362,935712,2784,-16015,-2617,19,-93,-27
8,363,935717,2766,-16067,-2680,22,-87,-27
8,364,935722,2824,-16017,-2670,19,-77,-30
8,365,935727,2822,-16047,-2731,22,-70,-30
8,366,935732,2749,-16115,-2719,24,-58,-29
8,367,935737,2665,-16124,-2734,23,-52,-32
8,368,935742,2657,-16130,-2755,21,-46,-31
8,369,935747,2671,-16062,-2744,21,-28,-32
8,370,935752,2727,-16012,-2718,22,-11,-33
8,371,935757,2750,-16039,-2695,25,3,-34
8,372,935762,2787,-16007,-2540,20,5,-31
8,373,935767,2882,-15962,-2519,26,0,-32
8,374,935772,2936,-15901,-2521,24,0,-32
8,375,935777,2916,-15919,-2466,25,-7,-30
8,376,935782,2841,-15922,-2442,29,-25,-30
8,377,935787,2825,-15964,-2428,25,-46,-26
8,378,935792,2898,-15950,-2476,28,-59,-26
8,379,935797,2923,-15899,-2558,28,-59,-25
8,380,935802,2914,-15908,-2573,29,-58,-22
8,381,935807,2804,-15935,-2490,28,-62,-22
8,382,935812,2770,-15990,-2480,28,-66,-21
8,383,935817,2701,-15990,-2541,26,-70,-21
8,384,935822,2731,-15967,-2609,24,-65,-21
8,385,935827,2735,-16005,-2699,25,-47,-21
8,386,935832,2677,-16044,-2668,21,-31,-24
8,387,935837,2695,-16058,-2699,23,-19,-23
8,388,935842,2723,-16061,-2708,20,-9,-23
8,389,935847,2799,-16087,-2669,22,10,-20
8,390,935852,2770,-16100,-2657,22,28,-21
8,391,935857,2699,-16094,-2447,21,38,-25
8,392,935862,2698,-16096,-2345,19,36,-24
8,393,935867,2772,-16063,-2352,19,22,-19
8,394,935872,2916,-16040,-2290,19,9,-16
8,395,935877,2975,-16033,-2237,20,-5,-18
8,396,935882,2930,-16016,-2266,23,-22,-16
8,397,935887,2943,-15917,-2317,23,-43,-13
8,398,935892,2912,-16008,-2387,22,-67,-10
8,399,935897,2900,-16047,-2416,21,-77,-7
8,400,935902,2928,-16036,-2473,23,-76,-8
8,401,935907,2918,-15974,-2627,23,-72,-8
8,402,935912,2858,-16011,-2739,22,-59,-4
8,403,935917,2787,-16033,-2741,20,-46,-6
8,404,935922,2808,-16108,-2665,17,-30,-5
8,405,935927,2814,-16127,-2603,17,-14,-7
8,406,935932,2763,-16112,-2619,19,4,-6
8,407,935937,2734,-16130,-2650,17,27,-5
8,408,935942,2721,-16153,-2560,14,40,-6
8,409,935947,2718,-16154,-2402,9,42,-5
8,410,935952,2777,-16190,-2291,9,37,-2
8,411,935957,2807,-16154,-2305,9,37,-3
8,412,935962,2768,-16127,-2298,10,34,-3
8,413,935967,2813,-16068,-2307,10,25,-1
8,414,935972,2921,-16044,-2295,8,17,2
8,415,935977,2949,-16023,-2297,6,6,4
8,416,935982,2989,-15980,-2281,2,-2,3
8,417,935987,2945,-16020,-2343,4,-13,5
8,418,935992,2934,-16032,-2383,5,-20,9
8,419,935997,2889,-15973,-2458,4,-28,9
8,420,936002,2906,-15951,-2458,3,-29,11
8,421,936007,2923,-15940,-2528,2,-21,10
8,422,936012,2945,-15979,-2522,1,-19,10
8,423,936017,2887,-15950,-2486,1,-14,10
8,424,936022,2832,-15930,-2437,-2,-9,12
8,425,936027,2825,-15922,-2417,-3,-8,13
8,426,936032,2851,-15967,-2400,-3,-6,14
8,427,936037,2749,-16003,-2473,-5,-7,12
8,428,936042,2694,-15998,-2438,-3,-10,13
8,429,936047,2690,-15993,-2510,-3,-15,15
8,430,936052,2800,-15935,-2574,-5,-13,15
8,431,936057,2801,-15922,-2587,-8,-1,12
8,432,936062,2731,-15946,-2526,-10,4,11
8,433,936067,2731,-15932,-2468,-11,5,13
8,434,936072,2712,-15930,-2531,-10,7,14
8,435,936077,2787,-15930,-2499,-13,7,16
8,436,936082,2849,-15905,-2406,-13,3,18
8,437,936087,2848,-15881,-2314,-13,-7,17
8,438,936092,2812,-15895,-2322,-14,-24,16
8,439,936097,2797,-15919,-2416,-14,-44,19
8,440,936102,2807,-15916,-2522,-12,-57,25
8,441,936107,2784,-15917,-2488,-16,-58,28
8,442,936112,2729,-15952,-2490,-15,-63,32
8,443,936117,2749,-16006,-2540,-21,-63,33
8,444,936122,2980,-15958,-2408,-28,-55,38
8,445,936127,3064,-15940,-2149,-30,-44,39
8,446,936132,2695,-15837,-2260,-30,-65,46
8,447,936137,2559,-15817,-2401,-30,-84,50
8,448,936142,2505,-15862,-2514,-32,-93,54
8,449,936147,2522,-15861,-2485,-40,-90,56
8,450,936152,2525,-15785,-2559,-43,-80,58
8,451,936157,2448,-15737,-2761,-39,-65,61
8,452,936162,2240,-15702,-2866,-46,-52,67
8,453,936167,2049,-15738,-2781,-52,-52,71
8,454,936172,2016,-15860,-2704,-53,-52,82
8,455,936177,2146,-15983,-2636,-58,-43,88
8,456,936182,2247,-16120,-2524,-64,-35,93
8,457,936187,2204,-16323,-2411,-70,-31,104
8,458,936192,2265,-16499,-2061,-81,-43,110
8,459,936197,2522,-16614,-1754,-92,-60,119
8,460,936202,2840,-16642,-1594,-103,-66,135
8,461,936207,3173,-16669,-1362,-111,-65,146
8,462,936212,3042,-16641,-1518,-115,-89,157
8,463,936217,2958,-16479,-1464,-122,-155,173
8,464,936222,2832,-16206,-1294,-134,-253,194
8,465,936227,2718,-16158,-1609,-135,-349,217
8,466,936232,2829,-16150,-2210,-141,-397,239
8,467,936237,2991,-16137,-2869,-149,-408,259
8,468,936242,2948,-15855,-2690,-158,-403,277
8,469,936247,2495,-15804,-2589,-167,-427,293
8,470,936252,2298,-15806,-3182,-173,-466,314
8,471,936257,2269,-15840,-3407,-184,-468,337
8,472,936262,2197,-15731,-3170,-196,-440,356
8,473,936267,2106,-15705,-3037,-207,-430,375
8,474,936272,1918,-15680,-3126,-218,-440,396
8,475,936277,2012,-15661,-3385,-226,-458,418
8,476,936282,1989,-15583,-3516,-237,-449,436
8,477,936287,1830,-15507,-3461,-248,-422,453
8,478,936292,1520,-15454,-3405,-255,-401,474
8,479,936297,1368,-15563,-3777,-265,-394,493
8,480,936302,1407,-15430,-3728,-278,-376,511
8,481,936307,1399,-15200,-3344,-296,-358,528
8,482,936312,1214,-15382,-3538,-298,-363,545
8,483,936317,1045,-15465,-3552,-302,-381,568
8,484,936322,980,-15374,-3204,-315,-415,586
8,485,936327,920,-15495,-3480,-326,-462,607
8,486,936332,914,-15661,-3728,-332,-481,627
8,487,936337,752,-15645,-3625,-340,-481,648
8,488,936342,536,-15671,-3787,-349,-483,663
8,489,936347,630,-15569,-3505,-359,-476,683
8,490,936352,483,-15528,-3559,-374,-447,704
8,491,936357,827,-16026,-4850,-378,-408,723
8,492,936362,888,-15734,-4451,-395,-333,741
8,493,936367,453,-15523,-3337,-415,-325,750
8,494,936372,-8,-15541,-3367,-416,-394,769
8,495,936377,21,-15630,-3884,-414,-453,792
8,496,936382,191,-15769,-4516,-417,-465,814
8,497,936387,153,-15791,-4636,-431,-434,828
8,498,936392,18,-15743,-4356,-447,-404,842
8,499,936397,-103,-15765,-4549,-453,-388,856
8,500,936402,-155,-15813,-5004,-459,-357,874
8,501,936407,-160,-15788,-4979,-469,-302,889
8,502,936412,-130,-15737,-4384,-485,-252,904
8,503,936417,-66,-15704,-3860,-490,-253,920
8,504,936422,-135,-15729,-3789,-494,-294,933
8,505,936427,-372,-15776,-4113,-496,-345,946
8,506,936432,-551,-15784,-4439,-497,-388,967
8,507,936437,-532,-15802,-4551,-501,-410,987
8,508,936442,-436,-15991,-4569,-509,-419,1001
8,509,936447,-612,-16154,-4729,-517,-415,1010
8,510,936452,-895,-16235,-4997,-524,-397,1016
8,511,936457,-1089,-16162,-5325,-529,-362,1026
8,512,936462,-961,-16126,-5376,-538,-303,1037
8,513,936467,-967,-16058,-5156,-548,-237,1043
8,514,936472,-1133,-16038,-4812,-553,-201,1049
8,515,936477,-1303,-16088,-4841,-557,-193,1057
8,516,936482,-1267,-16028,-5030,-560,-186,1065
8,517,936487,-1156,-16013,-4917,-567,-172,1073
8,518,936492,-1095,-15979,-4645,-569,-167,1078
8,519,936497,-1126,-15934,-4596,-571,-184,1086
8,520,936502,-1433,-16010,-4842,-571,-238,1096
8,521,936507,-1535,-16030,-4764,-575,-259,1102
8,522,936512,-1503,-16006,-4837,-578,-276,1109
8,523,936517,-1405,-15931,-4922,-578,-281,1114
8,524,936522,-1476,-15937,-4943,-581,-277,1117
8,525,936527,-1761,-16012,-4959,-583,-287,1118
8,526,936532,-2046,-15967,-4905,-585,-305,1119
8,527,936537,-2133,-15947,-5170,-585,-317,1122
8,528,936542,-2117,-15954,-5407,-584,-306,1123
8,529,936547,-2220,-15910,-5507,-585,-274,1117
8,530,936552,-2479,-15827,-5603,-590,-244,1110
8,531,936557,-2577,-15744,-5707,-586,-219,1109
8,532,936562,-2451,-15725,-5850,-592,-196,1106
8,533,936567,-2383,-15629,-5409,-590,-159,1099
8,534,936572,-2662,-15671,-5560,-582,-151,1095
8,535,936577,-2898,-15675,-5642,-585,-148,1086
8,536,936582,-2695,-15519,-5647,-588,-153,1082
8,537,936587,-2546,-15410,-5751,-584,-150,1078
8,538,936592,-2749,-15391,-5590,-581,-134,1064
8,539,936597,-2955,-15365,-5716,-576,-128,1055
8,540,936602,-2932,-15295,-5913,-572,-130,1053
8,541,936607,-2827,-15279,-5693,-572,-120,1044
8,542,936612,-2898,-15306,-5527,-567,-116,1032
8,543,936617,-3198,-15346,-5432,-565,-124,1018
8,544,936622,-3460,-15339,-5640,-558,-139,1008
8,545,936627,-3463,-15384,-5960,-550,-150,1001
8,546,936632,-3401,-15457,-6007,-549,-140,990
8,547,936637,-3520,-15470,-5935,-546,-126,973
8,548,936642,-3746,-15563,-6137,-545,-105,959
8,549,936647,-3739,-15588,-6430,-541,-71,944
8,550,936652,-3418,-15486,-6341,-539,-20,931
8,551,936657,-3373,-15388,-6038,-535,27,912
8,552,936662,-3628,-15409,-5871,-531,42,893
8,553,936667,-3731,-15431,-6025,-522,30,876
8,554,936672,-3597,-15294,-6207,-515,16,863
8,555,936677,-3420,-15218,-6166,-512,18,848
8,556,936682,-3272,-15158,-6178,-504,28,833
8,557,936687,-3303,-15138,-6156,-493,37,815
8,558,936692,-3382,-15057,-6289,-487,33,797
8,559,936697,-3455,-14976,-6213,-482,27,782
8,560,936702,-3407,-14946,-6090,-475,24,769
8,561,936707,-3449,-14929,-5965,-462,18,751
8,562,936712,-3654,-14883,-5988,-449,-1,732
8,563,936717,-3954,-14914,-6268,-438,-30,716
8,564,936722,-3983,-14921,-6543,-433,-38,700
8,565,936727,-3838,-14931,-6648,-430,-17,681
8,566,936732,-3726,-14850,-6546,-421,36,657
8,567,936737,-3867,-14780,-6546,-412,81,632
8,568,936742,-4148,-14690,-6553,-402,108,607
8,569,936747,-4204,-14599,-6522,-393,118,586
8,570,936752,-4128,-14621,-6365,-383,117,567
8,571,936757,-4160,-14613,-6115,-373,113,542
8,572,936762,-4034,-14567,-6233,-364,98,516
8,573,936767,-4373,-14541,-6455,-350,85,491
8,574,936772,-4458,-14474,-6709,-338,84,466
8,575,936777,-4282,-14371,-6921,-335,95,444
8,576,936782,-3963,-14281,-6853,-323,124,423
8,577,936787,-3892,-14194,-6554,-312,160,390
8,578,936792,-4153,-14201,-6487,-295,170,362
8,579,936797,-4361,-14238,-6671,-276,152,338
8,580,936802,-4325,-14189,-6493,-269,135,315
8,581,936807,-4061,-14215,-6379,-261,118,297
8,582,936812,-4035,-14248,-6241,-247,108,268
8,583,936817,-4118,-14246,-6323,-231,91,240
8,584,936822,-4181,-14274,-6545,-218,74,216
8,585,936827,-4157,-14330,-6721,-205,68,191
8,586,936832,-4149,-14271,-6702,-195,72,162
8,587,936837,-4039,-14268,-6797,-183,86,138
8,588,936842,-3904,-14216,-6986,-164,108,107
8,589,936847,-3993,-14205,-7051,-151,131,75
8,590,936852,-4131,-14134,-6868,-139,143,47
8,591,936857,-4111,-14080,-6784,-123,143,21
8,592,936862,-4001,-14045,-6828,-109,145,-9
8,593,936867,-4299,-14074,-6778,-69,147,-70
8,594,936872,-4646,-14187,-6958,-51,115,-95
8,595,936877,-4590,-14349,-7401,-40,102,-121
8,596,936882,-4152,-14472,-7569,-28,139,-149
8,597,936887,-3873,-14444,-7465,-17,214,-184
8,598,936892,-3988,-14419,-7120,-1,278,-217
8,599,936897,-4172,-14361,-6895,15,302,-247
8,600,936902,-4126,-14330,-6858,28,294,-275
8,601,936924,-3652,-14195,-6430,94,238,-389
8,602,936925,-3652,-14195,-6430,94,238,-389
8,603,936926,-3652,-14195,-6430,94,238,-389
8,604,936927,-3474,-14066,-6747,113,200,-413
8,605,936928,-3474,-14066,-6747,113,200,-413
8,606,936932,-3263,-13907,-6756,124,185,-438
8,607,936937,-3149,-13826,-6620,135,190,-465
8,608,936942,-3145,-13724,-6486,153,192,-491
8,609,936947,-3349,-13764,-6330,175,177,-519
8,610,936952,-3462,-13941,-6553,193,138,-542
8,611,936957,-3224,-13968,-6702,204,104,-562
8,612,936962,-2893,-13950,-6605,217,103,-587
8,613,936967,-3024,-13979,-6657,234,128,-616
8,614,936972,-3364,-14113,-6883,249,156,-644
8,615,936977,-3295,-14220,-7070,256,184,-664
8,616,936982,-2841,-14190,-6931,260,230,-687
8,617,936987,-2446,-14141,-6464,271,282,-712
8,618,936992,-2538,-14110,-6224,285,319,-741
8,619,936997,-2747,-14118,-6210,302,326,-770
8,620,937002,-2742,-14109,-6187,319,299,-789
8,621,937007,-2558,-14185,-5962,325,267,-804
8,622,937012,-2215,-14204,-5813,337,237,-829
8,623,937017,-2150,-14183,-5913,355,216,-850
8,624,937022,-2199,-14148,-6197,370,199,-871
8,625,937027,-2060,-14143,-6407,380,186,-889
8,626,937032,-2071,-14201,-6230,394,175,-906
8,627,937037,-2014,-14458,-6018,403,155,-928
8,628,937042,-1776,-14517,-6109,415,142,-945
8,629,937047,-1615,-14507,-6083,422,136,-966
8,630,937052,-1833,-14607,-6025,430,132,-987
8,631,937057,-2102,-14733,-5925,440,112,-1003
8,632,937062,-1947,-14782,-5880,450,89,-1017
8,633,937067,-1773,-14872,-6035,461,75,-1037
8,634,937072,-1981,-15134,-5964,467,80,-1060
8,635,937077,-2224,-15380,-6255,475,74,-1082
8,636,937082,-1955,-15373,-6697,476,90,-1100
8,637,937087,-1489,-15327,-6668,477,148,-1118
8,638,937092,-1194,-15311,-6556,484,215,-1139
8,639,937097,-1281,-15338,-6115,491,256,-1166
8,640,937102,-1474,-15304,-5600,503,229,-1182
8,641,937107,-1320,-15246,-5719,520,156,-1194
8,642,937112,-1234,-15379,-5716,534,93,-1208
8,643,937117,-1384,-15637,-5723,545,34,-1221
8,644,937122,-1371,-15792,-5972,556,-27,-1242
8,645,937127,-1355,-15858,-6421,557,-68,-1258
8,646,937132,-1408,-15859,-7059,566,-60,-1278
8,647,937137,-1325,-15918,-7330,577,-3,-1298
8,648,937142,-1229,-16032,-7401,581,83,-1319
8,649,937147,-1530,-16206,-6980,585,174,-1345
8,650,937152,-2162,-16644,-6334,585,236,-1364
8,651,937157,-1794,-17038,-6474,576,265,-1373
8,652,937162,-436,-16900,-5685,569,322,-1388
8,653,937167,193,-16765,-4526,575,366,-1409
8,654,937172,-377,-16711,-4113,597,316,-1435
8,655,937177,-1017,-16728,-4670,615,190,-1448
8,656,937182,-707,-16620,-5326,622,79,-1446
8,657,937187,251,-16576,-5438,614,42,-1451
8,658,937192,766,-16419,-5010,613,74,-1470
8,659,937197,690,-16257,-5038,622,94,-1489
8,660,937202,364,-16103,-5577,644,85,-1500
8,661,937207,554,-15896,-6143,652,71,-1505
8,662,937212,773,-15885,-6026,642,85,-1513
8,663,937217,557,-15796,-5162,645,131,-1528
8,664,937222,-72,-16136,-5025,650,127,-1533
8,665,937227,56,-16397,-5541,655,114,-1528
8,666,937232,1276,-16328,-5202,644,129,-1525
8,667,937237,1156,-16727,-3634,638,174,-1546
8,668,937242,1158,-16680,-4313,646,139,-1553
8,669,937247,1660,-16477,-4645,637,146,-1549
8,670,937252,2028,-16507,-4263,635,176,-1546
8,671,937257,1896,-16312,-3282,631,186,-1551
8,672,937262,1938,-16213,-3133,627,138,-1551
8,673,937267,2198,-16044,-3749,638,82,-1543
8,674,937272,2631,-15965,-3917,646,52,-1534
8,675,937277,2572,-15904,-3392,639,18,-1531
8,676,937282,2542,-15752,-3442,643,-56,-1524
8,677,937287,2472,-15656,-4033,646,-130,-1517
8,678,937292,2344,-15630,-4928,648,-142,-1512
8,679,937297,1814,-15736,-4883,642,-101,-1507
8,680,937302,1908,-15697,-4668,630,-78,-1489
8,681,937307,2916,-15564,-4485,617,-38,-1478
8,682,937312,3159,-15629,-3853,619,23,-1476
8,683,937317,2860,-15686,-4028,615,42,-1473
8,684,937322,650,-16298,-4200,614,41,-1460
8,685,937327,1936,-30849,-14748,781,376,-1432
8,686,937332,-12692,-13018,-32744,1108,1997,-1656
8,687,937337,-32115,-10084,-1633,-627,6692,-1049
8,688,937342,-32768,3560,32767,-889,12843,-269
8,689,937347,5050,-10869,29123,-285,8687,878
8,690,937352,32767,-21708,25026,-376,5499,767
8,691,937357,12926,-13410,23255,513,1396,306
8,692,937362,-31500,-8241,19112,530,-7597,519
8,693,937367,-20975,-5540,10337,185,-11959,1261
8,694,937372,16264,-17824,-11677,213,-12323,1517
8,695,937377,30282,-18074,-32768,125,-9991,630
8,696,937382,-4698,-12900,-31925,-138,-2777,197
8,697,937387,-30335,-11204,-24902,-46,-533,495
8,698,937392,-4846,-12685,-5627,-211,922,736
8,699,937397,17789,-15034,-18292,-68,2021,724
8,700,937402,13672,-15761,-9747,-117,3403,263
8,701,937407,-14995,-12274,10478,5,3823,79
8,702,937412,-16792,-11736,7383,20,2000,349
8,703,937417,4451,-13392,-6148,-7,385,597
8,704,937422,14017,-15382,5758,-126,365,504
8,705,937427,4238,-15721,9910,-154,-301,297
8,706,937432,-7402,-14772,2321,0,-1280,281
8,707,937437,-4562,-14802,-9996,161,-1854,443
8,708,937442,5893,-15630,-18638,140,-1575,517
8,709,937447,7798,-16826,-11932,-44,-499,402
8,710,937452,830,-16970,-855,-142,329,249
8,711,937457,-2973,-16763,-4054,-51,395,221
8,712,937462,-192,-17109,-10548,54,442,270
8,713,937467,3730,-17334,-9301,-8,663,265
8,714,937472,3577,-17478,-3044,-123,785,210
8,715,937477,602,-17348,3373,-126,710,176
8,716,937482,657,-17678,-249,11,324,197
8,717,937487,2625,-18061,-7282,101,61,216
8,718,937492,3142,-18216,-7108,38,99,190
8,719,937497,1971,-18013,-3495,-57,148,163
8,720,937502,1840,-17986,-1807,-51,130,159
8,721,937507,3070,-18203,-4889,32,143,155
8,722,937512,3396,-18192,-7435,73,312,127
8,723,937517,2201,-17935,-6026,27,463,98
8,724,937522,1436,-17516,-3209,-15,466,97
8,725,937527,2612,-17349,-2141,-9,357,107
8,726,937532,3628,-17390,-3244,38,316,95
8,727,937537,3310,-17238,-4667,66,341,66
8,728,937542,1869,-16885,-3666,59,331,51
8,729,937547,1855,-16524,-3462,44,192,59
8,730,937552,3321,-16432,-3914,37,125,63
8,731,937557,3946,-16417,-4558,49,190,45
8,732,937562,3092,-16210,-4369,64,315,16
8,733,937567,1941,-15889,-3984,68,355,3
8,734,937572,2253,-15635,-3903,60,305,9
8,735,937577,3317,-15493,-3886,52,270,10
8,736,937582,3559,-15510,-3137,54,295,-7
8,737,937587,2726,-15408,-2650,71,297,-28
8,738,937592,2089,-15260,-3079,89,237,-32
8,739,937597,2482,-15215,-3874,85,163,-26
8,740,937602,3144,-15239,-3798,70,148,-29
8,741,937607,2706,-15180,-2771,70,177,-61
8,742,937612,2485,-15191,-3558,84,158,-65
8,743,937617,2645,-15122,-4039,86,152,-68
8,744,937622,2821,-15078,-3518,74,155,-77
8,745,937627,2779,-15088,-2789,66,146,-84
8,746,937632,2688,-15104,-2688,75,119,-92
8,747,937637,2620,-15188,-3437,87,96,-96
8,748,937642,2641,-15261,-3647,92,83,-101
8,749,937647,2610,-15409,-3143,80,62,-107
8,750,937652,2655,-15434,-2814,75,22,-112
8,751,937657,2828,-15498,-3097,78,6,-117
8,752,937662,2770,-15606,-3553,87,18,-121
8,753,937667,2565,-15741,-3426,90,38,-127
8,754,937672,2546,-15772,-2997,81,29,-129
8,755,937677,2810,-15838,-2815,75,-4,-130
8,756,937682,2997,-15939,-2933,82,-19,-133
8,757,937687,2910,-16027,-3074,89,-16,-140
8,758,937692,2702,-16016,-3086,91,-26,-144
8,759,937697,2645,-16114,-2923,91,-54,-139
8,760,937702,2840,-16153,-3062,87,-92,-135
8,761,937707,2919,-16230,-3128,90,-104,-140
8,762,937712,2695,-16299,-3192,95,-100,-146
8,763,937717,2546,-16331,-3461,98,-103,-148
8,764,937722,2623,-16342,-3647,98,-105,-141
8,765,937727,2873,-16345,-3787,94,-98,-141
8,766,937732,2901,-16350,-3682,93,-72,-146
8,767,937737,2724,-16373,-3597,95,-46,-150
8,768,937742,2508,-16399,-3773,99,-34,-149
8,769,937747,2560,-16412,-3965,101,-28,-146
8,770,937752,2751,-16347,-3912,98,-11,-148
8,771,937757,2813,-16306,-3722,97,10,-148
8,772,937762,2719,-16309,-3708,99,28,-152
8,773,937767,2682,-16230,-3863,105,38,-152
8,774,937772,2722,-16223,-3771,110,45,-150
8,775,937777,2725,-16223,-3606,107,49,-152
8,776,937782,2651,-16190,-3491,108,38,-150
8,777,937787,2659,-16128,-3570,113,22,-144
8,778,937792,2670,-16144,-3678,116,13,-145
8,779,937797,2561,-16127,-3663,120,6,-146
8,780,937802,2403,-16085,-3551,119,-11,-144
8,781,937807,2465,-16081,-3604,122,-30,-144
8,782,937812,2528,-16117,-3793,124,-35,-143
8,783,937817,2485,-16135,-3791,123,-22,-145
8,784,937822,2460,-16065,-3767,122,-8,-143
8,785,937827,2469,-16030,-3686,119,-2,-144
8,786,937832,2562,-15996,-3749,122,2,-142
8,787,937837,2640,-15912,-3799,121,13,-144
8,788,937842,2620,-15845,-3647,122,23,-145
8,789,937847,2549,-15817,-3622,123,18,-142
8,790,937852,2578,-15856,-3565,123,9,-140
8,791,937857,2567,-15877,-3496,122,-8,-138
8,792,937862,2496,-15929,-3483,122,-24,-137
8,793,937867,2405,-15921,-3560,122,-32,-139
8,794,937872,2431,-15963,-3646,120,-33,-136
8,795,937877,2505,-16026,-3722,120,-29,-135
8,796,937882,2581,-16088,-3679,117,-15,-137
8,797,937887,2588,-16128,-3587,114,-7,-138
8,798,937892,2658,-16139,-3609,113,-4,-136
8,799,937897,2670,-16194,-3553,115,-7,-134
8,800,937902,2634,-16103,-3500,116,-12,-133
8,801,937907,2586,-16053,-3413,115,-22,-130
8,802,937912,2662,-16042,-3376,114,-40,-128
8,803,937917,2746,-16045,-3592,113,-53,-124
8,804,937922,2859,-16009,-3611,112,-59,-121
8,805,937927,2915,-15998,-3444,110,-66,-118
8,806,937932,2913,-15981,-3358,109,-73,-115
8,807,937937,2927,-15957,-3400,108,-70,-113
8,808,937942,2853,-15905,-3418,106,-63,-108
8,809,937947,2748,-15974,-3434,104,-60,-105
8,810,937952,2697,-16016,-3435,102,-59,-100
8,811,937957,2813,-15912,-3434,94,-52,-100
8,812,937962,2974,-15818,-3553,96,-35,-97
8,813,937967,3014,-15821,-3624,94,-7,-94
8,814,937972,2886,-15862,-3512,89,18,-92
8,815,937977,2662,-15756,-3215,79,4,-86
8,816,937982,2797,-15675,-3338,78,1,-83
8,817,937987,2897,-15641,-3416,78,9,-81
8,818,937992,2818,-15594,-3357,76,15,-79
8,819,937997,2895,-15549,-3368,72,7,-74
8,820,938002,3055,-15610,-3408,71,1,-66
8,821,938007,3147,-15596,-3349,71,5,-66
8,822,938012,3002,-15606,-3183,68,11,-64
8,823,938017,2912,-15558,-3079,65,3,-59
8,824,938022,2999,-15620,-3147,63,-12,-51
8,825,938027,3151,-15722,-3107,59,-21,-50
8,826,938032,3054,-15817,-2963,57,-24,-44
8,827,938037,2881,-15858,-2941,55,-35,-42
8,828,938042,2816,-15852,-3185,53,-50,-41
8,829,938047,2967,-15748,-3332,50,-53,-36
8,830,938052,3023,-15662,-3299,47,-42,-32
8,831,938057,2947,-15593,-3186,43,-39,-29
8,832,938062,2933,-15538,-3296,44,-42,-29
8,833,938067,2979,-15547,-3476,44,-44,-24
8,834,938072,3090,-15507,-3563,43,-42,-24
8,835,938077,3140,-15467,-3449,38,-32,-19
8,836,938082,3157,-15395,-3356,34,-31,-16
8,837,938087,3123,-15367,-3207,32,-34,-13
8,838,938092,3064,-15510,-3223,34,-42,-10
8,839,938097,2954,-15662,-3160,31,-54,-6
8,840,938102,2879,-15671,-3003,27,-65,-6
8,841,938107,2895,-15575,-3072,24,-75,-4
8,842,938112,2939,-15631,-3228,28,-81,-2
8,843,938117,2863,-15708,-3260,27,-78,0
8,844,938122,2763,-15733,-3205,24,-86,2
8,845,938127,2644,-15752,-3260,20,-104,2
8,846,938132,2720,-15714,-3463,20,-115,4
8,847,938137,2897,-15636,-3656,20,-106,6
8,848,938142,3008,-15552,-3691,18,-89,6
8,849,938147,2970,-15509,-3602,17,-84,7
8,850,938152,2883,-15522,-3492,19,-90,7
8,851,938157,2822,-15528,-3480,18,-98,9
8,852,938162,2839,-15618,-3398,18,-100,10
8,853,938167,2807,-15651,-3388,17,-95,9
8,854,938172,2832,-15624,-3457,15,-93,13
8,855,938177,2888,-15608,-3491,14,-87,7
8,856,938182,2938,-15566,-3533,13,-74,9
8,857,938187,2948,-15570,-3533,11,-60,12
8,858,938192,2843,-15635,-3376,8,-47,12
8,859,938197,2872,-15657,-3291,7,-41,13
8,860,938202,3019,-15661,-3281,5,-38,16
8,861,938207,3084,-15633,-3276,4,-39,18
8,862,938212,3045,-15687,-3325,9,-46,18
8,863,938217,2892,-15726,-3369,7,-52,20
8,864,938222,2874,-15709,-3374,3,-60,21
8,865,938227,2951,-15730,-3423,4,-59,23
8,866,938232,3004,-15715,-3443,6,-47,28
8,867,938237,3041,-15721,-3354,5,-39,25
8,868,938242,2939,-15708,-3254,5,-40,25
8,869,938247,2742,-15780,-3226,6,-52,26
8,870,938252,2677,-15834,-3329,6,-64,28
8,871,938257,2845,-15839,-3387,3,-62,31
8,872,938262,2959,-15780,-3290,2,-50,31
8,873,938267,2946,-15726,-3313,-2,-40,28
8,874,938272,2791,-15711,-3456,-3,-33,30
8,875,938277,2786,-15698,-3601,-4,-22,30
8,876,938282,2895,-15685,-3549,-7,0,32
8,877,938287,2974,-15672,-3361,-12,19,31
8,878,938292,2928,-15728,-3167,-13,26,30
8,879,938297,2928,-15749,-3174,-12,19,30
8,880,938302,2915,-15721,-3185,-11,7,30
8,881,938307,2961,-15737,-3177,-12,-3,33
8,882,938312,3025,-15752,-3184,-17,-12,34
8,883,938317,2991,-15763,-3185,-12,-17,36
8,884,938322,2993,-15777,-3220,-13,-26,37
8,885,938327,2908,-15758,-3271,-18,-35,38
8,886,938332,2868,-15688,-3322,-17,-36,37
8,887,938337,2834,-15642,-3320,-15,-40,40
8,888,938342,2694,-15825,-3301,-18,-51,39
8,889,938347,2753,-15817,-3329,-19,-54,44
8,890,938352,2826,-15801,-3286,-17,-55,41
8,891,938357,2857,-15857,-3340,-18,-50,39
8,892,938362,2766,-15838,-3343,-21,-39,39
8,893,938367,2672,-15855,-3288,-21,-41,37
8,894,938372,2604,-15861,-3381,-20,-41,39
8,895,938377,2685,-15899,-3319,-22,-33,37
8,896,938382,2694,-15904,-3214,-24,-26,31
8,897,938387,2670,-15878,-3254,-28,-22,34
8,898,938392,2699,-15825,-3397,-27,-17,30
8,899,938397,2777,-15841,-3489,-29,-12,34
8,900,938402,2771,-15855,-3390,-29,1,33
8,901,938407,2681,-15893,-3156,-27,9,31
8,902,938412,2579,-16028,-3064,-29,3,28
8,903,938417,2674,-16041,-3159,-32,1,30
8,904,938422,2888,-16044,-3156,-33,2,31
8,905,938427,2928,-15971,-2978,-35,2,32
8,906,938432,2877,-15927,-2862,-34,-7,29
8,907,938437,2776,-15976,-2917,-31,-30,29
8,908,938442,2743,-16043,-3064,-30,-54,33
8,909,938447,2842,-16077,-3126,-32,-63,37
8,910,938452,2862,-16154,-3063,-37,-65,36
8,911,938457,2855,-16173,-3167,-35,-72,34
8,912,938462,2837,-16061,-3333,-34,-72,33
8,913,938467,2798,-16034,-3456,-36,-65,34
8,914,938472,2819,-16036,-3448,-35,-42,36
8,915,938477,2764,-16039,-3342,-37,-23,36
8,916,938482,2779,-16028,-3222,-37,-12,34
8,917,938487,2736,-15986,-3193,-38,-9,31
8,918,938492,2754,-15951,-3220,-41,-6,31
8,919,938497,2776,-15931,-3151,-41,-10,32
8,920,938502,2783,-15950,-3143,-40,-16,32
8,921,938507,2766,-15948,-3135,-42,-31,30
8,922,938512,2703,-15915,-3249,-40,-45,29
8,923,938517,2669,-15955,-3344,-40,-46,27
8,924,938522,2682,-15986,-3418,-42,-44,29
8,925,938527,2733,-15956,-3414,-41,-38,32
8,926,938532,2787,-15946,-3432,-45,-25,27
8,927,938537,2770,-15911,-3405,-43,-17,25
8,928,938542,2786,-15878,-3416,-42,-14,26
8,929,938547,2773,-15849,-3422,-41,-13,25
8,930,938552,2801,-15776,-3325,-42,-17,26
8,931,938557,2811,-15735,-3200,-41,-24,26
8,932,938562,2732,-15742,-3223,-38,-40,28
8,933,938567,2668,-15735,-3343,-35,-62,28
8,934,938572,2652,-15786,-3400,-34,-73,26
8,935,938577,2665,-15727,-3453,-33,-77,25
8,936,938582,2675,-15788,-3515,-34,-73,24
8,937,938587,2599,-15832,-3517,-33,-62,26
8,938,938592,2545,-15904,-3559,-32,-53,22
8,939,938597,2586,-15812,-3525,-33,-38,22
8,940,938602,2656,-15873,-3451,-32,-19,20
8,941,938607,2711,-15936,-3412,-33,-3,18
8,942,938612,2623,-15903,-3341,-33,9,12
8,943,938617,2533,-15863,-3342,-30,0,14
8,944,938622,2491,-15825,-3344,-30,-15,17
8,945,938627,2522,-15876,-3396,-27,-22,18
8,946,938632,2546,-15904,-3413,-27,-24,13
8,947,938637,2525,-15904,-3384,-26,-28,11
8,948,938642,2505,-15900,-3467,-26,-29,11
8,949,938647,2571,-15870,-3614,-23,-27,9
8,950,938652,2649,-15833,-3599,-21,-16,8
8,951,938657,2642,-15762,-3491,-21,-10,9
8,952,938662,2603,-15783,-3426,-21,-13,8
8,953,938667,2564,-15801,-3462,-14,-18,7
8,954,938672,2563,-15750,-3503,-12,-24,6
8,955,938677,2561,-15764,-3513,-11,-30,5
8,956,938682,2576,-15777,-3493,-12,-32,4
8,957,938687,2614,-15862,-3496,-9,-29,5
8,958,938692,2538,-15966,-3554,-8,-29,2
8,959,938697,2530,-15975,-3609,-8,-22,1
8,960,938702,2488,-15962,-3648,-6,-4,2
8,961,938707,2521,-15976,-3598,-6,17,3
8,962,938712,2548,-15984,-3436,-6,43,-4
8,963,938717,2515,-15963,-3419,-6,46,-6
8,964,938722,2535,-15968,-3448,-5,44,-7
8,965,938727,2555,-15948,-3449,-6,50,-5
8,966,938732,2602,-15915,-3336,-6,55,-8
8,967,938737,2604,-15901,-3309,-4,59,-13
8,968,938742,2716,-15878,-3331,-5,60,-10
8,969,938747,2752,-15795,-3268,-5,64,-11
8,970,938752,2801,-15725,-3173,-3,65,-8
8,971,938757,2812,-15655,-3113,-1,54,-7
8,972,938762,2807,-15675,-3078,-1,30,-5
8,973,938767,2808,-15715,-3087,0,5,-2
8,974,938772,2755,-15689,-3076,4,-20,0
8,975,938777,2704,-15702,-3123,8,-40,-1
8,976,938782,2628,-15777,-3314,9,-50,2
8,977,938787,2637,-15770,-3461,3,-55,1
8,978,938792,2661,-15765,-3525,-1,-46,-2
8,979,938797,2620,-15775,-3521,4,-32,-1
8,980,938802,2567,-15859,-3597,4,-11,-3
8,981,938807,2456,-15916,-3614,5,11,-5
8,982,938812,2451,-15917,-3529,1,34,-5
8,983,938817,2513,-15860,-3484,0,53,-7
8,984,938822,2575,-15860,-3395,1,68,-8
8,985,938827,2594,-15863,-3296,1,76,-9
8,986,938832,2585,-15858,-3251,2,74,-12
8,987,938837,2614,-15865,-3155,1,61,-10
8,988,938842,2657,-15797,-3116,2,48,-11
8,989,938847,2723,-15827,-3147,2,35,-9
8,990,938852,2737,-15833,-3089,1,22,-7
8,991,938857,2828,-15764,-3127,2,4,-6
8,992,938862,2853,-15826,-3175,4,-16,-2
8,993,938867,2837,-15840,-3254,8,-33,0
8,994,938872,2786,-15846,-3341,8,-42,-2
8,995,938877,2755,-15941,-3336,5,-43,0
8,996,938882,2715,-15970,-3364,9,-47,2
8,997,938887,2656,-15983,-3497,8,-46,1
8,998,938892,2608,-16003,-3587,9,-39,2
8,999,938897,2641,-16017,-3573,11,-27,2
9,0,945637,2595,-15940,-4462,-12,-9,24
9,1,945642,2667,-16002,-4493,-11,12,28
9,2,945647,2696,-16003,-4472,-10,45,28
9,3,945652,2592,-16057,-4289,-6,82,25
9,4,945657,2428,-16134,-4104,-3,114,21
9,5,945662,2296,-16221,-3867,-2,128,21
9,6,945667,2311,-16172,-3611,-2,125,24
9,7,945672,2378,-16100,-3484,-1,120,21
9,8,945677,2382,-16082,-3372,1,112,22
9,9,945682,2307,-16067,-3268,1,91,23
9,10,945687,2299,-16074,-3320,5,62,23
9,11,945692,2321,-15947,-3369,6,45,21
9,12,945697,2369,-15874,-3535,7,41,23
9,13,945702,2397,-15813,-3620,3,52,21
9,14,945707,2383,-15752,-3496,12,64,22
9,15,945712,2357,-15738,-3389,6,63,21
9,16,945717,2528,-15625,-3472,9,58,21
9,17,945722,2462,-15641,-3502,11,57,19
9,18,945727,2307,-15578,-3470,12,50,21
9,19,945732,2413,-15597,-3667,12,37,23
9,20,945737,2549,-15558,-3729,6,42,21
9,21,945742,2557,-15559,-3597,9,54,19
9,22,945747,2383,-15512,-3612,13,60,18
9,23,945752,2334,-15460,-3735,14,58,21
9,24,945757,2436,-15457,-3891,13,62,21
9,25,945762,2524,-15493,-3748,12,76,20
9,26,945767,2466,-15498,-3510,13,83,15
9,27,945772,2363,-15535,-3505,15,80,14
9,28,945777,2372,-15578,-3762,16,74,16
9,29,945782,2458,-15535,-3878,15,76,16
9,30,945787,2579,-15463,-3800,12,85,17
9,31,945792,2648,-15378,-3691,15,88,17
9,32,945797,2647,-15401,-3738,20,84,14
9,33,945802,2705,-15485,-3936,22,84,17
9,34,945807,2850,-15533,-3981,22,94,19
9,35,945812,2885,-15545,-3811,25,99,18
9,36,945817,2850,-15638,-3689,26,99,20
9,37,945822,2754,-15814,-3836,27,93,23
9,38,945827,2764,-15875,-3891,30,92,24
9,39,945832,2864,-15866,-3822,29,105,24
9,40,945837,2954,-15823,-3751,30,120,24
9,41,945842,2954,-15832,-3651,30,129,26
9,42,945847,2923,-15850,-3553,33,128,26
9,43,945852,2908,-15861,-3411,36,113,27
9,44,945857,2854,-15861,-3241,39,84,34
9,45,945862,2838,-15930,-3213,41,44,40
9,46,945867,2825,-15971,-3304,44,2,44
9,47,945872,2735,-16006,-3451,47,-23,45
9,48,945877,2573,-16082,-3618,51,-44,43
9,49,945882,2501,-16169,-3852,52,-51,43
9,50,945887,2459,-16189,-4015,51,-40,43
9,51,945892,2417,-16148,-4177,52,-3,40
9,52,945897,2367,-16120,-4223,54,45,38
9,53,945902,2353,-16047,-4177,53,94,35
9,54,945907,2377,-15990,-3997,52,137,33
9,55,945912,2357,-15914,-3764,50,170,28
9,56,945917,2342,-15861,-3578,51,185,25
9,57,945922,2430,-15765,-3386,51,185,25
9,58,945927,2544,-15682,-3152,48,173,24
9,59,945932,2541,-15621,-3069,51,150,25
9,60,945937,2545,-15622,-3105,53,120,27
9,61,945942,2562,-15716,-3152,56,92,24
9,62,945947,2619,-15745,-3239,54,75,28
9,63,945952,2647,-15724,-3248,51,64,25
9,64,945957,2700,-15723,-3277,49,67,23
9,65,945962,2683,-15757,-3350,49,71,29
9,66,945967,2670,-15803,-3321,52,76,28
9,67,945972,2641,-15826,-3187,49,76,28
9,68,945977,2661,-15865,-3094,50,72,30
9,69,945982,2663,-15960,-3117,47,67,27
9,70,945987,2601,-16042,-3165,47,68,25
9,71,945992,2534,-16052,-3145,45,66,24
9,72,945997,2533,-15986,-3057,42,62,25
9,73,946002,2568,-15957,-3147,42,60,26
9,74,946007,2592,-16007,-3168,43,64,24
9,75,946012,2537,-15981,-3123,42,67,26
9,76,946017,2455,-15960,-3146,40,60,25
9,77,946022,2473,-15909,-3283,38,45,26
9,78,946027,2579,-15912,-3407,37,44,25
9,79,946032,2612,-15935,-3409,37,51,25
9,80,946037,2619,-15963,-3364,36,62,22
9,81,946042,2589,-15947,-3289,37,65,24
9,82,946047,2575,-15932,-3294,33,61,23
9,83,946052,2577,-15926,-3276,31,58,20
9,84,946057,2625,-15950,-3170,32,57,24
9,85,946062,2656,-15933,-3107,30,53,25
9,86,946067,2624,-15984,-3079,27,44,22
9,87,946072,2535,-16060,-3105,25,30,23
9,88,946077,2463,-16140,-3167,28,16,24
9,89,946082,2414,-16222,-3105,25,12,24
9,90,946087,2465,-16243,-3190,22,21,19
9,91,946092,2383,-16270,-3283,22,32,17
9,92,946097,2396,-16205,-3235,20,39,17
9,93,946102,2429,-16128,-3131,19,43,16
9,94,946107,2453,-16096,-3132,17,43,13
9,95,946112,2373,-16098,-3112,18,35,15
9,96,946117,2244,-16092,-3128,18,14,14
9,97,946122,2267,-16010,-3265,17,-10,14
9,98,946127,2359,-15961,-3403,16,-21,12
9,99,946132,2341,-15973,-3510,18,-24,12
9,100,946137,2249,-15944,-3622,16,-13,6
9,101,946142,2216,-15871,-3669,13,-1,6
9,102,946147,2274,-15830,-3655,9,17,5
9,103,946152,2275,-15762,-3618,9,30,6
9,104,946157,2283,-15785,-3578,10,42,4
9,105,946162,2228,-15833,-3524,11,43,2
9,106,946167,2188,-15815,-3517,8,37,-2
9,107,946172,2228,-15812,-3533,8,31,-3
9,108,946177,2249,-15830,-3520,8,36,-3
9,109,946182,2304,-15844,-3458,11,42,-5
9,110,946187,2277,-15880,-3438,11,43,-5
9,111,946192,2236,-15848,-3406,7,44,-7
9,112,946197,2307,-15798,-3333,7,39,-6
9,113,946202,2319,-15823,-3276,8,36,-4
9,114,946207,2293,-15816,-3333,9,31,-6
9,115,946212,2315,-15787,-3466,10,21,-7
9,116,946217,2376,-15777,-3574,9,19,-2
9,117,946222,2454,-15724,-3620,10,27,-3
9,118,946227,2462,-15681,-3635,8,41,-3
9,119,946232,2498,-15736,-3554,6,54,-1
9,120,946237,2470,-15736,-3493,7,61,0
9,121,946242,2480,-15743,-3454,5,59,-3
9,122,946247,2499,-15724,-3369,7,51,0
9,123,946252,2504,-15739,-3347,8,45,1
9,124,946257,2482,-15755,-3296,8,40,2
9,125,946262,2482,-15805,-3328,8,29,3
9,126,946267,2508,-15798,-3356,5,22,6
9,127,946272,2556,-15752,-3361,4,16,8
9,128,946277,2564,-15728,-3399,1,17,11
9,129,946282,2615,-15733,-3408,1,24,12
9,130,946287,2592,-15725,-3441,2,27,13
9,131,946292,2607,-15765,-3399,4,33,16
9,132,946297,2624,-15768,-3296,1,31,19
9,133,946302,2657,-15726,-3279,-3,30,20
9,134,946307,2660,-15683,-3256,0,32,23
9,135,946312,2702,-15684,-3209,-1,32,26
9,136,946317,2591,-15714,-3195,-4,23,27
9,137,946322,2566,-15741,-3220,-4,9,28
9,138,946327,2605,-15703,-3294,-5,-2,36
9,139,946332,2622,-15708,-3365,-5,0,40
9,140,946337,2568,-15744,-3357,-5,6,39
9,141,946342,2513,-15838,-3268,-5,6,42
9,142,946347,2455,-15852,-3322,-4,-1,44
9,143,946352,2444,-15880,-3327,-6,0,44
9,144,946357,2380,-15943,-3239,-9,1,49
9,145,946362,2371,-15990,-3254,-7,1,50
9,146,946367,2395,-15992,-3266,-4,-2,53
9,147,946372,2378,-16055,-3260,-7,-3,54
9,148,946377,2390,-16052,-3180,-12,1,56
9,149,946382,2406,-16030,-3146,-11,0,56
9,150,946387,2357,-16064,-3145,-11,1,56
9,151,946392,2370,-15983,-3212,-9,-3,57
9,152,946397,2414,-15901,-3265,-13,-3,62
9,153,946402,2421,-15949,-3286,-14,-8,61
9,154,946407,2414,-15991,-3243,-13,-13,63
9,155,946412,2370,-15996,-3240,-14,-20,65
9,156,946417,2332,-16030,-3312,-12,-25,67
9,157,946422,2284,-16057,-3394,-12,-24,68
9,158,946427,2287,-16045,-3337,-13,-19,68
9,159,946432,2257,-16049,-3280,-16,-22,68
9,160,946437,2257,-16060,-3279,-16,-27,69
9,161,946442,2217,-16097,-3343,-14,-27,70
9,162,946447,2174,-16123,-3395,-14,-20,72
9,163,946452,2103,-16129,-3304,-14,-9,70
9,164,946457,2108,-16071,-3286,-14,-4,69
9,165,946462,2171,-16081,-3323,-17,3,69
9,166,946467,2117,-16091,-3260,-14,5,69
9,167,946472,2114,-16124,-3234,-15,-6,70
9,168,946477,2203,-16042,-3267,-17,-21,69
9,169,946482,2270,-16004,-3324,-17,-33,69
9,170,946487,2230,-15972,-3375,-13,-40,72
9,171,946492,2173,-15929,-3474,-10,-49,71
9,172,946497,2142,-15919,-3463,-13,-49,72
9,173,946502,2187,-15895,-3463,-14,-48,71
9,174,946507,2162,-15905,-3423,-13,-46,68
9,175,946512,2102,-15911,-3435,-13,-45,69
9,176,946517,2040,-15914,-3441,-13,-46,69
9,177,946522,2069,-15878,-3554,-14,-47,69
9,178,946527,2142,-15827,-3582,-13,-39,67
9,179,946532,2158,-15867,-3535,-13,-21,68
9,180,946537,2102,-15888,-3544,-12,-7,64
9,181,946542,2080,-15884,-3424,-15,-1,63
9,182,946547,2052,-15879,-3335,-15,-3,64
9,183,946552,2062,-15877,-3379,-15,-4,64
9,184,946557,2023,-15842,-3375,-16,-3,63
9,185,946562,2034,-15755,-3353,-16,-4,59
9,186,946567,2091,-15854,-3379,-15,-13,57
9,187,946572,2131,-15880,-3405,-16,-19,58
9,188,946577,2110,-15807,-3425,-15,-22,58
9,189,946582,2036,-15787,-3449,-14,-22,57
9,190,946587,1988,-15839,-3534,-13,-26,56
9,191,946592,2035,-15837,-3655,-14,-27,56
9,192,946597,2064,-15850,-3603,-12,-20,54
9,193,946602,2063,-15859,-3576,-13,-12,53
9,194,946607,2014,-15894,-3562,-13,-5,49
9,195,946612,2006,-15904,-3580,-13,-5,51
9,196,946617,2020,-15881,-3547,-13,-4,49
9,197,946622,2075,-15858,-3520,-11,-2,48
9,198,946627,2047,-15834,-3457,-9,-5,48
9,199,946632,2000,-15883,-3576,-7,-9,47
9,200,946637,1988,-15910,-3655,-6,-6,45
9,201,946642,1973,-15916,-3595,-5,0,43
9,202,946647,1973,-15858,-3562,-7,3,43
9,203,946652,1958,-15852,-3684,-6,12,40
9,204,946657,2027,-15837,-3751,-6,24,38
9,205,946662,1956,-15884,-3699,-3,33,36
9,206,946667,1893,-15889,-3692,-5,36,35
9,207,946672,1911,-15899,-3721,-5,38,33
9,208,946677,1932,-15936,-3729,-2,44,33
9,209,946682,1973,-15972,-3733,0,62,32
9,210,946687,2055,-15979,-3643,0,78,30
9,211,946692,2064,-16016,-3477,-2,88,24
9,212,946697,2067,-16025,-3292,-2,87,25
9,213,946702,2102,-16009,-3188,0,75,26
9,214,946707,2109,-16017,-3167,3,59,26
9,215,946712,2151,-16015,-3197,4,38,26
9,216,946717,2179,-15976,-3193,7,15,26
9,217,946722,2127,-15950,-3285,10,-9,25
9,218,946727,2094,-15991,-3455,9,-19,27
9,219,946732,2107,-16030,-3542,9,-12,25
9,220,946737,2129,-16102,-3550,9,0,25
9,221,946742,2128,-16140,-3509,9,16,24
9,222,946747,2173,-16060,-3503,8,28,20
9,223,946752,2218,-16074,-3533,7,46,19
9,224,946757,2228,-16051,-3462,9,59,18
9,225,946762,2186,-16008,-3263,9,66,19
9,226,946767,2150,-16013,-3078,8,57,16
9,227,946772,2200,-15955,-3105,9,38,18
9,228,946777,2261,-15956,-3110,9,23,16
9,229,946782,2245,-15928,-3190,11,11,17
9,230,946787,2224,-15942,-3180,14,-1,20
9,231,946792,2214,-16049,-3219,13,-14,22
9,232,946797,2219,-16134,-3240,11,-18,20
9,233,946802,2152,-16123,-3329,10,-11,14
9,234,946807,2104,-16103,-3333,10,4,16
9,235,946812,2123,-16078,-3303,10,16,15
9,236,946817,2155,-16089,-3255,11,23,13
9,237,946822,2095,-16122,-3160,5,24,11
9,238,946827,2158,-16075,-3158,5,13,10
9,239,946832,2225,-16088,-3189,8,5,11
9,240,946837,2239,-16096,-3197,7,2,7
9,241,946842,2158,-16118,-3130,5,-9,9
9,242,946847,2089,-16132,-3110,2,-17,9
9,243,946852,2143,-16157,-3330,2,-21,6
9,244,946857,2208,-16125,-3370,4,-13,5
9,245,946862,2197,-16112,-3292,3,-5,5
9,246,946867,2158,-16044,-3269,2,-6,4
9,247,946872,2209,-15996,-3259,3,-15,3
9,248,946877,2268,-15941,-3273,4,-18,3
9,249,946882,2255,-16005,-3253,4,-18,1
9,250,946887,2190,-16016,-3182,3,-29,3
9,251,946892,2142,-16034,-3202,4,-50,3
9,252,946897,2126,-16018,-3399,4,-64,3
9,253,946902,2070,-16074,-3495,4,-64,2
9,254,946907,2043,-16173,-3552,3,-59,0
9,255,946912,1998,-16217,-3597,5,-52,-3
9,256,946917,2029,-16150,-3650,-2,-35,-6
9,257,946922,2153,-16065,-3744,-3,-8,-9
9,258,946927,2176,-16058,-3717,-1,24,-11
9,259,946932,2142,-16110,-3523,-1,46,-15
9,260,946937,2151,-16136,-3283,-5,45,-20
9,261,946942,2214,-16064,-3235,-4,28,-20
9,262,946947,2227,-16000,-3192,-2,15,-17
9,263,946952,2231,-15996,-3173,0,5,-17
9,264,946957,2170,-16002,-3184,-3,-10,-18
9,265,946962,2187,-15972,-3187,-2,-32,-17
9,266,946967,2221,-15966,-3238,-5,-44,-17
9,267,946972,2192,-16012,-3381,-5,-45,-18
9,268,946977,2164,-16016,-3462,-4,-35,-20
9,269,946982,2160,-15922,-3478,-5,-21,-22
9,270,946987,2161,-15897,-3371,-8,-12,-25
9,271,946992,2121,-15917,-3317,-12,-12,-25
9,272,946997,2086,-15893,-3269,-12,-15,-27
9,273,947002,2159,-15844,-3265,-12,-19,-26
9,274,947007,2129,-15849,-3286,-11,-26,-27
9,275,947012,2161,-15882,-3376,-12,-36,-26
9,276,947017,2182,-15832,-3433,-12,-46,-28
9,277,947022,2167,-15894,-3524,-10,-48,-30
9,278,947027,2066,-15946,-3639,-12,-41,-31
9,279,947032,2021,-15952,-3691,-15,-24,-34
9,280,947037,2048,-15880,-3662,-16,-2,-36
9,281,947042,2153,-15857,-3560,-18,15,-38
9,282,947047,2108,-15889,-3408,-20,26,-39
9,283,947052,2000,-15960,-3326,-19,25,-41
9,284,947057,2001,-15926,-3263,-19,16,-41
9,285,947062,2091,-15892,-3214,-22,3,-42
9,286,947067,2160,-15881,-3237,-20,-8,-40
9,287,947072,2118,-15895,-3221,-19,-19,-40
9,288,947077,2025,-15914,-3281,-19,-35,-40
9,289,947082,2093,-15947,-3424,-22,-50,-41
9,290,947087,2107,-15987,-3492,-17,-48,-41
9,291,947092,2145,-16030,-3554,-20,-39,-46
9,292,947097,2146,-15959,-3555,-20,-28,-44
9,293,947102,2080,-15970,-3569,-19,-25,-45
9,294,947107,2085,-15982,-3581,-20,-23,-45
9,295,947112,2103,-15947,-3573,-17,-16,-45
9,296,947117,2117,-15937,-3494,-19,-11,-45
9,297,947122,2066,-16000,-3438,-20,-11,-43
9,298,947127,2014,-16036,-3463,-19,-23,-41
9,299,947132,2025,-16011,-3562,-17,-29,-43
9,300,947137,2076,-16011,-3577,-18,-27,-46
9,301,947142,2055,-15976,-3612,-19,-17,-44
9,302,947147,2044,-15976,-3644,-16,-6,-44
9,303,947152,2034,-15931,-3663,-18,5,-45
9,304,947157,2121,-15890,-3592,-18,7,-45
9,305,947162,2189,-15862,-3503,-15,8,-48
9,306,947167,2118,-15856,-3462,-16,6,-46
9,307,947172,2107,-15882,-3464,-12,-6,-44
9,308,947177,2080,-15871,-3427,-11,-13,-43
9,309,947182,2142,-15887,-3590,-10,-22,-41
9,310,947187,2156,-15862,-3522,-12,-25,-39
9,311,947192,2044,-15978,-3594,-10,-32,-37
9,312,947197,2133,-15952,-3768,-8,-29,-36
9,313,947202,2184,-15911,-3684,-6,-8,-40
9,314,947207,2133,-15940,-3506,-7,11,-38
9,315,947212,2015,-15926,-3391,-10,17,-37
9,316,947217,2033,-15937,-3334,-8,16,-37
9,317,947222,2170,-15929,-3336,-8,18,-36
9,318,947227,2144,-15909,-3237,-8,16,-34
9,319,947232,2120,-15869,-3133,-7,-4,-32
9,320,947237,2058,-15873,-3205,-6,-30,-32
9,321,947242,2135,-15898,-3377,-6,-46,-26
9,322,947247,2186,-15899,-3488,-4,-44,-25
9,323,947252,2164,-15969,-3494,-3,-31,-25
9,324,947257,2111,-15973,-3514,-3,-25,-23
9,325,947262,2129,-15979,-3603,-5,-21,-23
9,326,947267,2183,-15961,-3588,-7,-8,-22
9,327,947272,2162,-15941,-3502,-6,10,-23
9,328,947277,2211,-15931,-3373,-5,24,-22
9,329,947282,2241,-15895,-3301,-5,24,-22
9,330,947287,2181,-15904,-3211,-6,15,-20
9,331,947292,2126,-15919,-3144,-5,-4,-20
9,332,947297,2088,-15932,-3216,-6,-18,-18
9,333,947302,2258,-15971,-3328,-6,-28,-16
9,334,947307,2388,-15969,-3486,-5,-30,-14
9,335,947312,2331,-15894,-3473,-4,-22,-14
9,336,947317,2218,-15923,-3482,-3,-17,-14
9,337,947322,2222,-15929,-3581,-3,-11,-13
9,338,947327,2294,-15894,-3604,-8,5,-12
9,339,947332,2261,-15893,-3525,-6,18,-10
9,340,947337,2256,-15867,-3375,-6,21,-10
9,341,947342,2300,-15866,-3320,-7,13,-8
9,342,947347,2303,-15873,-3377,-2,-2,-4
9,343,947352,2278,-15939,-3360,-3,-13,-7
9,344,947357,2203,-15899,-3308,-3,-21,-5
9,345,947362,2177,-15871,-3317,-2,-30,-4
9,346,947367,2176,-15924,-3373,-2,-36,-3
9,347,947372,2186,-15937,-3495,-3,-45,0
9,348,947377,2227,-15867,-3518,-1,-43,-1
9,349,947382,2290,-15839,-3507,-2,-32,-2
9,350,947387,2278,-15791,-3508,-2,-28,0
9,351,947392,2258,-15815,-3581,-4,-23,-2
9,352,947397,2272,-15844,-3608,-4,-19,-3
9,353,947402,2409,-15834,-3569,-5,-19,-1
9,354,947407,2341,-15830,-3438,-7,-16,-1
9,355,947412,2191,-15815,-3522,-5,-20,-3
9,356,947417,2115,-15793,-3580,-5,-25,-2
9,357,947422,2148,-15769,-3530,-7,-26,2
9,358,947427,2206,-15761,-3592,-5,-22,3
9,359,947432,2264,-15739,-3530,-4,-15,0
9,360,947437,2254,-15742,-3486,-6,-12,-2
9,361,947442,2275,-15751,-3510,-6,-14,0
9,362,947447,2243,-15755,-3510,-6,-18,1
9,363,947452,2197,-15763,-3426,-7,-23,0
9,364,947457,2119,-15902,-3421,-4,-34,1
9,365,947462,2070,-15913,-3568,-3,-44,2
9,366,947467,2154,-15879,-3626,-6,-44,0
9,367,947472,2211,-15844,-3666,-6,-35,0
9,368,947477,2221,-15866,-3700,-7,-18,-2
9,369,947482,2184,-15880,-3653,-7,-8,-4
9,370,947487,2195,-15889,-3628,-5,0,-3
9,371,947492,2153,-15929,-3451,-6,2,-2
9,372,947497,2176,-15934,-3460,-9,0,-6
9,373,947502,2199,-15902,-3518,-7,-2,-3
9,374,947507,2184,-15882,-3480,-4,-8,-2
9,375,947512,2199,-15830,-3443,-6,-12,-7
9,376,947517,2279,-15800,-3502,-7,-18,-7
9,377,947522,2315,-15804,-3524,-8,-22,-3
9,378,947527,2252,-15830,-3444,-5,-25,-2
9,379,947532,2149,-15842,-3422,-3,-30,2
9,380,947537,2128,-15841,-3439,-4,-40,1
9,381,947542,2132,-15901,-3527,-1,-54,2
9,382,947547,2141,-15956,-3611,-4,-58,2
9,383,947552,2227,-15953,-3700,-2,-51,0
9,384,947557,2166,-15943,-3695,-3,-38,-2
9,385,947562,2047,-15978,-3700,-4,-23,-1
9,386,947567,2119,-15968,-3700,-4,-12,-1
9,387,947572,2137,-15951,-3607,-1,-6,0
9,388,947577,2095,-15961,-3638,-3,-4,-4
9,389,947582,2048,-15931,-3637,0,-8,-4
9,390,947587,2112,-15817,-3690,0,-4,-2
9,391,947592,2229,-15787,-3734,2,8,-1
9,392,947597,2256,-15853,-3593,2,22,-2
9,393,947602,2137,-15896,-3381,2,18,0
9,394,947607,2033,-15888,-3393,3,-3,2
9,395,947612,2101,-15880,-3479,5,-17,3
9,396,947617,2307,-15891,-3575,7,-14,3
9,397,947622,2325,-15920,-3493,6,-5,5
9,398,947627,2191,-15931,-3366,4,-11,2
9,399,947632,2148,-15979,-3464,5,-27,2
9,400,947637,2134,-16008,-3591,10,-31,6
9,401,947642,2148,-15961,-3554,8,-18,6
9,402,947647,2207,-15911,-3554,7,-3,3
9,403,947652,2145,-15930,-3443,8,3,4
9,404,947657,2059,-15983,-3461,10,-6,6
9,405,947662,2098,-15988,-3542,8,-1,9
9,406,947667,2320,-15962,-3501,9,15,6
9,407,947672,2301,-15925,-3335,10,30,8
9,408,947677,2094,-15927,-3184,9,26,5
9,409,947682,1985,-15997,-3236,10,5,6
9,410,947687,2034,-15957,-3330,8,-11,10
9,411,947692,2205,-15951,-3412,8,-8,10
9,412,947697,2250,-15961,-3456,10,5,10
9,413,947702,2186,-15910,-3393,10,7,5
9,414,947707,2214,-15921,-3543,12,2,8
9,415,947712,2304,-15933,-3562,10,5,9
9,416,947717,2299,-15956,-3346,9,19,9
9,417,947722,2185,-15986,-3296,12,20,6
9,418,947727,2123,-15976,-3259,11,14,8
9,419,947732,2161,-15995,-3358,9,-2,8
9,420,947737,2283,-16010,-3390,6,-9,9
9,421,947742,2331,-15949,-3335,6,-8,10
9,422,947747,2343,-15985,-3279,9,-5,7
9,423,947752,2355,-15997,-3301,11,-7,8
9,424,947757,2292,-15992,-3344,10,-13,11
9,425,947762,2225,-15967,-3283,7,-23,11
9,426,947767,2256,-15946,-3262,7,-37,10
9,427,947772,2259,-15907,-3277,9,-47,12
9,428,947777,2187,-15923,-3412,13,-52,10
9,429,947782,2155,-15986,-3451,11,-53,11
9,430,947787,2147,-15938,-3558,9,-51,11
9,431,947792,2239,-15933,-3638,9,-43,10
9,432,947797,2306,-15898,-3654,10,-26,7
9,433,947802,2241,-15896,-3633,9,-10,8
9,434,947807,2043,-15933,-3505,8,-10,5
9,435,947812,2061,-15950,-3518,7,-16,8
9,436,947817,2122,-16009,-3520,3,-13,6
9,437,947822,2164,-16013,-3512,5,-8,3
9,438,947827,2127,-15937,-3467,12,-11,1
9,439,947832,2092,-15904,-3538,10,-17,2
9,440,947837,2150,-15864,-3531,8,-23,2
9,441,947842,2192,-15837,-3518,8,-21,2
9,442,947847,2242,-15792,-3448,6,-20,3
9,443,947852,2222,-15764,-3403,8,-22,1
9,444,947857,2171,-15767,-3415,6,-32,0
9,445,947862,2097,-15788,-3452,8,-46,0
9,446,947867,2122,-15863,-3394,10,-55,2
9,447,947872,2126,-15885,-3421,7,-57,1
9,448,947877,2088,-15863,-3515,7,-55,-1
9,449,947882,2036,-15881,-3668,7,-50,-4
9,450,947887,1949,-15923,-3681,11,-39,-2
9,451,947892,1962,-15946,-3652,8,-30,-2
9,452,947897,1978,-15891,-3583,5,-13,-5
9,453,947902,1964,-15855,-3494,8,2,-8
9,454,947907,1883,-15874,-3481,6,4,-9
9,455,947912,1750,-15933,-3428,6,1,-7
9,456,947917,1775,-15944,-3373,2,-10,-5
9,457,947922,1887,-15933,-3234,-4,-12,-5
9,458,947927,2027,-15917,-3031,-7,-3,0
9,459,947932,2049,-15887,-2952,-13,-9,2
9,460,947937,2084,-15874,-2854,-17,-27,7
9,461,947942,2021,-15903,-2728,-17,-53,10
9,462,947947,1940,-15997,-2778,-21,-89,17
9,463,947952,1928,-16096,-2890,-23,-127,27
9,464,947957,2070,-16211,-2980,-27,-164,38
9,465,947962,1925,-16348,-3009,-31,-194,43
9,466,947967,1859,-16360,-3199,-40,-219,48
9,467,947972,1929,-16300,-3307,-47,-225,57
9,468,947977,1966,-16256,-3560,-51,-217,68
9,469,947982,1862,-16266,-3570,-59,-202,73
9,470,947987,1735,-16292,-3515,-71,-197,83
9,471,947992,1774,-16202,-3502,-82,-198,99
9,472,947997,2095,-16051,-3269,-89,-203,108
9,473,948002,1849,-15905,-3256,-97,-221,117
9,474,948007,1624,-15746,-3410,-100,-257,127
9,475,948012,1611,-15631,-3443,-105,-313,149
9,476,948017,1663,-15690,-3546,-117,-370,169
9,477,948022,1694,-15760,-3699,-125,-414,186
9,478,948027,1797,-15692,-3953,-135,-436,199
9,479,948032,1663,-15521,-4176,-142,-448,213
9,480,948037,1461,-15369,-4407,-148,-456,230
9,481,948042,1223,-15312,-4473,-159,-462,248
9,482,948047,1155,-15295,-4646,-172,-458,265
9,483,948052,1309,-15223,-4526,-187,-432,280
9,484,948057,1185,-15248,-4410,-194,-413,295
9,485,948062,1009,-15238,-4591,-204,-403,310
9,486,948067,894,-15217,-4569,-218,-401,329
9,487,948072,867,-15146,-4304,-233,-397,347
9,488,948077,886,-15202,-4303,-243,-402,366
9,489,948082,579,-15265,-4376,-253,-402,384
9,490,948087,488,-15224,-4492,-263,-417,403
9,491,948092,456,-15060,-4523,-280,-430,418
9,492,948097,519,-15208,-4871,-292,-435,438
9,493,948102,398,-15386,-4903,-302,-423,455
9,494,948107,298,-15354,-4883,-320,-406,472
9,495,948112,130,-15484,-4992,-332,-397,489
9,496,948117,74,-15492,-5060,-345,-387,508
9,497,948122,-84,-15577,-5021,-355,-373,523
9,498,948127,-32,-15550,-5192,-369,-359,537
9,499,948132,-83,-15595,-5262,-382,-341,556
9,500,948137,-78,-15700,-5299,-391,-329,576
9,501,948142,-166,-15734,-5387,-402,-322,590
9,502,948147,-296,-15784,-5552,-417,-313,605
9,503,948152,-207,-15717,-5716,-428,-293,622
9,504,948157,-193,-15612,-5696,-440,-259,639
9,505,948162,-319,-15677,-5588,-450,-233,654
9,506,948167,-476,-15748,-5612,-458,-224,672
9,507,948172,-495,-15683,-5512,-470,-224,691
9,508,948177,-499,-15652,-5480,-481,-228,706
9,509,948182,-530,-15601,-5579,-492,-224,718
9,510,948187,-669,-15582,-5517,-502,-215,733
9,511,948192,-720,-15678,-5507,-506,-224,754
9,512,948197,-769,-15690,-5552,-516,-242,772
9,513,948202,-801,-15743,-5570,-524,-257,785
9,514,948207,-868,-15750,-5923,-528,-261,801
9,515,948212,-951,-15793,-6147,-538,-234,817
9,516,948217,-1000,-15885,-6231,-551,-196,831
9,517,948222,-973,-15945,-6145,-564,-158,840
9,518,948227,-1058,-15852,-5836,-571,-134,852
9,519,948232,-1112,-15865,-5916,-575,-127,862
9,520,948237,-1194,-15810,-6277,-584,-111,871
9,521,948242,-1246,-15833,-6143,-592,-81,882
9,522,948247,-1327,-15774,-5907,-595,-73,897
9,523,948252,-1274,-15904,-5793,-602,-81,908
9,524,948257,-1186,-15875,-6245,-605,-91,918
9,525,948262,-1167,-15778,-5796,-608,-44,922
9,526,948267,-1373,-15820,-5872,-623,-40,930
9,527,948272,-1387,-15847,-5985,-620,-69,943
9,528,948277,-1363,-15813,-5265,-621,-79,952
9,529,948282,-1338,-15897,-5709,-621,-118,962
9,530,948287,-1351,-15961,-6131,-621,-129,970
9,531,948292,-1477,-15914,-6199,-623,-115,971
9,532,948297,-1626,-15903,-6201,-635,-89,984
9,533,948302,-1428,-15828,-6173,-638,-63,989
9,534,948307,-1362,-15775,-5985,-635,-28,991
9,535,948312,-1576,-15714,-5953,-632,-6,989
9,536,948317,-1753,-15729,-6024,-639,-7,991
9,537,948322,-1838,-15718,-5929,-640,-13,993
9,538,948327,-1664,-15655,-5994,-637,-16,995
9,539,948332,-1654,-15537,-5995,-638,4,991
9,540,948337,-1775,-15526,-5958,-637,29,984
9,541,948342,-1989,-15482,-6203,-632,28,983
9,542,948347,-2110,-15449,-6255,-633,23,980
9,543,948352,-1855,-15325,-6248,-635,22,976
9,544,948357,-1756,-15155,-6383,-629,39,966
9,545,948362,-1994,-15014,-6104,-623,77,954
9,546,948367,-2084,-14980,-6409,-611,73,952
9,547,948372,-2174,-15002,-6228,-608,56,945
9,548,948377,-2153,-14983,-5884,-605,24,937
9,549,948382,-2157,-15056,-6062,-595,-18,931
9,550,948387,-2169,-15204,-6369,-590,-30,922
9,551,948392,-2043,-15201,-6520,-585,-20,909
9,552,948397,-1930,-15118,-6532,-582,4,896
9,553,948402,-2089,-15082,-6249,-577,31,880
9,554,948407,-2303,-15075,-6183,-569,37,867
9,555,948412,-2215,-15043,-6433,-567,45,854
9,556,948417,-2057,-14987,-6286,-560,68,836
9,557,948422,-2043,-14853,-5941,-550,76,818
9,558,948427,-2125,-14806,-5839,-544,52,802
9,559,948432,-2115,-14766,-6041,-539,11,788
9,560,948437,-2027,-14747,-6185,-525,-11,773
9,561,948442,-1956,-14654,-5952,-515,-15,759
9,562,948447,-1865,-14610,-5945,-503,-32,740
9,563,948452,-1746,-14484,-6148,-492,-54,719
9,564,948457,-1701,-14359,-6282,-481,-74,703
9,565,948462,-1761,-14209,-6240,-474,-88,686
9,566,948467,-1959,-14176,-6066,-458,-104,666
9,567,948472,-2227,-14245,-6128,-444,-126,647
9,568,948477,-2422,-14309,-6350,-434,-151,630
9,569,948482,-2254,-14433,-6591,-422,-161,611
9,570,948487,-2102,-14511,-6521,-416,-142,587
9,571,948492,-2157,-14589,-6460,-402,-120,565
9,572,948497,-2279,-14605,-6601,-391,-99,540
9,573,948502,-2324,-14622,-6682,-380,-69,512
9,574,948507,-2480,-14731,-6677,-370,-39,488
9,575,948512,-2443,-14772,-6397,-363,-23,460
9,576,948517,-2509,-14762,-6243,-349,-28,437
9,577,948522,-2601,-14717,-6164,-334,-31,410
9,578,948527,-2636,-14850,-6568,-316,-56,385
9,579,948532,-2610,-14761,-6687,-299,-77,358
9,580,948537,-2580,-14644,-6498,-290,-79,330
9,581,948542,-2525,-14619,-6754,-275,-85,298
9,582,948547,-2406,-14548,-6895,-258,-75,272
9,583,948552,-2414,-14475,-6773,-237,-66,242
9,584,948557,-2533,-14302,-6746,-219,-82,212
9,585,948562,-2732,-14169,-6768,-202,-112,187
9,586,948567,-2691,-14061,-6916,-184,-139,164
9,587,948572,-2702,-14111,-7099,-163,-149,136
9,588,948577,-2700,-14130,-7079,-145,-152,109
9,589,948582,-2675,-14017,-7076,-129,-156,81
9,590,948587,-2669,-13987,-7386,-108,-149,49
9,591,948592,-2750,-14023,-7458,-92,-128,18
9,592,948597,-2970,-14131,-7371,-76,-101,-11
9,593,948602,-3009,-14225,-7346,-59,-82,-44
9,594,948607,-2841,-14258,-7258,-42,-57,-75
9,595,948612,-2853,-14155,-7154,-24,-37,-109
9,596,948617,-2988,-14071,-7193,-3,-21,-143
9,597,948622,-3072,-14064,-7249,17,-25,-173
9,598,948627,-2985,-14057,-7200,36,-35,-201
9,599,948632,-2886,-14042,-7145,52,-45,-234
9,600,948637,-2873,-14103,-7230,72,-52,-266
9,601,948659,-2816,-13931,-7777,186,-23,-428
9,602,948660,-2816,-13931,-7777,186,-23,-428
9,603,948661,-2816,-13931,-7777,186,-23,-428
9,604,948662,-2816,-13931,-7777,186,-23,-428
9,605,948663,-2754,-13967,-7461,208,-1,-460
9,606,948667,-2751,-14039,-7579,232,1,-491
9,607,948672,-2812,-14088,-7313,252,-1,-526
9,608,948677,-2780,-14066,-7364,275,-16,-557
9,609,948682,-2776,-14132,-7545,300,-15,-590
9,610,948687,-2830,-14138,-7622,322,1,-622
9,611,948692,-2781,-14134,-7730,342,23,-653
9,612,948697,-2569,-14183,-7584,360,60,-684
9,613,948702,-2514,-14275,-7449,379,100,-717
9,614,948707,-2713,-14435,-7171,402,133,-754
9,615,948712,-2841,-14484,-7279,423,142,-787
9,616,948717,-2663,-14467,-7456,441,157,-816
9,617,948722,-2319,-14568,-7510,465,183,-845
9,618,948727,-2125,-14623,-7248,485,216,-880
9,619,948732,-2325,-14702,-6908,507,233,-917
9,620,948737,-2433,-14838,-6960,529,226,-946
9,621,948742,-2380,-14872,-6868,549,225,-975
9,622,948747,-2246,-15002,-6842,571,225,-1007
9,623,948752,-2207,-15045,-6758,593,230,-1033
9,624,948757,-2204,-15094,-6745,614,225,-1063
9,625,948762,-2108,-15127,-6836,632,222,-1091
9,626,948767,-2002,-15228,-7018,646,242,-1118
9,627,948772,-1735,-15267,-7028,661,280,-1146
9,628,948777,-1494,-15333,-6701,680,331,-1174
9,629,948782,-1363,-15310,-6394,697,365,-1201
9,630,948787,-1544,-15392,-6145,719,372,-1226
9,631,948792,-1682,-15388,-6363,741,355,-1250
9,632,948797,-1365,-15366,-6287,749,350,-1269
9,633,948802,-804,-15243,-6082,760,372,-1290
9,634,948807,-741,-15286,-5422,779,394,-1315
9,635,948812,-1020,-15463,-5307,800,368,-1334
9,636,948817,-1127,-15637,-5168,817,314,-1347
9,637,948822,-710,-15820,-5220,823,261,-1356
9,638,948827,-293,-15974,-5103,826,251,-1381
9,639,948832,-549,-15976,-4708,833,256,-1406
9,640,948837,-935,-15893,-4848,848,232,-1423
9,641,948842,-734,-15830,-5414,859,197,-1432
9,642,948847,-497,-15864,-5402,870,197,-1443
9,643,948852,-276,-15778,-4876,864,218,-1462
9,644,948857,-281,-15764,-4665,870,225,-1477
9,645,948862,-263,-15753,-5077,873,224,-1490
9,646,948867,-351,-15782,-4841,883,238,-1500
9,647,948872,-438,-15951,-4538,890,216,-1506
9,648,948877,-292,-16194,-4581,892,170,-1509
9,649,948882,179,-16163,-4610,890,147,-1515
9,650,948887,545,-16124,-4838,894,165,-1526
9,651,948892,571,-16167,-4613,892,204,-1536
9,652,948897,404,-16143,-4579,896,207,-1541
9,653,948902,372,-16202,-4264,896,183,-1539
9,654,948907,435,-16296,-4385,899,136,-1534
9,655,948912,803,-16338,-4231,898,109,-1533
9,656,948917,1023,-16292,-4076,895,85,-1534
9,657,948922,1186,-16230,-4394,897,56,-1536
9,658,948927,1195,-16154,-4513,900,44,-1531
9,659,948932,1084,-16216,-4725,895,27,-1520
9,660,948937,1175,-16235,-4515,888,17,-1516
9,661,948942,1346,-16138,-4610,880,3,-1511
9,662,948947,1358,-16143,-4497,886,14,-1504
9,663,948952,1335,-16095,-4735,887,11,-1498
9,664,948957,1440,-16147,-5099,880,1,-1485
9,665,948962,1440,-16151,-4937,876,13,-1476
9,666,948967,1173,-16455,-4632,873,33,-1464
9,667,948972,1406,-16594,-4948,858,46,-1444
9,668,948977,2441,-16619,-4839,841,103,-1426
9,669,948982,3024,-16498,-4085,830,179,-1419
9,670,948987,1955,-17287,-4097,833,213,-1410
9,671,948992,1329,-23710,-11858,880,347,-1377
9,672,948997,5515,-31372,-28153,990,1544,-1368
9,673,949002,-23708,-19257,-29169,625,4090,-1178
9,674,949007,-32768,-12573,-6804,-225,4637,-242
9,675,949012,-12689,-5448,24296,-767,2353,845
9,676,949017,32767,-13142,32767,-817,1384,1040
9,677,949022,24375,-21700,30214,-484,1464,610
9,678,949027,-19981,-12897,-4630,449,-3070,66
9,679,949032,-32768,-10672,-24864,155,-6828,655
9,680,949037,32767,-15120,-27889,-396,-4125,969
9,681,949042,12342,-16012,-1744,-409,1727,409
9,682,949047,-21765,-13543,267,-227,2153,176
9,683,949052,-18698,-12105,-23702,-68,60,551
9,684,949057,6725,-12823,-16060,-298,87,801
9,685,949062,17019,-14192,3471,-449,1053,625
9,686,949067,2508,-14793,11257,-423,1553,338
9,687,949072,-12007,-13960,286,-230,776,304
9,688,949077,-6587,-14091,-13703,-91,-371,548
9,689,949082,4832,-14265,-8248,-228,-710,651
9,690,949087,6956,-15324,627,-370,-535,546
9,691,949092,1149,-15847,1023,-362,-208,415
9,692,949097,-3485,-15542,-8193,-216,-229,382
9,693,949102,-2395,-15029,-17640,-133,-296,445
9,694,949107,1125,-15079,-9649,-243,159,478
9,695,949112,3720,-15413,-360,-387,540,428
9,696,949117,2429,-16463,-87,-365,542,362
9,697,949122,-388,-16248,-4827,-236,331,321
9,698,949127,-1225,-15794,-7820,-170,67,338
9,699,949132,57,-15718,-6338,-223,17,371
9,700,949137,2555,-16072,-3992,-306,160,365
9,701,949142,3081,-16369,-2244,-295,282,327
9,702,949147,1829,-16281,-4456,-227,216,285
9,703,949152,193,-16085,-6668,-183,161,277
9,704,949157,563,-16132,-6320,-206,199,290
9,705,949162,2287,-16254,-5049,-249,283,296
9,706,949167,3090,-16384,-2998,-255,374,271
9,707,949172,2079,-16514,-3000,-217,380,236
9,708,949177,712,-16487,-4538,-183,326,224
9,709,949182,788,-16408,-5447,-181,272,235
9,710,949187,2021,-16424,-4435,-206,269,241
9,711,949192,2774,-16601,-3179,-221,305,222
9,712,949197,2198,-16671,-3111,-206,334,194
9,713,949202,1308,-16573,-4160,-166,319,183
9,714,949207,1302,-16442,-4702,-156,281,188
9,715,949212,2097,-16393,-4435,-170,256,190
9,716,949217,2720,-16346,-3495,-182,273,179
9,717,949222,2586,-16311,-3206,-171,291,158
9,718,949227,2102,-16212,-3793,-147,285,146
9,719,949232,1886,-16222,-4347,-129,241,148
9,720,949237,2133,-16151,-4115,-135,191,152
9,721,949242,2585,-16056,-3554,-137,159,149
9,722,949247,2664,-16016,-3702,-130,153,138
9,723,949252,2383,-15892,-4162,-114,174,125
9,724,949257,2170,-15832,-4402,-99,182,120
9,725,949262,2242,-15803,-4348,-99,160,117
9,726,949267,2446,-15698,-3938,-99,144,111
9,727,949272,2467,-15648,-3958,-95,145,99
9,728,949277,2193,-15563,-4185,-84,174,86
9,729,949282,2021,-15456,-4442,-72,200,78
9,730,949287,2106,-15310,-4254,-66,198,74
9,731,949292,2355,-15240,-3878,-65,173,69
9,732,949297,2427,-15210,-3803,-60,147,62
9,733,949302,2229,-15206,-3891,-51,136,53
9,734,949307,1943,-15217,-3976,-34,118,46
9,735,949312,1936,-15267,-4100,-27,75,42
9,736,949317,2111,-15205,-4059,-25,37,38
9,737,949322,2201,-15213,-4106,-17,13,31
9,738,949327,2073,-15328,-4242,-9,12,19
9,739,949332,1891,-15339,-4517,3,20,11
9,740,949337,1901,-15281,-4562,9,28,4
9,741,949342,1977,-15304,-4425,12,27,0
9,742,949347,2041,-15399,-4320,15,35,-10
9,743,949352,1973,-15457,-4335,22,43,-23
9,744,949357,1757,-15555,-4487,32,54,-31
9,745,949362,1722,-15550,-4739,40,65,-38
9,746,949367,1799,-15489,-4705,40,82,-46
9,747,949372,1867,-15501,-4614,43,104,-54
9,748,949377,1870,-15460,-4567,44,133,-63
9,749,949382,1747,-15551,-4552,52,156,-75
9,750,949387,1731,-15570,-4615,61,160,-82
9,751,949392,1788,-15566,-4540,66,152,-83
9,752,949397,1878,-15551,-4504,72,143,-90
9,753,949402,1777,-15519,-4719,86,134,-104
9,754,949407,1746,-15574,-4798,89,135,-109
9,755,949412,1756,-15639,-4760,90,142,-111
9,756,949417,1922,-15729,-4668,91,143,-117
9,757,949422,1996,-15825,-4533,97,146,-123
9,758,949427,1806,-15889,-4542,104,150,-131
9,759,949432,1644,-15840,-4772,111,149,-137
9,760,949437,1821,-15791,-4866,111,159,-137
9,761,949442,1899,-15803,-4645,110,176,-138
9,762,949447,1890,-15866,-4464,113,185,-143
9,763,949452,1838,-15876,-4469,117,187,-147
9,764,949457,1968,-15782,-4631,119,184,-149
9,765,949462,2153,-15732,-4662,124,195,-148
9,766,949467,2205,-15715,-4372,124,208,-149
9,767,949472,2069,-15773,-4055,125,194,-151
9,768,949477,2005,-15861,-4099,128,164,-148
9,769,949482,2041,-15820,-4232,131,132,-149
9,770,949487,2070,-15761,-4242,132,106,-146
9,771,949492,2090,-15791,-4317,133,87,-143
9,772,949497,2102,-15835,-4350,132,77,-142
9,773,949502,2169,-15815,-4472,130,78,-142
9,774,949507,2172,-15752,-4522,127,95,-141
9,775,949512,2066,-15779,-4496,126,113,-139
9,776,949517,2071,-15810,-4475,122,123,-138
9,777,949522,2116,-15740,-4344,121,135,-139
9,778,949527,2120,-15631,-4320,116,138,-138
9,779,949532,2123,-15569,-4357,117,144,-134
9,780,949537,2116,-15585,-4349,118,148,-134
9,781,949542,2136,-15690,-4348,113,147,-133
9,782,949547,2229,-15725,-4244,108,140,-129
9,783,949552,2333,-15666,-4125,106,131,-123
9,784,949557,2429,-15587,-4149,105,126,-119
9,785,949562,2412,-15561,-4134,106,120,-116
9,786,949567,2338,-15613,-3987,106,102,-109
9,787,949572,2239,-15684,-3967,103,66,-109
9,788,949577,2267,-15654,-4011,98,24,-102
9,789,949582,2364,-15626,-4169,99,-1,-95
9,790,949587,2368,-15554,-4374,100,-8,-89
9,791,949592,2241,-15540,-4394,100,-7,-89
9,792,949597,2149,-15520,-4455,96,-12,-86
9,793,949602,2120,-15550,-4389,94,-23,-80
9,794,949607,2170,-15636,-4313,92,-28,-75
9,795,949612,2226,-15686,-4308,92,-26,-75
9,796,949617,2161,-15701,-4268,90,-23,-75
9,797,949622,2057,-15665,-4302,91,-31,-70
9,798,949627,1989,-15734,-4429,90,-35,-64
9,799,949632,1997,-15794,-4430,87,-30,-63
9,800,949637,2071,-15759,-4351,81,-19,-63
9,801,949642,2084,-15751,-4315,78,-7,-65
9,802,949647,2029,-15746,-4369,78,-1,-62
9,803,949652,2022,-15726,-4480,76,0,-59
9,804,949657,2071,-15714,-4407,74,-1,-56
9,805,949662,2135,-15657,-4235,73,-3,-53
9,806,949667,2051,-15808,-4208,72,-9,-51
9,807,949672,1945,-15897,-4345,69,-20,-49
9,808,949677,1984,-15898,-4416,68,-23,-51
9,809,949682,2045,-15832,-4465,62,-24,-50
9,810,949687,2145,-15794,-4459,60,-17,-45
9,811,949692,2031,-15805,-4484,62,-4,-41
9,812,949697,1887,-15812,-4443,62,11,-44
9,813,949702,1853,-15855,-4413,58,16,-43
9,814,949707,2006,-15907,-4353,53,17,-40
9,815,949712,2135,-15885,-4248,49,23,-41
9,816,949717,2215,-15797,-4192,51,22,-40
9,817,949722,2065,-15773,-4202,56,17,-40
9,818,949727,1920,-15786,-4258,54,-2,-36
9,819,949732,1873,-15810,-4278,49,-23,-33
9,820,949737,1991,-15823,-4414,49,-29,-34
9,821,949742,2129,-15788,-4480,46,-20,-32
9,822,949747,2015,-15753,-4491,47,2,-33
9,823,949752,1952,-15672,-4546,45,17,-37
9,824,949757,1974,-15590,-4504,44,23,-36
9,825,949762,2049,-15531,-4387,42,31,-33
9,826,949767,2178,-15523,-4146,39,32,-30
9,827,949772,2055,-15602,-4086,44,1,-27
9,828,949777,2036,-15583,-4242,40,-27,-25
9,829,949782,2069,-15552,-4266,38,-41,-21
9,830,949787,2144,-15577,-4326,35,-35,-19
9,831,949792,2180,-15625,-4381,32,-16,-17
9,832,949797,2104,-15681,-4352,33,-4,-19
9,833,949802,1996,-15689,-4345,32,-4,-19
9,834,949807,2028,-15705,-4408,29,-5,-16
9,835,949812,2138,-15673,-4463,25,6,-20
9,836,949817,2148,-15660,-4290,27,25,-19
9,837,949822,2013,-15650,-4267,24,36,-20
9,838,949827,1981,-15643,-4231,25,35,-20
9,839,949832,2002,-15629,-4158,23,25,-19
9,840,949837,2029,-15676,-4202,22,21,-17
9,841,949842,2080,-15766,-4115,20,25,-14
9,842,949847,2203,-15774,-3998,18,23,-13
9,843,949852,2267,-15722,-3870,13,18,-11
9,844,949857,2266,-15733,-3866,14,9,-8
9,845,949862,2212,-15747,-3964,17,-4,-6
9,846,949867,2195,-15785,-3959,16,-9,-5
9,847,949872,2234,-15749,-3904,8,-16,-3
9,848,949877,2335,-15716,-3856,6,-28,1
9,849,949882,2329,-15717,-3888,10,-41,1
9,850,949887,2253,-15754,-4039,11,-50,5
9,851,949892,2199,-15792,-4118,8,-53,6
9,852,949897,2184,-15771,-4120,7,-49,9
9,853,949902,2196,-15719,-4104,3,-46,9
9,854,949907,2079,-15748,-4122,3,-47,11
9,855,949912,1988,-15763,-4257,2,-45,12
9,856,949917,2008,-15741,-4283,-2,-41,12
9,857,949922,2035,-15674,-4277,-4,-33,11
9,858,949927,2114,-15720,-4274,-5,-16,12
9,859,949932,2053,-15723,-4238,-4,-7,12
9,860,949937,1938,-15723,-4207,-3,-3,10
9,861,949942,1924,-15678,-4276,-5,-9,12
9,862,949947,1967,-15697,-4290,-5,-11,17
9,863,949952,2043,-15710,-4229,-7,-4,14
9,864,949957,2060,-15722,-4162,-7,-5,14
9,865,949962,2045,-15786,-4175,-5,-14,15
9,866,949967,2058,-15762,-4246,-4,-22,13
9,867,949972,2068,-15721,-4270,-7,-20,14
9,868,949977,2136,-15662,-4278,-7,-14,16
9,869,949982,2095,-15713,-4231,-6,-8,17
9,870,949987,1985,-15791,-4214,-6,-12,16
9,871,949992,1969,-15850,-4269,-7,-26,18
9,872,949997,2025,-15820,-4314,-6,-36,19
9,873,950002,2142,-15815,-4374,-6,-27,18
9,874,950007,2112,-15798,-4430,-7,-9,17
9,875,950012,1998,-15775,-4391,-6,6,14
9,876,950017,1996,-15670,-4341,-4,10,17
9,877,950022,2045,-15602,-4300,-6,11,18
9,878,950027,2095,-15625,-4205,-4,15,19
9,879,950032,2005,-15783,-4088,-3,14,16
9,880,950037,1871,-16010,-4130,-6,-4,18
9,881,950042,1984,-16045,-4180,-6,-21,17
9,882,950047,2129,-15933,-4257,-7,-20,18
9,883,950052,2179,-15830,-4364,-6,2,15
9,884,950057,2087,-15835,-4285,-4,27,15
9,885,950062,2027,-15819,-4121,-8,36,15
9,886,950067,2066,-15739,-4082,-8,22,13
9,887,950072,2191,-15622,-4026,-7,12,15
9,888,950077,2253,-15512,-4079,-6,7,17
9,889,950082,2268,-15402,-4040,-3,-4,18
9,890,950087,2275,-15325,-4080,-2,-26,18
9,891,950092,2296,-15332,-4160,0,-58,24
9,892,950097,2193,-15535,-4068,3,-84,29
9,893,950102,1890,-15909,-4056,3,-105,31
9,894,950107,1753,-16186,-4354,-1,-117,24
9,895,950112,2024,-16173,-4601,-2,-97,21
9,896,950117,2267,-16058,-4788,-3,-44,22
9,897,950122,2297,-16000,-4765,-4,28,14
9,898,950127,2023,-16008,-4407,-4,86,10
9,899,950132,1892,-15994,-4059,-5,102,14
9,900,950137,1944,-15876,-3781,-9,95,12
9,901,950142,2051,-15755,-3792,-4,48,14
9,902,950147,2047,-15666,-3839,-4,13,12
9,903,950152,2058,-15598,-4047,-1,-22,17
9,904,950157,2098,-15600,-4217,-1,-35,18
9,905,950162,2131,-15714,-4261,-1,-27,18
9,906,950167,2036,-15816,-4146,-3,-11,16
9,907,950172,1952,-15893,-4115,0,-14,17
9,908,950177,2069,-15943,-4262,-1,-20,18
9,909,950182,2132,-15954,-4277,-1,-12,15
9,910,950187,2122,-15900,-4215,-3,2,15
9,911,950192,2046,-15844,-4175,-2,17,12
9,912,950197,2051,-15750,-4207,-1,22,11
9,913,950202,2107,-15669,-4189,0,24,13
9,914,950207,2122,-15611,-4066,4,17,13
9,915,950212,2072,-15615,-3971,2,10,10
9,916,950217,2093,-15669,-4002,1,-6,10
9,917,950222,2143,-15642,-4054,3,-20,13
9,918,950227,2214,-15694,-4079,5,-26,15
9,919,950232,2096,-15781,-4114,7,-27,15
9,920,950237,1987,-15838,-4181,5,-27,11
9,921,950242,1985,-15837,-4279,1,-21,11
9,922,950247,2039,-15827,-4284,0,2,9
9,923,950252,2138,-15811,-4224,1,26,9
9,924,950257,2087,-15779,-4058,0,44,4
9,925,950262,2005,-15723,-3917,-1,37,3
9,926,950267,1995,-15669,-3910,3,17,5
9,927,950272,2036,-15642,-3990,2,-3,6
9,928,950277,2081,-15638,-4002,5,-18,8
9,929,950282,2108,-15661,-4130,4,-26,9
9,930,950287,2164,-15656,-4218,6,-32,8
9,931,950292,2079,-15674,-4230,8,-35,7
9,932,950297,2018,-15715,-4345,6,-21,3
9,933,950302,2002,-15689,-4355,1,-5,2
9,934,950307,2092,-15638,-4313,4,12,1
9,935,950312,2089,-15642,-4248,5,29,2
9,936,950317,2025,-15650,-4167,7,31,2
9,937,950322,1995,-15692,-4066,7,22,-1
9,938,950327,2039,-15792,-4037,9,15,2
9,939,950332,2103,-15742,-4062,8,8,1
9,940,950337,2088,-15695,-4005,10,4,1
9,941,950342,1999,-15789,-4039,10,-1,2
9,942,950347,2004,-15893,-4134,9,-11,0
9,943,950352,2114,-15965,-4251,9,-17,-2
9,944,950357,2170,-15910,-4243,9,-12,-3
9,945,950362,2089,-15844,-4210,11,8,-5
9,946,950367,2000,-15796,-4262,11,20,-5
9,947,950372,2013,-15766,-4241,8,27,-6
9,948,950377,2047,-15767,-4106,9,28,-5
9,949,950382,2095,-15755,-4002,9,19,-5
9,950,950387,2103,-15844,-3929,12,7,-9
9,951,950392,2023,-15850,-4048,13,-6,-6
9,952,950397,2023,-15872,-4180,11,-12,-6
9,953,950402,2146,-15838,-4199,14,-12,-6
9,954,950407,2261,-15784,-4102,12,-5,-7
9,955,950412,2187,-15783,-4079,13,3,-8
9,956,950417,2006,-15815,-4121,14,-3,-9
9,957,950422,2012,-15834,-4114,13,-12,-9
9,958,950427,2046,-15837,-4157,12,-21,-4
9,959,950432,2144,-15805,-4176,14,-23,-5
9,960,950437,2093,-15762,-4213,15,-20,-9
9,961,950442,2044,-15781,-4273,18,-16,-10
9,962,950447,1962,-15811,-4304,16,-14,-10
9,963,950452,2024,-15764,-4351,14,-9,-10
9,964,950457,2122,-15726,-4207,14,3,-14
9,965,950462,2100,-15689,-4074,16,12,-10
9,966,950467,2040,-15695,-4116,14,6,-13
9,967,950472,2060,-15654,-4126,16,1,-12
9,968,950477,2155,-15640,-4028,18,1,-9
9,969,950482,2144,-15629,-3972,16,-4,-12
9,970,950487,2071,-15663,-3971,16,-14,-14
9,971,950492,1963,-15744,-4050,18,-30,-11
9,972,950497,2022,-15784,-4191,15,-39,-13
9,973,950502,2135,-15702,-4187,12,-32,-13
9,974,950507,2066,-15770,-4232,14,-7,-13
9,975,950512,1994,-15751,-4212,16,-4,-15
9,976,950517,2008,-15748,-4139,14,-7,-17
9,977,950522,2035,-15778,-4174,14,-4,-14
9,978,950527,2079,-15773,-4077,15,-1,-15
9,979,950532,2115,-15777,-4004,15,0,-17
9,980,950537,2015,-15797,-4047,17,-10,-14
9,981,950542,1997,-15782,-4075,17,-21,-15
9,982,950547,2091,-15762,-4205,15,-23,-19
9,983,950552,2142,-15730,-4177,14,-9,-17
9,984,950557,2047,-15700,-4191,15,5,-17
9,985,950562,2068,-15636,-4156,15,17,-17
9,986,950567,2121,-15619,-4077,14,18,-16
9,987,950572,2051,-15678,-3998,10,16,-16
9,988,950577,1999,-15784,-3979,10,1,-15
9,989,950582,2088,-15785,-4025,12,-8,-17
9,990,950587,2220,-15751,-4087,11,-7,-16
9,991,950592,2226,-15724,-4106,12,-3,-17
9,992,950597,2080,-15715,-4070,12,-2,-16
9,993,950602,1958,-15821,-4007,11,-7,-14
9,994,950607,1921,-15955,-4058,10,-12,-15
9,995,950612,2039,-15955,-4062,10,-8,-14
9,996,950617,2139,-15912,-4116,10,1,-16
9,997,950622,2131,-15887,-4181,8,9,-18
9,998,950627,2064,-15834,-4149,7,15,-17
9,999,950632,2047,-15783,-4081,9,13,-15
10,0,957572,2970,-15552,-4021,8,-26,9
10,1,957577,2955,-15545,-4102,6,-24,10
10,2,957582,2938,-15524,-4053,5,-20,9
10,3,957587,2939,-15516,-4055,4,-20,7
10,4,957592,2919,-15502,-4045,5,-23,10
10,5,957597,2925,-15544,-4031,7,-20,9
10,6,957602,2848,-15540,-4013,3,-17,8
10,7,957607,2801,-15564,-4055,2,-15,7
10,8,957612,2800,-15580,-4012,1,-10,4
10,9,957617,2808,-15640,-3948,1,-7,6
10,10,957622,2802,-15650,-3897,-1,-5,5
10,11,957627,2759,-15692,-3974,0,-6,2
10,12,957632,2794,-15709,-3966,1,-10,1
10,13,957637,2800,-15742,-3935,2,-12,5
10,14,957642,2807,-15749,-3907,1,-12,4
10,15,957647,2828,-15817,-3967,3,-14,1
10,16,957652,2838,-15800,-3992,0,-12,-1
10,17,957657,2844,-15823,-3965,-3,-10,-1
10,18,957662,2847,-15786,-3941,1,-14,0
10,19,957667,2958,-15819,-3929,1,-15,1
10,20,957672,2969,-15786,-3960,0,-17,-2
10,21,957677,2963,-15727,-3987,0,-19,0
10,22,957682,2932,-15719,-4016,-3,-23,2
10,23,957687,2948,-15669,-4022,-3,-24,0
10,24,957692,2942,-15605,-4016,1,-24,-1
10,25,957697,2939,-15551,-3995,2,-24,0
10,26,957702,2907,-15496,-4039,4,-23,4
10,27,957707,2871,-15485,-4030,2,-23,2
10,28,957712,2808,-15524,-3915,0,-28,2
10,29,957717,2781,-15495,-3901,0,-36,5
10,30,957722,2747,-15480,-3998,2,-49,4
10,31,957727,2773,-15417,-4129,1,-51,2
10,32,957732,2795,-15402,-4162,3,-43,1
10,33,957737,2804,-15431,-4183,6,-37,4
10,34,957742,2811,-15449,-4218,5,-29,4
10,35,957747,2832,-15441,-4189,5,-24,2
10,36,957752,2787,-15499,-4134,6,-18,4
10,37,957757,2780,-15543,-4115,6,-15,6
10,38,957762,2776,-15583,-4115,6,-11,5
10,39,957767,2797,-15652,-4086,10,-12,6
10,40,957772,2788,-15682,-4057,10,-7,8
10,41,957777,2821,-15747,-4059,8,-3,9
10,42,957782,2798,-15709,-4000,8,10,7
10,43,957787,2818,-15747,-3929,11,20,8
10,44,957792,2810,-15824,-3858,11,28,9
10,45,957797,2775,-15829,-3703,12,24,9
10,46,957802,2721,-15826,-3617,10,14,10
10,47,957807,2754,-15891,-3602,12,-1,12
10,48,957812,2840,-15934,-3709,14,-9,14
10,49,957817,2889,-15963,-3755,13,-12,12
10,50,957822,2857,-15935,-3675,10,-16,16
10,51,957827,2864,-15903,-3797,10,-20,18
10,52,957832,2911,-15908,-3924,11,-17,18
10,53,957837,2919,-15911,-4046,14,-4,20
10,54,957842,2890,-15865,-4045,11,11,21
10,55,957847,2871,-15818,-4007,10,22,21
10,56,957852,2910,-15748,-4012,10,31,21
10,57,957857,2898,-15643,-3948,11,42,25
10,58,957862,2875,-15613,-3810,13,52,26
10,59,957867,2846,-15669,-3790,11,53,26
10,60,957872,2918,-15575,-3669,10,42,31
10,61,957877,2870,-15492,-3532,10,28,32
10,62,957882,2891,-15579,-3622,14,5,34
10,63,957887,2823,-15610,-3658,12,-3,38
10,64,957892,2850,-15665,-3663,8,-19,42
10,65,957897,2961,-15681,-3756,11,-38,42
10,66,957902,2968,-15704,-3892,12,-45,41
10,67,957907,2996,-15709,-3991,11,-41,44
10,68,957912,2992,-15725,-4014,13,-43,47
10,69,957917,2961,-15765,-4059,14,-48,50
10,70,957922,2912,-15890,-4040,14,-48,51
10,71,957927,2837,-15955,-4000,17,-46,52
10,72,957932,2789,-15980,-3984,19,-36,51
10,73,957937,2737,-16001,-3951,17,-26,53
10,74,957942,2712,-16016,-3907,17,-14,52
10,75,957947,2695,-16053,-3841,19,-7,53
10,76,957952,2633,-16067,-3795,15,-2,52
10,77,957957,2572,-16079,-3762,13,2,52
10,78,957962,2645,-16040,-3781,11,8,51
10,79,957967,2700,-16003,-3748,11,13,51
10,80,957972,2739,-15963,-3623,10,11,50
10,81,957977,2734,-15932,-3670,7,3,50
10,82,957982,2738,-15881,-3709,8,-15,51
10,83,957987,2836,-15810,-3870,12,-33,52
10,84,957992,2926,-15771,-4076,11,-40,54
10,85,957997,2917,-15716,-4185,13,-38,57
10,86,958002,2850,-15709,-4239,11,-38,54
10,87,958007,2802,-15619,-4264,9,-31,55
10,88,958012,2810,-15559,-4239,8,-18,54
10,89,958017,2827,-15521,-4161,10,1,55
10,90,958022,2756,-15526,-4046,9,10,56
10,91,958027,2739,-15573,-3888,8,10,55
10,92,958032,2721,-15553,-3853,7,-1,56
10,93,958037,2698,-15518,-3828,7,-12,54
10,94,958042,2721,-15527,-3905,8,-17,55
10,95,958047,2675,-15555,-3905,6,-11,57
10,96,958052,2652,-15464,-3824,3,-10,54
10,97,958057,2663,-15464,-3851,-2,-12,53
10,98,958062,2686,-15467,-3914,-4,-9,51
10,99,958067,2630,-15479,-3920,-3,-4,53
10,100,958072,2556,-15545,-3926,-6,-1,55
10,101,958077,2535,-15613,-3939,-5,-9,54
10,102,958082,2501,-15637,-4000,-6,-13,48
10,103,958087,2529,-15664,-4071,-5,-4,50
10,104,958092,2497,-15712,-4097,-9,12,49
10,105,958097,2528,-15760,-4026,-14,31,46
10,106,958102,2583,-15745,-3881,-15,39,45
10,107,958107,2623,-15702,-3887,-16,40,42
10,108,958112,2613,-15712,-3947,-16,38,42
10,109,958117,2589,-15693,-3948,-18,36,42
10,110,958122,2602,-15667,-3926,-19,30,43
10,111,958127,2702,-15689,-3957,-17,25,43
10,112,958132,2697,-15717,-3891,-17,16,42
10,113,958137,2675,-15753,-3973,-19,10,39
10,114,958142,2627,-15789,-4023,-17,5,45
10,115,958147,2557,-15887,-4062,-21,8,45
10,116,958152,2568,-15976,-4109,-24,14,40
10,117,958157,2553,-15981,-4088,-25,18,42
10,118,958162,2535,-15997,-4116,-26,26,40
10,119,958167,2538,-15960,-4102,-24,40,38
10,120,958172,2486,-15982,-4026,-29,54,37
10,121,958177,2412,-16012,-3967,-27,59,37
10,122,958182,2338,-16081,-3838,-29,60,35
10,123,958187,2414,-16119,-3898,-29,47,37
10,124,958192,2448,-16104,-3959,-27,43,37
10,125,958197,2405,-16119,-3970,-28,42,36
10,126,958202,2388,-16084,-3944,-31,41,36
10,127,958207,2492,-16015,-3885,-31,40,36
10,128,958212,2554,-16019,-3883,-31,41,36
10,129,958217,2488,-16024,-3876,-30,37,37
10,130,958222,2459,-15975,-3919,-26,24,37
10,131,958227,2500,-15896,-3954,-32,7,37
10,132,958232,2505,-15878,-4052,-32,-4,40
10,133,958237,2463,-15920,-4144,-27,-11,41
10,134,958242,2396,-15943,-4277,-26,-2,39
10,135,958247,2330,-15918,-4476,-26,17,38
10,136,958252,2278,-15904,-4635,-26,99,35
10,137,958257,2279,-15974,-4502,-28,145,35
10,138,958262,2338,-15991,-4186,-33,186,31
10,139,958267,2283,-16027,-3893,-36,207,26
10,140,958272,2221,-15915,-3755,-33,213,26
10,141,958277,2232,-15862,-3528,-33,205,28
10,142,958282,2449,-15807,-3421,-36,188,28
10,143,958287,2536,-15739,-3256,-37,162,30
10,144,958292,2536,-15688,-3264,-34,120,34
10,145,958297,2527,-15535,-3505,-32,74,36
10,146,958302,2620,-15477,-3823,-29,39,43
10,147,958307,2683,-15513,-4066,-28,22,47
10,148,958312,2699,-15577,-4289,-32,18,49
10,149,958317,2727,-15586,-4396,-29,21,49
10,150,958322,2711,-15636,-4487,-23,31,50
10,151,958327,2689,-15687,-4751,-20,53,49
10,152,958332,2714,-15632,-4783,-19,83,50
10,153,958337,2717,-15609,-4656,-20,118,53
10,154,958342,2694,-15632,-4391,-23,143,54
10,155,958347,2619,-15613,-4156,-22,156,54
10,156,958352,2444,-15582,-4058,-18,154,54
10,157,958357,2324,-15610,-4098,-15,143,55
10,158,958362,2327,-15575,-4040,-17,144,56
10,159,958367,2316,-15555,-4010,-19,146,55
10,160,958372,2244,-15525,-4008,-18,148,52
10,161,958377,2154,-15513,-4079,-17,149,54
10,162,958382,2113,-15542,-4060,-17,150,53
10,163,958387,2142,-15543,-4092,-18,146,56
10,164,958392,2216,-15541,-4023,-17,149,52
10,165,958397,2279,-15527,-4056,-15,146,49
10,166,958402,2295,-15505,-4194,-14,140,47
10,167,958407,2300,-15434,-4358,-13,135,47
10,168,958412,2259,-15394,-4132,-14,140,46
10,169,958417,2210,-15289,-4162,-14,139,44
10,170,958422,2228,-15220,-4086,-12,143,44
10,171,958427,2227,-15140,-4206,-8,149,45
10,172,958432,2170,-15123,-4106,-7,156,42
10,173,958437,2178,-15136,-4074,-10,155,38
10,174,958442,2117,-15182,-4014,-8,151,37
10,175,958447,2053,-15233,-4034,-6,153,34
10,176,958452,2020,-15272,-4124,-7,168,30
10,177,958457,2038,-15350,-4130,-7,193,28
10,178,958462,2182,-15431,-4094,-10,216,26
10,179,958467,2334,-15504,-3963,-12,235,21
10,180,958472,2458,-15494,-3885,-11,245,15
10,181,958477,2533,-15464,-3759,-11,247,12
10,182,958482,2612,-15461,-3711,-11,238,11
10,183,958487,2661,-15529,-3556,-13,219,15
10,184,958492,2735,-15627,-3529,-14,188,18
10,185,958497,2783,-15752,-3511,-11,151,18
10,186,958502,2827,-15910,-3654,-8,117,18
10,187,958507,2854,-15979,-3806,-6,98,22
10,188,958512,2850,-16056,-4060,-5,94,20
10,189,958517,2844,-16146,-4230,-7,99,18
10,190,958522,2915,-16270,-4172,-7,115,20
10,191,958527,2778,-16451,-3971,-10,128,20
10,192,958532,2495,-16532,-3870,-9,126,15
10,193,958537,2342,-16537,-3937,-7,118,13
10,194,958542,2375,-16480,-4153,-8,116,16
10,195,958547,2525,-16487,-4139,-8,123,11
10,196,958552,2597,-16411,-4111,-9,127,10
10,197,958557,2668,-16332,-4026,-8,128,6
10,198,958562,2628,-16346,-4264,-6,127,3
10,199,958567,2645,-16379,-4439,-4,133,7
10,200,958572,2735,-16409,-4203,-9,148,2
10,201,958577,2797,-16381,-4178,-4,146,3
10,202,958582,2942,-16355,-4126,-3,141,3
10,203,958587,3114,-16393,-4143,0,132,2
10,204,958592,3102,-16464,-3952,2,123,3
10,205,958597,2994,-16595,-3805,3,99,8
10,206,958602,2917,-16719,-3732,3,65,9
10,207,958607,2887,-16637,-3871,2,35,9
10,208,958612,2873,-16577,-3961,5,21,12
10,209,958617,2964,-16504,-4110,3,53,15
10,210,958622,2965,-16415,-4007,-3,80,12
10,211,958627,2856,-16282,-3828,-6,97,10
10,212,958632,2816,-16171,-3801,-7,106,11
10,213,958637,2859,-16076,-3821,-7,110,15
10,214,958642,2926,-15916,-3799,-9,109,13
10,215,958647,2912,-15787,-3698,-9,97,12
10,216,958652,2847,-15646,-3818,-7,78,14
10,217,958657,2824,-15591,-4018,-10,71,13
10,218,958662,2766,-15524,-4120,-12,73,15
10,219,958667,2781,-15480,-3984,-13,82,13
10,220,958672,2725,-15470,-3879,-13,92,14
10,221,958677,2677,-15438,-3898,-13,97,15
10,222,958682,2602,-15378,-3887,-14,99,11
10,223,958687,2547,-15340,-3837,-16,104,12
10,224,958692,2509,-15305,-3831,-18,104,13
10,225,958697,2539,-15322,-3663,-22,105,9
10,226,958702,2527,-15276,-3586,-24,98,11
10,227,958707,2529,-15236,-3660,-26,90,7
10,228,958712,2471,-15181,-3610,-24,79,10
10,229,958717,2423,-15186,-3560,-23,62,12
10,230,958722,2509,-15161,-3641,-25,39,10
10,231,958727,2547,-15202,-3628,-25,15,12
10,232,958732,2553,-15272,-3852,-20,-6,12
10,233,958737,2517,-15363,-4057,-18,-16,13
10,234,958742,2511,-15427,-4098,-21,-17,11
10,235,958747,2484,-15506,-4237,-26,-8,11
10,236,958752,2536,-15581,-4382,-21,13,12
10,237,958757,2499,-15638,-4328,-21,49,10
10,238,958762,2545,-15688,-4182,-23,80,9
10,239,958767,2462,-15773,-3984,-24,95,10
10,240,958772,2462,-15821,-3937,-23,98,13
10,241,958777,2420,-15822,-3917,-23,95,13
10,242,958782,2376,-15854,-3863,-20,88,12
10,243,958787,2383,-15900,-3966,-22,75,14
10,244,958792,2431,-15844,-4071,-21,64,13
10,245,958797,2616,-15810,-4353,-17,67,14
10,246,958802,2758,-15751,-4398,-16,86,13
10,247,958807,2632,-15803,-4231,-16,110,13
10,248,958812,2367,-15858,-4103,-18,113,15
10,249,958817,2257,-15806,-4012,-15,103,18
10,250,958822,2363,-15798,-4011,-12,94,19
10,251,958827,2577,-15825,-4016,-10,93,21
10,252,958832,2571,-15867,-3914,-10,87,20
10,253,958837,2371,-15775,-3875,-9,72,19
10,254,958842,2335,-15657,-3962,-8,53,22
10,255,958847,2406,-15604,-4111,-7,52,24
10,256,958852,2414,-15603,-3890,-5,63,25
10,257,958857,2346,-15563,-3695,-5,62,23
10,258,958862,2239,-15555,-3796,-4,41,23
10,259,958867,2264,-15516,-3890,-7,25,24
10,260,958872,2350,-15537,-3973,-3,22,27
10,261,958877,2265,-15525,-3829,-5,30,24
10,262,958882,2268,-15595,-3830,-6,26,23
10,263,958887,2237,-15519,-3965,-3,19,23
10,264,958892,2346,-15534,-3951,-5,16,24
10,265,958897,2306,-15541,-3882,-8,27,23
10,266,958902,2296,-15510,-3701,-10,36,20
10,267,958907,2229,-15513,-3635,-11,31,18
10,268,958912,2192,-15427,-3623,-11,15,19
10,269,958917,2151,-15448,-3655,-10,-1,18
10,270,958922,2057,-15487,-3596,-16,-18,17
10,271,958927,2172,-15488,-3607,-15,-35,18
10,272,958932,2190,-15426,-3743,-14,-43,16
10,273,958937,2152,-15423,-3776,-16,-52,16
10,274,958942,2056,-15466,-3841,-16,-60,15
10,275,958947,2091,-15502,-3893,-19,-62,15
10,276,958952,2231,-15503,-3902,-22,-57,12
10,277,958957,2307,-15445,-3847,-21,-50,9
10,278,958962,2338,-15510,-3786,-19,-43,9
10,279,958967,2343,-15520,-3816,-19,-41,9
10,280,958972,2336,-15524,-3756,-22,-50,11
10,281,958977,2344,-15588,-3742,-22,-64,11
10,282,958982,2336,-15638,-3804,-22,-72,9
10,283,958987,2197,-15756,-4025,-22,-79,13
10,284,958992,2278,-15743,-4072,-24,-73,11
10,285,958997,2358,-15794,-4225,-23,-57,11
10,286,959002,2355,-15813,-4313,-23,-32,12
10,287,959007,2371,-15804,-4259,-23,-6,10
10,288,959012,2470,-15790,-4165,-26,12,10
10,289,959017,2508,-15792,-4112,-24,26,12
10,290,959022,2501,-15726,-3968,-25,31,13
10,291,959027,2450,-15705,-3877,-24,25,16
10,292,959032,2546,-15692,-3894,-23,9,17
10,293,959037,2583,-15703,-3927,-24,-9,21
10,294,959042,2579,-15726,-3972,-22,-20,22
10,295,959047,2535,-15744,-3982,-18,-34,25
10,296,959052,2533,-15788,-4101,-15,-40,25
10,297,959057,2531,-15889,-4161,-16,-38,30
10,298,959062,2512,-15981,-4118,-16,-31,32
10,299,959067,2464,-16022,-4073,-16,-22,34
10,300,959072,2400,-15983,-4028,-17,-17,30
10,301,959077,2379,-15957,-4104,-17,-10,31
10,302,959082,2370,-15949,-4100,-16,0,33
10,303,959087,2413,-15898,-4019,-14,8,34
10,304,959092,2360,-15877,-3927,-16,1,33
10,305,959097,2359,-15874,-3987,-11,-15,35
10,306,959102,2379,-15816,-4017,-10,-28,38
10,307,959107,2312,-15772,-4103,-11,-35,39
10,308,959112,2333,-15776,-4159,-9,-35,40
10,309,959117,2397,-15848,-4124,-10,-34,42
10,310,959122,2432,-15891,-4191,-13,-32,40
10,311,959127,2422,-15817,-4205,-12,-19,39
10,312,959132,2458,-15770,-4229,-12,-5,39
10,313,959137,2536,-15749,-4229,-12,13,39
10,314,959142,2563,-15806,-4061,-13,24,40
10,315,959147,2515,-15813,-3820,-16,16,42
10,316,959152,2379,-15811,-3681,-16,-9,42
10,317,959157,2327,-15911,-3778,-13,-31,43
10,318,959162,2348,-15876,-3883,-14,-40,43
10,319,959167,2335,-15856,-3937,-15,-46,44
10,320,959172,2353,-15842,-4030,-15,-50,44
10,321,959177,2301,-15917,-4185,-14,-49,45
10,322,959182,2329,-15982,-4300,-17,-39,44
10,323,959187,2401,-15912,-4266,-21,-21,45
10,324,959192,2423,-15763,-4158,-18,-1,42
10,325,959197,2330,-15709,-4115,-18,10,42
10,326,959202,2329,-15739,-4076,-19,5,39
10,327,959207,2394,-15704,-3980,-18,-7,43
10,328,959212,2362,-15706,-3870,-19,-24,43
10,329,959217,2389,-15688,-3875,-18,-46,45
10,330,959222,2379,-15721,-4031,-16,-60,43
10,331,959227,2339,-15733,-4203,-15,-67,44
10,332,959232,2303,-15729,-4206,-17,-71,42
10,333,959237,2252,-15730,-4191,-18,-69,39
10,334,959242,2183,-15744,-4314,-20,-61,41
10,335,959247,2184,-15782,-4419,-19,-44,41
10,336,959252,2155,-15806,-4368,-18,-30,37
10,337,959257,2132,-15774,-4259,-20,-22,34
10,338,959262,2168,-15816,-4296,-22,-15,32
10,339,959267,2135,-15790,-4383,-23,-8,30
10,340,959272,2113,-15817,-4350,-22,6,26
10,341,959277,2149,-15783,-4277,-24,15,24
10,342,959282,2228,-15716,-4241,-24,19,27
10,343,959287,2263,-15725,-4357,-25,22,22
10,344,959292,2293,-15728,-4312,-22,24,22
10,345,959297,2294,-15697,-4211,-22,23,22
10,346,959302,2380,-15687,-4193,-22,14,22
10,347,959307,2521,-15661,-4267,-22,12,24
10,348,959312,2576,-15691,-4234,-21,9,24
10,349,959317,2450,-15701,-4139,-21,0,24
10,350,959322,2401,-15711,-4153,-17,-13,26
10,351,959327,2395,-15677,-4238,-16,-29,24
10,352,959332,2369,-15724,-4280,-16,-29,25
10,353,959337,2432,-15726,-4247,-16,-26,24
10,354,959342,2478,-15741,-4247,-18,-21,22
10,355,959347,2411,-15755,-4239,-17,-19,24
10,356,959352,2306,-15745,-4226,-16,-20,22
10,357,959357,2263,-15815,-4159,-13,-27,20
10,358,959362,2254,-15808,-4188,-14,-32,20
10,359,959367,2231,-15776,-4237,-15,-36,20
10,360,959372,2249,-15747,-4375,-13,-33,20
10,361,959377,2290,-15742,-4475,-14,-22,19
10,362,959382,2255,-15737,-4369,-14,-8,17
10,363,959387,2223,-15715,-4312,-14,1,14
10,364,959392,2222,-15701,-4363,-12,6,15
10,365,959397,2259,-15649,-4348,-12,15,12
10,366,959402,2326,-15576,-4277,-12,19,10
10,367,959407,2348,-15613,-4155,-12,18,11
10,368,959412,2365,-15573,-4087,-14,9,11
10,369,959417,2363,-15597,-4145,-9,-7,10
10,370,959422,2346,-15651,-4114,-8,-20,10
10,371,959427,2346,-15640,-4145,-9,-30,11
10,372,959432,2397,-15618,-4111,-8,-34,12
10,373,959437,2432,-15570,-4116,-7,-39,12
10,374,959442,2403,-15616,-4186,-7,-40,9
10,375,959447,2290,-15626,-4158,-4,-40,10
10,376,959452,2273,-15688,-4213,-6,-44,13
10,377,959457,2278,-15742,-4157,-8,-42,10
10,378,959462,2267,-15729,-4123,-9,-31,7
10,379,959467,2240,-15714,-4232,-5,-21,6
10,380,959472,2188,-15677,-4207,-8,-5,6
10,381,959477,2148,-15663,-4127,-10,4,3
10,382,959482,2215,-15651,-4083,-11,3,1
10,383,959487,2233,-15663,-4060,-10,-5,3
10,384,959492,2273,-15671,-4089,-8,-14,1
10,385,959497,2247,-15631,-4182,-6,-23,1
10,386,959502,2273,-15607,-4193,-5,-25,3
10,387,959507,2286,-15563,-4214,-6,-27,2
10,388,959512,2334,-15546,-4235,-5,-28,0
10,389,959517,2342,-15574,-4238,-5,-25,0
10,390,959522,2296,-15637,-4213,-2,-26,1
10,391,959527,2276,-15637,-4164,-4,-31,1
10,392,959532,2263,-15792,-4207,-4,-43,2
10,393,959537,2343,-15867,-4348,-1,-43,0
10,394,959542,2302,-15835,-4337,-4,-30,-2
10,395,959547,2254,-15841,-4344,-2,-17,-2
10,396,959552,2231,-15900,-4289,1,5,-3
10,397,959557,2193,-15947,-4230,0,18,-6
10,398,959562,2195,-15959,-4164,-3,20,-5
10,399,959567,2187,-15949,-4122,-4,21,-9
10,400,959572,2314,-15856,-4135,-2,19,-8
10,401,959577,2369,-15783,-4131,1,19,-9
10,402,959582,2336,-15756,-4103,-1,15,-9
10,403,959587,2255,-15775,-4011,0,1,-6
10,404,959592,2248,-15770,-3999,2,-19,-6
10,405,959597,2310,-15797,-4071,0,-34,-7
10,406,959602,2275,-15816,-4153,3,-43,-5
10,407,959607,2259,-15809,-4280,5,-47,-4
10,408,959612,2211,-15819,-4377,8,-48,-7
10,409,959617,2262,-15871,-4411,7,-42,-10
10,410,959622,2265,-15861,-4417,3,-17,-14
10,411,959627,2212,-15902,-4402,3,8,-12
10,412,959632,2183,-15919,-4266,4,24,-15
10,413,959637,2169,-15835,-4139,4,29,-13
10,414,959642,2205,-15755,-4046,3,25,-12
10,415,959647,2229,-15782,-3981,2,18,-14
10,416,959652,2195,-15815,-3952,4,-1,-17
10,417,959657,2215,-15765,-3963,4,-19,-15
10,418,959662,2208,-15706,-4080,4,-30,-16
10,419,959667,2230,-15675,-4200,6,-32,-15
10,420,959672,2165,-15711,-4191,6,-26,-15
10,421,959677,2186,-15732,-4164,4,-23,-15
10,422,959682,2159,-15727,-4143,5,-25,-14
10,423,959687,2244,-15715,-4267,2,-20,-15
10,424,959692,2299,-15672,-4279,1,-11,-17
10,425,959697,2236,-15680,-4159,5,-5,-16
10,426,959702,2259,-15688,-3985,7,-9,-14
10,427,959707,2287,-15714,-3974,5,-23,-15
10,428,959712,2242,-15776,-4032,5,-34,-16
10,429,959717,2159,-15823,-4063,7,-39,-16
10,430,959722,2087,-15790,-4029,6,-46,-16
10,431,959727,2147,-15804,-4241,4,-37,-16
10,432,959732,2142,-15827,-4197,5,-23,-21
10,433,959737,2087,-15847,-4136,2,-8,-20
10,434,959742,2114,-15799,-4106,4,-6,-19
10,435,959747,2176,-15773,-4098,4,0,-21
10,436,959752,2172,-15756,-4065,2,6,-21
10,437,959757,2116,-15764,-4080,2,6,-21
10,438,959762,2119,-15707,-4072,0,1,-21
10,439,959767,2159,-15678,-4170,4,-8,-19
10,440,959772,2279,-15624,-4146,4,-7,-20
10,441,959777,2276,-15596,-4134,1,-8,-22
10,442,959782,2185,-15613,-4133,1,-14,-21
10,443,959787,2190,-15603,-4202,4,-23,-19
10,444,959792,2231,-15558,-4195,3,-26,-18
10,445,959797,2194,-15597,-4192,3,-27,-19
10,446,959802,2189,-15609,-4199,3,-24,-19
10,447,959807,2158,-15633,-4148,3,-27,-17
10,448,959812,2119,-15665,-4153,0,-25,-17
10,449,959817,2144,-15659,-4123,1,-24,-18
10,450,959822,2127,-15649,-4089,2,-22,-15
10,451,959827,2046,-15647,-4135,0,-24,-16
10,452,959832,2039,-15582,-4186,1,-26,-13
10,453,959837,2055,-15560,-4173,-1,-23,-15
10,454,959842,2084,-15569,-4201,-3,-26,-13
10,455,959847,2099,-15547,-4161,-5,-23,-11
10,456,959852,2007,-15474,-4097,-6,-20,-9
10,457,959857,2077,-15439,-4144,-10,-21,-4
10,458,959862,2172,-15361,-4037,-15,-16,1
10,459,959867,2139,-15350,-4025,-17,-8,3
10,460,959872,1892,-15392,-4093,-18,-9,7
10,461,959877,2017,-15356,-4323,-27,-2,12
10,462,959882,2336,-15210,-4233,-36,29,19
10,463,959887,2435,-15127,-3995,-41,65,23
10,464,959892,2245,-15041,-3854,-44,82,26
10,465,959897,2043,-14872,-3809,-50,67,35
10,466,959902,2033,-14728,-3680,-56,35,44
10,467,959907,2078,-14690,-3554,-58,-7,59
10,468,959912,2061,-14755,-3519,-60,-55,72
10,469,959917,1778,-14846,-3620,-61,-118,85
10,470,959922,1470,-14968,-3957,-62,-189,96
10,471,959927,1542,-15145,-4585,-64,-240,111
10,472,959932,1716,-15253,-4823,-74,-233,125
10,473,959937,1876,-15277,-4780,-89,-193,132
10,474,959942,1940,-15262,-4435,-91,-157,140
10,475,959947,1732,-15262,-4315,-98,-141,157
10,476,959952,1529,-15485,-4421,-104,-151,173
10,477,959957,1543,-15750,-4288,-114,-167,194
10,478,959962,1682,-15907,-3876,-126,-181,209
10,479,959967,1792,-15934,-3928,-133,-201,225
10,480,959972,1689,-15924,-4131,-135,-220,240
10,481,959977,1571,-15915,-4458,-140,-236,255
10,482,959982,1364,-15938,-4461,-151,-247,277
10,483,959987,1528,-15975,-4480,-164,-263,301
10,484,959992,1522,-15990,-4286,-170,-271,321
10,485,959997,1426,-16016,-4633,-172,-281,335
10,486,960002,1283,-15984,-4861,-179,-282,353
10,487,960007,1158,-15965,-4975,-190,-289,377
10,488,960012,1341,-15851,-4837,-205,-297,400
10,489,960017,1519,-15736,-4908,-220,-297,417
10,490,960022,1361,-15621,-4740,-225,-288,436
10,491,960027,999,-15514,-4950,-225,-305,456
10,492,960032,755,-15429,-4935,-233,-332,480
10,493,960037,854,-15353,-5031,-248,-362,509
10,494,960042,980,-15306,-4903,-258,-367,528
10,495,960047,829,-15299,-5004,-269,-373,544
10,496,960052,380,-15222,-5254,-271,-377,566
10,497,960057,141,-15210,-5543,-280,-377,586
10,498,960062,223,-15237,-5698,-297,-368,608
10,499,960067,383,-15267,-5564,-312,-331,623
10,500,960072,243,-15322,-5237,-321,-287,641
10,501,960077,-50,-15309,-5455,-328,-271,655
10,502,960082,-177,-15290,-5730,-338,-266,676
10,503,960087,-155,-15258,-5577,-352,-256,695
10,504,960092,-61,-15264,-5377,-381,-222,733
10,505,960097,-302,-15341,-5289,-390,-218,746
10,506,960102,-471,-15365,-5422,-396,-239,770
10,507,960107,-342,-15266,-5581,-412,-265,790
10,508,960112,-173,-15200,-5429,-423,-272,811
10,509,960117,-76,-15189,-5529,-436,-270,828
10,510,960122,-354,-15204,-5546,-446,-265,842
10,511,960127,-687,-15320,-5731,-450,-278,863
10,512,960132,-706,-15349,-5861,-464,-306,885
10,513,960137,-536,-15306,-5801,-481,-317,903
10,514,960142,-487,-15337,-5843,-484,-316,920
10,515,960147,-708,-15419,-6072,-490,-310,936
10,516,960152,-1001,-15514,-6454,-499,-299,950
10,517,960157,-1075,-15638,-6543,-511,-295,966
10,518,960162,-1097,-15640,-6359,-525,-287,983
10,519,960167,-1076,-15630,-6416,-537,-254,994
10,520,960172,-1153,-15573,-6556,-544,-206,1004
10,521,960177,-1409,-15535,-6580,-552,-164,1014
10,522,960182,-1624,-15539,-6315,-560,-157,1025
10,523,960187,-1642,-15626,-6176,-570,-181,1039
10,524,960192,-1539,-15767,-6193,-581,-206,1054
10,525,960197,-1545,-15725,-6238,-585,-216,1063
10,526,960202,-1732,-15657,-6390,-587,-224,1071
10,527,960207,-1871,-15572,-6691,-586,-234,1083
10,528,960212,-1862,-15595,-6921,-589,-235,1094
10,529,960217,-1789,-15698,-6994,-604,-218,1098
10,530,960222,-1865,-15694,-6708,-610,-192,1101
10,531,960227,-2077,-15682,-6556,-605,-181,1105
10,532,960232,-2184,-15692,-6826,-605,-184,1106
10,533,960237,-2222,-15728,-7196,-606,-191,1114
10,534,960242,-2249,-15798,-7108,-611,-186,1119
10,535,960247,-2353,-15851,-6938,-618,-178,1117
10,536,960252,-2397,-15854,-7112,-615,-159,1116
10,537,960257,-2214,-15797,-7471,-610,-122,1116
10,538,960262,-2364,-15773,-7486,-614,-73,1112
10,539,960267,-2675,-15732,-7305,-614,-44,1106
10,540,960272,-2896,-15649,-7147,-617,-21,1102
10,541,960277,-2616,-15523,-7226,-619,-1,1097
10,542,960282,-2401,-15469,-7202,-619,36,1090
10,543,960287,-2524,-15390,-6978,-612,66,1080
10,544,960292,-2837,-15252,-6845,-609,46,1070
10,545,960297,-2901,-15235,-7005,-605,-2,1066
10,546,960302,-2722,-15099,-7151,-603,-23,1061
10,547,960307,-2689,-14961,-7162,-598,4,1045
10,548,960312,-3051,-14908,-6914,-593,30,1033
10,549,960317,-2963,-14947,-7467,-578,9,1028
10,550,960322,-3012,-14939,-7067,-575,11,1016
10,551,960327,-2983,-15059,-7083,-571,5,1001
10,552,960332,-3009,-15043,-7448,-570,8,980
10,553,960337,-2985,-14832,-7257,-568,51,966
10,554,960342,-3056,-14822,-7285,-557,86,951
10,555,960347,-3191,-14792,-7212,-552,112,930
10,556,960352,-3160,-14806,-7033,-548,109,911
10,557,960357,-3085,-14694,-7037,-542,89,895
10,558,960362,-2963,-14624,-7231,-531,88,877
10,559,960367,-2957,-14507,-7448,-520,116,853
10,560,960372,-2945,-14339,-7301,-511,147,833
10,561,960377,-2976,-14139,-7305,-502,153,815
10,562,960382,-3025,-14090,-7109,-496,153,792
10,563,960387,-3086,-13955,-6949,-481,141,770
10,564,960392,-3118,-13934,-6961,-466,113,748
10,565,960397,-3420,-13972,-7122,-452,75,728
10,566,960402,-3692,-13908,-7074,-438,42,706
10,567,960407,-3725,-14114,-6531,-406,12,708
10,568,960412,-3094,-14280,-7717,-378,-34,695
10,569,960417,-2897,-14240,-7444,-372,31,659
10,570,960422,-3383,-14312,-6883,-360,68,627
10,571,960427,-3542,-14458,-8024,-364,47,592
10,572,960432,-3443,-14244,-7422,-377,108,551
10,573,960437,-3230,-14287,-6767,-368,149,526
10,574,960442,-3073,-14260,-7543,-352,143,499
10,575,960447,-3114,-14107,-7115,-336,178,460
10,576,960452,-3226,-14070,-7279,-322,166,431
10,577,960457,-3043,-14051,-7545,-311,159,408
10,578,960462,-2756,-13775,-7049,-281,168,350
10,579,960467,-2853,-13559,-6966,-255,163,322
10,580,960472,-2921,-13457,-7095,-225,128,303
10,581,960477,-2951,-13296,-6902,-210,87,274
10,582,960482,-2943,-13334,-6888,-187,37,255
10,583,960487,-2876,-13458,-7143,-164,8,233
10,584,960492,-2897,-13515,-7055,-144,13,206
10,585,960497,-3068,-13606,-7038,-122,17,179
10,586,960502,-3171,-13850,-7120,-109,19,153
10,587,960507,-2926,-13978,-7162,-98,37,123
10,588,960512,-2575,-14039,-7117,-83,79,94
10,589,960517,-2584,-14022,-6801,-66,133,59
10,590,960522,-2822,-14074,-6679,-44,155,28
10,591,960527,-3029,-14113,-6612,-23,149,1
10,592,960532,-2863,-14089,-6618,-7,127,-26
10,593,960537,-2550,-14079,-6511,12,116,-55
10,594,960542,-2516,-14065,-6364,32,109,-84
10,595,960547,-2572,-13975,-6470,54,83,-119
10,596,960552,-2618,-13876,-6817,80,51,-147
10,597,960557,-2619,-13755,-6900,104,27,-168
10,598,960562,-2570,-13655,-6833,123,7,-199
10,599,960567,-2664,-13660,-6780,146,-4,-231
10,600,960572,-2983,-13746,-6918,173,-22,-260
10,601,960594,-2756,-14067,-7682,253,29,-380
10,602,960595,-2617,-14097,-7467,267,105,-416
10,603,960596,-2617,-14097,-7467,267,105,-416
10,604,960596,-2617,-14097,-7467,267,105,-416
10,605,960598,-2617,-14097,-7467,267,105,-416
10,606,960602,-2731,-14074,-7344,295,160,-450
10,607,960607,-2808,-14080,-7170,315,193,-482
10,608,960612,-2891,-13944,-6861,336,200,-510
10,609,960617,-2845,-14185,-6617,363,192,-529
10,610,960622,-2631,-14196,-6631,389,178,-559
10,611,960627,-2546,-14077,-6493,409,167,-587
10,612,960632,-2479,-14136,-6631,432,140,-616
10,613,960637,-2472,-14179,-6655,458,105,-642
10,614,960642,-2440,-14169,-6618,477,76,-677
10,615,960647,-2431,-14239,-6877,494,58,-708
10,616,960652,-2447,-14231,-6701,521,60,-738
10,617,960657,-2364,-14326,-7012,545,48,-765
10,618,960662,-2464,-14339,-6944,556,59,-797
10,619,960667,-2583,-14450,-6739,579,64,-826
10,620,960672,-2410,-14494,-7213,599,65,-853
10,621,960677,-2345,-14611,-6783,610,105,-881
10,622,960682,-2404,-14698,-6958,630,118,-911
10,623,960687,-2556,-14751,-6709,652,138,-934
10,624,960692,-2502,-14797,-6992,674,136,-952
10,625,960697,-2222,-14929,-7222,687,164,-973
10,626,960702,-2067,-14934,-6963,696,220,-1005
10,627,960707,-2082,-14991,-6662,719,258,-1031
10,628,960712,-2156,-15030,-6657,737,262,-1053
10,629,960717,-2029,-14993,-6783,755,254,-1075
10,630,960722,-1798,-15030,-6861,773,256,-1096
10,631,960727,-1730,-15044,-6592,790,278,-1119
10,632,960732,-1686,-15037,-6407,805,292,-1140
10,633,960737,-1627,-15037,-6368,824,285,-1159
10,634,960742,-1689,-15194,-6200,842,270,-1176
10,635,960747,-1846,-15492,-6225,856,242,-1195
10,636,960752,-1812,-15712,-6437,870,220,-1210
10,637,960757,-1493,-15687,-6597,879,237,-1229
10,638,960762,-1261,-15663,-6874,893,299,-1250
10,639,960767,-1201,-15654,-6876,906,382,-1269
10,640,960772,-1312,-15693,-6650,913,452,-1287
10,641,960777,-1273,-15783,-6595,918,502,-1306
10,642,960782,-1131,-15867,-6427,925,551,-1322
10,643,960787,-997,-15871,-6176,935,603,-1338
10,644,960792,-898,-15851,-6053,953,640,-1353
10,645,960797,-813,-15889,-6006,960,660,-1364
10,646,960802,-675,-15928,-6070,967,680,-1376
10,647,960807,-444,-15915,-5771,971,725,-1393
10,648,960812,-480,-16045,-5356,982,764,-1399
10,649,960817,-466,-16227,-5148,990,777,-1403
10,650,960822,18,-16200,-5032,989,773,-1407
10,651,960827,468,-16064,-4285,984,764,-1409
10,652,960832,790,-16180,-3865,997,702,-1411
10,653,960837,944,-16107,-3600,1000,639,-1407
10,654,960842,1267,-16107,-3916,1001,544,-1396
10,655,960847,1619,-16158,-3598,999,476,-1390
10,656,960852,1564,-16178,-3476,994,404,-1388
10,657,960857,1455,-16146,-3789,1002,336,-1385
10,658,960862,1468,-16080,-4247,1003,275,-1377
10,659,960867,1535,-16192,-4738,996,238,-1371
10,660,960872,1479,-16308,-4836,986,240,-1370
10,661,960877,1444,-16451,-4726,979,258,-1363
10,662,960882,1592,-16519,-4769,969,294,-1361
10,663,960887,1699,-16564,-4489,962,330,-1356
10,664,960892,1673,-16875,-4531,951,336,-1347
10,665,960897,1755,-17078,-3785,932,324,-1337
10,666,960902,2249,-17077,-3454,918,275,-1324
10,667,960907,2791,-17072,-3442,910,238,-1316
10,668,960912,2772,-17047,-3647,910,210,-1308
10,669,960917,2589,-17070,-3612,902,178,-1296
10,670,960922,2688,-16960,-3757,880,115,-1277
10,671,960927,3024,-17025,-3537,868,69,-1260
10,672,960932,3093,-17090,-3595,860,37,-1248
10,673,960937,2977,-17005,-3586,854,16,-1234
10,674,960942,2987,-16743,-3802,843,-19,-1221
10,675,960947,3135,-16648,-4286,826,-53,-1208
10,676,960952,3157,-16555,-4358,807,-47,-1197
10,677,960957,2956,-16432,-3802,795,-44,-1185
10,678,960962,2345,-16534,-4594,790,-76,-1172
10,679,960967,9080,-26910,-7020,846,65,-1173
10,680,960972,-14406,-25882,-29613,947,1312,-1110
10,681,960977,-32768,-15093,-32768,212,2362,-312
10,682,960982,-20094,-4001,810,-731,3158,696
10,683,960987,27319,-10055,32767,-1130,3140,895
10,684,960992,23987,-19621,32767,-588,2281,679
10,685,960997,-7448,-17424,-519,333,-1541,208
10,686,961002,-26460,-10607,-32768,379,-5905,427
10,687,961007,-2576,-10844,-28489,-221,-6892,851
10,688,961012,25136,-13535,-22385,-420,-4250,827
10,689,961017,16981,-16686,-7664,-394,1164,466
10,690,961022,-10157,-14548,-3015,-300,2928,95
10,691,961027,-18695,-12008,-16702,-111,1201,302
10,692,961032,-2315,-12468,-8118,-274,146,596
10,693,961037,13465,-14450,6558,-395,192,558
10,694,961042,9886,-15890,5971,-353,533,340
10,695,961047,-5267,-14781,-2801,-240,428,181
10,696,961052,-9664,-14601,-10361,-135,-395,318
10,697,961057,162,-14650,-9964,-196,-942,488
10,698,961062,8366,-16628,-1961,-313,-620,447
10,699,961067,4896,-17715,-1472,-340,-56,282
10,700,961072,-1890,-17251,-6492,-237,165,179
10,701,961077,-4589,-16112,-11442,-165,55,219
10,702,961082,354,-16136,-9119,-221,155,297
10,703,961087,5548,-16791,-3097,-338,500,281
10,704,961092,4760,-17294,2319,-367,642,190
10,705,961097,944,-16913,-1705,-257,263,139
10,706,961102,-1101,-16881,-5563,-155,-100,170
10,707,961107,1054,-17150,-5679,-195,-231,213
10,708,961112,4052,-17555,-5570,-278,-159,209
10,709,961117,3911,-17428,-1553,-299,80,158
10,710,961122,2456,-17002,-2712,-236,71,120
10,711,961127,1493,-16693,-6621,-179,42,118
10,712,961132,2204,-16475,-7583,-199,150,125
10,713,961137,3150,-16318,-4436,-257,313,125
10,714,961142,3608,-16347,-1727,-268,338,109
10,715,961147,3109,-16385,-2055,-228,285,91
10,716,961152,2305,-16392,-4374,-180,235,77
10,717,961157,1936,-16167,-4883,-173,217,81
10,718,961162,2389,-16027,-3294,-198,184,91
10,719,961167,3259,-16019,-2307,-211,131,85
10,720,961172,3498,-15984,-3095,-189,127,67
10,721,961177,3012,-15778,-4331,-158,175,50
10,722,961182,2327,-15501,-4180,-148,203,49
10,723,961187,2509,-15367,-3452,-156,157,60
10,724,961192,3361,-15377,-3112,-165,109,61
10,725,961197,3755,-15351,-2939,-156,124,47
10,726,961202,2570,-15072,-2974,-112,105,35
10,727,961207,2677,-15111,-2817,-109,-9,46
10,728,961212,3172,-15252,-2826,-110,-108,48
10,729,961217,3345,-15356,-2550,-102,-139,39
10,730,961222,2857,-15287,-2907,-83,-144,26
10,731,961227,2304,-15267,-3482,-64,-149,23
10,732,961232,2278,-15199,-3898,-61,-159,26
10,733,961237,2665,-15079,-3785,-73,-139,24
10,734,961242,3070,-14947,-3378,-77,-80,17
10,735,961247,3047,-14777,-3291,-60,-4,7
10,736,961252,2721,-14723,-3239,-47,39,-4
10,737,961257,2333,-14786,-3174,-39,23,-5
10,738,961262,2351,-14820,-2873,-41,-32,-4
10,739,961267,2573,-14847,-2609,-37,-89,-5
10,740,961272,2637,-14887,-2837,-28,-108,-10
10,741,961277,2595,-14859,-3266,-16,-112,-14
10,742,961282,2626,-14818,-3472,-13,-118,-14
10,743,961287,2736,-14888,-3265,-14,-131,-13
10,744,961292,2868,-14998,-3079,-10,-148,-15
10,745,961297,2707,-15126,-3076,4,-151,-21
10,746,961302,2261,-15336,-3171,16,-156,-23
10,747,961307,1847,-15436,-3437,24,-182,-25
10,748,961312,1945,-15504,-3821,28,-210,-23
10,749,961317,2223,-15534,-4006,27,-192,-25
10,750,961322,2265,-15593,-4156,32,-137,-32
10,751,961327,2074,-15647,-4300,44,-64,-44
10,752,961332,1933,-15695,-4443,50,-7,-49
10,753,961337,1970,-15701,-4381,48,38,-51
10,754,961342,2039,-15773,-4042,48,79,-53
10,755,961347,1942,-15820,-3799,51,112,-62
10,756,961352,1919,-15834,-3689,64,129,-66
10,757,961357,2180,-15785,-3746,69,128,-61
10,758,961362,2406,-15774,-3605,70,120,-60
10,759,961367,2463,-15760,-3307,78,95,-60
10,760,961372,2312,-15759,-3248,85,52,-61
10,761,961377,2172,-15813,-3485,94,4,-59
10,762,961382,2159,-15954,-3915,104,-33,-56
10,763,961387,2245,-16041,-4064,107,-47,-51
10,764,961392,2417,-16055,-4092,105,-40,-51
10,765,961397,2455,-16070,-4074,108,-15,-53
10,766,961402,2305,-16083,-4310,115,21,-57
10,767,961407,2120,-16069,-4411,119,54,-56
10,768,961412,2157,-16078,-4273,116,86,-55
10,769,961417,2355,-16068,-4050,114,111,-51
10,770,961422,2378,-16042,-3774,119,121,-50
10,771,961427,2308,-16064,-3744,125,114,-52
10,772,961432,2184,-15995,-3839,129,99,-50
10,773,961437,2189,-15890,-3880,131,80,-46
10,774,961442,2265,-15825,-3962,134,65,-43
10,775,961447,2349,-15809,-3895,135,63,-41
10,776,961452,2440,-15755,-3876,134,57,-38
10,777,961457,2445,-15706,-3791,138,47,-36
10,778,961462,2356,-15705,-3806,145,27,-33
10,779,961467,2229,-15794,-3968,145,5,-30
10,780,961472,2266,-15844,-4077,142,-9,-29
10,781,961477,2308,-15755,-4080,138,-9,-27
10,782,961482,2241,-15669,-4174,137,1,-25
10,783,961487,2288,-15620,-4274,139,15,-26
10,784,961492,2279,-15578,-4264,140,30,-22
10,785,961497,2253,-15588,-4050,138,39,-23
10,786,961502,2222,-15593,-4054,138,43,-23
10,787,961507,2272,-15592,-3989,138,48,-21
10,788,961512,2187,-15619,-4085,136,46,-17
10,789,961517,2175,-15600,-4055,133,44,-17
10,790,961522,2154,-15581,-3966,131,30,-17
10,791,961527,2192,-15546,-3998,130,27,-14
10,792,961532,2238,-15564,-3998,131,30,-13
10,793,961537,2195,-15609,-3968,133,30,-14
10,794,961542,2091,-15631,-3878,132,20,-12
10,795,961547,2157,-15656,-3841,131,-3,-8
10,796,961552,2364,-15694,-3758,126,-18,-4
10,797,961557,2436,-15780,-3645,126,-17,-4
10,798,961562,2420,-15878,-3554,130,-30,-3
10,799,961567,2279,-15917,-3715,121,-85,3
10,800,961572,2273,-15951,-3874,119,-101,4
10,801,961577,2355,-16008,-3875,116,-93,3
10,802,961582,2288,-16011,-3808,113,-75,5
10,803,961587,2323,-16050,-4091,113,-66,7
10,804,961592,2352,-15985,-4116,108,-45,3
10,805,961597,2337,-15913,-3934,102,-27,4
10,806,961602,2187,-16014,-3809,101,-13,7
10,807,961607,2192,-16088,-3664,96,-2,6
10,808,961612,2294,-16053,-3651,92,-2,7
10,809,961617,2343,-15987,-3616,88,-7,10
10,810,961622,2358,-15947,-3488,84,-20,10
10,811,961627,2302,-15946,-3566,85,-44,9
10,812,961632,2216,-15977,-3656,82,-66,14
10,813,961637,2273,-15964,-3784,80,-80,17
10,814,961642,2242,-15955,-3956,78,-81,17
10,815,961647,2252,-15901,-3982,75,-73,16
10,816,961652,2226,-15900,-4065,75,-64,15
10,817,961657,2094,-15987,-4110,70,-50,13
10,818,961662,2085,-15997,-4109,68,-35,14
10,819,961667,2155,-15980,-4011,62,-21,15
10,820,961672,2154,-16021,-3930,61,-8,15
10,821,961677,2142,-16017,-3856,56,-4,9
10,822,961682,2124,-15957,-3893,52,-4,8
10,823,961687,2172,-15973,-3852,53,-3,11
10,824,961692,2233,-15946,-3924,48,-5,10
10,825,961697,2131,-15925,-3861,47,5,8
10,826,961702,2142,-15883,-3882,45,10,5
10,827,961707,2164,-15810,-3905,42,13,7
10,828,961712,2259,-15831,-3827,40,12,9
10,829,961717,2243,-15824,-3703,40,9,8
10,830,961722,2207,-15825,-3649,37,-7,6
10,831,961727,2146,-15823,-3708,37,-27,7
10,832,961732,2171,-15802,-3805,34,-41,5
10,833,961737,2129,-15840,-3952,33,-44,3
10,834,961742,2154,-15901,-3916,32,-41,7
10,835,961747,2216,-15917,-3737,23,-35,7
10,836,961752,2132,-15975,-3701,20,-33,2
10,837,961757,2001,-16029,-3831,20,-31,-1
10,838,961762,1960,-15984,-3976,20,-22,0
10,839,961767,2112,-16009,-4047,16,-8,1
