event_id,seq,ts_ms,ax,ay,az,gx,gy,gz
6,0,787672,2014,-16289,-1065,-94,201,-13
6,1,787677,2253,-16103,-1222,-91,167,-7
6,2,787682,2728,-16245,-1007,-83,143,-3
6,3,787687,2680,-16186,-1307,-80,119,0
6,4,787692,2413,-16247,-944,-82,100,-2
6,5,787697,2191,-16316,-1216,-78,65,3
6,6,787702,1888,-16197,-1331,-77,50,10
6,7,787707,2031,-16335,-1266,-76,41,17
6,8,787712,2035,-16262,-1474,-74,36,17
6,9,787717,2000,-16370,-1088,-75,30,21
6,10,787722,2136,-16260,-1119,-73,-2,21
6,11,787727,1884,-16229,-1312,-69,-29,26
6,12,787732,1779,-16347,-680,-71,-34,25
6,13,787737,1736,-16113,-1657,-69,-55,24
6,14,787742,1617,-16253,-1775,-62,-35,28
6,15,787747,1883,-16694,-1922,-58,-37,27
6,16,787752,1432,-16426,-2350,-58,-63,25
6,17,787757,1327,-16429,-1885,-62,-103,27
6,18,787762,1277,-16635,-1286,-56,-152,30
6,19,787767,572,-16103,-1581,-52,-190,27
6,20,787772,1407,-16210,-1131,-47,-200,26
6,21,787777,2052,-16355,-1672,-31,-208,32
6,22,787782,1962,-16087,-1693,-34,-219,34
6,23,787787,2565,-16555,-1135,-32,-277,31
6,24,787792,2133,-16185,-1560,-25,-358,37
6,25,787797,2165,-16272,-1599,-20,-398,49
6,26,787802,2296,-16312,-1614,-13,-419,56
6,27,787807,2010,-16181,-1362,-16,-436,58
6,28,787812,1907,-16253,-940,-9,-470,60
6,29,787817,1724,-16283,-1400,5,-514,60
6,30,787822,1607,-16351,-1448,4,-514,68
6,31,787827,1712,-16147,-1711,5,-515,72
6,32,787832,2114,-16171,-1398,8,-508,73
6,33,787837,2278,-16361,-1029,12,-522,71
6,34,787842,2055,-16278,-1374,13,-566,72
6,35,787847,1935,-16343,-1609,14,-588,78
6,36,787852,1655,-16358,-1592,11,-575,81
6,37,787857,1319,-16352,-1513,5,-554,83
6,38,787862,1153,-16501,-1388,2,-528,83
6,39,787867,906,-16410,-1743,3,-502,82
6,40,787872,850,-16418,-2061,1,-456,77
6,41,787877,1103,-16478,-2261,-4,-387,68
6,42,787882,1332,-16469,-2458,-9,-312,66
6,43,787887,1732,-16437,-2350,-22,-236,63
6,44,787892,1935,-16271,-2345,-27,-170,57
6,45,787897,2152,-16240,-2375,-28,-99,46
6,46,787902,2286,-16324,-2423,-30,-17,42
6,47,787907,2192,-16361,-2543,-38,69,36
6,48,787912,1897,-16333,-2536,-47,146,34
6,49,787917,1557,-16346,-2499,-50,204,28
6,50,787922,1350,-16420,-2609,-47,252,26
6,51,787927,1361,-16443,-2528,-51,308,18
6,52,787932,1434,-16433,-2431,-54,358,18
6,53,787937,1427,-16421,-1933,-57,400,17
6,54,787942,1381,-16332,-1504,-62,413,15
6,55,787947,1300,-16238,-1245,-61,417,11
6,56,787952,1154,-16246,-1169,-59,422,14
6,57,787957,930,-16374,-1143,-58,432,10
6,58,787962,647,-16466,-1499,-61,449,9
6,59,787967,829,-16474,-1668,-65,459,9
6,60,787972,940,-16468,-1490,-70,469,4
6,61,787977,771,-16383,-1482,-72,466,-2
6,62,787982,678,-16418,-1542,-73,461,-7
6,63,787987,992,-16415,-1802,-69,470,-8
6,64,787992,1469,-16340,-1942,-71,503,-9
6,65,787997,1877,-16269,-1859,-74,529,-9
6,66,788002,2128,-16239,-1760,-73,533,-9
6,67,788007,2094,-16289,-1673,-69,514,-11
6,68,788012,1993,-16313,-1701,-67,492,-11
6,69,788017,1780,-16325,-1637,-68,488,-6
6,70,788022,1745,-16335,-1476,-72,496,-5
6,71,788027,1641,-16293,-1226,-71,504,-2
6,72,788032,1546,-16313,-1213,-69,497,2
6,73,788037,1324,-16331,-1244,-71,473,0
6,74,788042,1069,-16357,-1286,-70,445,2
6,75,788047,925,-16315,-1293,-71,423,-2
6,76,788052,839,-16283,-1274,-70,416,-3
6,77,788057,1016,-16370,-1237,-67,407,-3
6,78,788062,1147,-16329,-1401,-65,398,-4
6,79,788067,1210,-16331,-1502,-62,381,-7
6,80,788072,1268,-16386,-1549,-60,357,-8
6,81,788077,1220,-16388,-1620,-57,336,-8
6,82,788082,1170,-16412,-1666,-56,322,-9
6,83,788087,1182,-16405,-1717,-55,314,-8
6,84,788092,1153,-16428,-1722,-54,308,-8
6,85,788097,1194,-16399,-1665,-55,309,-12
6,86,788102,1334,-16316,-1590,-58,311,-12
6,87,788107,1557,-16304,-1466,-61,318,-13
6,88,788112,1658,-16269,-1398,-62,326,-16
6,89,788117,1744,-16274,-1427,-58,327,-17
6,90,788122,1816,-16288,-1500,-59,323,-14
6,91,788127,1826,-16247,-1590,-59,313,-15
6,92,788132,1785,-16218,-1585,-57,297,-15
6,93,788137,1747,-16322,-1571,-55,282,-14
6,94,788142,1640,-16298,-1547,-53,266,-12
6,95,788147,1475,-16317,-1600,-55,254,-11
6,96,788152,1383,-16329,-1507,-51,248,-12
6,97,788157,1431,-16385,-1602,-48,232,-10
6,98,788162,1471,-16291,-1532,-51,231,-10
6,99,788167,1532,-16298,-1570,-49,231,-7
6,100,788172,1588,-16356,-1638,-50,227,-9
6,101,788177,1672,-16323,-1663,-48,217,-9
6,102,788182,1642,-16317,-1564,-48,206,-10
6,103,788187,1560,-16311,-1623,-46,197,-11
6,104,788192,1536,-16284,-1578,-48,199,-10
6,105,788197,1595,-16282,-1604,-49,196,-8
6,106,788202,1811,-16286,-1579,-49,199,-7
6,107,788207,2016,-16258,-1468,-49,204,-8
6,108,788212,2066,-16204,-1514,-46,198,-5
6,109,788217,2140,-16214,-1559,-43,187,-2
6,110,788222,2132,-16262,-1607,-43,167,1
6,111,788227,2013,-16298,-1668,-42,147,3
6,112,788232,1801,-16276,-1715,-40,130,6
6,113,788237,1685,-16278,-1802,-38,116,7
6,114,788242,1672,-16319,-1885,-33,107,10
6,115,788247,1796,-16286,-2017,-33,111,14
6,116,788252,1840,-16340,-1995,-31,117,17
6,117,788257,1767,-16344,-1971,-33,112,14
6,118,788262,1569,-16306,-1952,-31,102,10
6,119,788267,1433,-16290,-2017,-29,100,10
6,120,788272,1518,-16338,-2180,-25,119,11
6,121,788277,1591,-16381,-2205,-27,147,13
6,122,788282,1713,-16357,-2185,-30,165,12
6,123,788287,1775,-16305,-2025,-31,167,9
6,124,788292,1769,-16298,-1907,-29,165,6
6,125,788297,1837,-16301,-1852,-27,165,8
6,126,788302,1916,-16278,-1793,-25,174,10
6,127,788307,1937,-16247,-1722,-25,177,9
6,128,788312,1897,-16229,-1682,-22,167,9
6,129,788317,1958,-16277,-1650,-22,145,14
6,130,788322,1902,-16288,-1575,-22,126,17
6,131,788327,1799,-16225,-1508,-20,107,14
6,132,788332,1637,-16301,-1445,-15,64,21
6,133,788337,1635,-16255,-1551,-11,43,24
6,134,788342,1602,-16303,-1639,-7,23,26
6,135,788347,1490,-16361,-1657,-7,4,28
6,136,788352,1393,-16381,-1704,-5,-15,27
6,137,788357,1307,-16349,-1862,-6,-30,30
6,138,788362,1341,-16317,-1858,-5,-31,30
6,139,788367,1487,-16345,-1920,-4,-22,27
6,140,788372,1568,-16320,-1960,-3,-8,26
6,141,788377,1490,-16329,-1900,-4,4,21
6,142,788382,1424,-16352,-1832,-7,11,17
6,143,788387,1454,-16329,-1813,-8,21,14
6,144,788392,1553,-16306,-1856,-8,41,16
6,145,788397,1716,-16302,-1733,-8,62,15
6,146,788402,1899,-16268,-1692,-10,71,13
6,147,788407,1977,-16244,-1559,-10,68,14
6,148,788412,1973,-16252,-1461,-9,54,18
6,149,788417,1894,-16181,-1232,-10,44,16
6,150,788422,1705,-16162,-1237,-14,36,17
6,151,788427,1597,-16250,-1264,-10,28,19
6,152,788432,1607,-16318,-1410,-8,22,20
6,153,788437,1530,-16328,-1493,-10,17,22
6,154,788442,1458,-16328,-1394,-13,2,23
6,155,788447,1256,-16310,-1353,-16,-17,20
6,156,788452,1164,-16259,-1387,-16,-26,18
6,157,788457,1263,-16320,-1501,-13,-22,19
6,158,788462,1322,-16336,-1579,-14,-11,18
6,159,788467,1360,-16354,-1646,-15,-4,16
6,160,788472,1372,-16332,-1717,-16,-6,16
6,161,788477,1391,-16345,-1748,-17,-13,13
6,162,788482,1344,-16330,-1838,-17,-11,13
6,163,788487,1374,-16319,-1765,-19,-1,9
6,164,788492,1522,-16267,-1742,-19,8,10
6,165,788497,1614,-16251,-1693,-20,13,10
6,166,788502,1675,-16296,-1677,-18,14,7
6,167,788507,1701,-16273,-1629,-17,9,7
6,168,788512,1715,-16266,-1561,-17,-1,7
6,169,788517,1694,-16267,-1470,-16,-11,11
6,170,788522,1756,-16242,-1500,-16,-24,16
6,171,788527,1887,-16234,-1515,-17,-35,18
6,172,788532,1795,-16240,-1464,-15,-51,20
6,173,788537,1635,-16250,-1540,-14,-71,18
6,174,788542,1462,-16260,-1592,-13,-83,19
6,175,788547,1315,-16327,-1710,-11,-91,23
6,176,788552,1234,-16358,-1838,-10,-93,21
6,177,788557,1159,-16389,-1870,-11,-86,22
6,178,788562,1096,-16393,-2001,-9,-86,19
6,179,788567,1166,-16395,-2076,-12,-83,16
6,180,788572,1139,-16402,-2129,-14,-72,11
6,181,788577,1186,-16376,-2129,-12,-53,10
6,182,788582,1352,-16338,-2174,-13,-25,7
6,183,788587,1531,-16323,-2125,-15,-4,5
6,184,788592,1727,-16322,-2077,-14,15,4
6,185,788597,1772,-16300,-1992,-12,25,1
6,186,788602,1743,-16262,-1904,-14,30,1
6,187,788607,1746,-16271,-1809,-15,28,3
6,188,788612,1719,-16252,-1652,-14,25,3
6,189,788617,1722,-16288,-1626,-16,20,6
6,190,788622,1692,-16264,-1592,-13,7,9
6,191,788627,1810,-16317,-1540,-10,-9,11
6,192,788632,1637,-16243,-1585,-10,-35,13
6,193,788637,1481,-16245,-1529,-10,-63,15
6,194,788642,1362,-16342,-1614,-3,-90,16
6,195,788647,1188,-16337,-1711,-1,-107,15
6,196,788652,1172,-16313,-1744,0,-121,13
6,197,788657,1131,-16340,-1757,-2,-129,12
6,198,788662,1099,-16291,-1724,1,-146,13
6,199,788667,1040,-16369,-1795,2,-161,12
6,200,788672,907,-16372,-2001,7,-168,6
6,201,788677,932,-16397,-2129,8,-165,7
6,202,788682,1138,-16431,-2179,9,-154,6
6,203,788687,1336,-16346,-2196,7,-137,3
6,204,788692,1516,-16312,-2104,5,-129,1
6,205,788697,1629,-16285,-2054,4,-114,-4
6,206,788702,1662,-16281,-1981,6,-102,-2
6,207,788707,1719,-16297,-1946,7,-89,-2
6,208,788712,1685,-16320,-1895,4,-82,-5
6,209,788717,1642,-16304,-1872,6,-86,-4
6,210,788722,1600,-16295,-1798,9,-89,-2
6,211,788727,1531,-16267,-1740,9,-91,-1
6,212,788732,1515,-16283,-1746,7,-89,0
6,213,788737,1372,-16225,-1723,10,-89,0
6,214,788742,1359,-16277,-1714,9,-92,-1
6,215,788747,1342,-16349,-1784,11,-94,1
6,216,788752,1312,-16334,-1877,10,-88,-6
6,217,788757,1362,-16327,-1965,9,-79,-3
6,218,788762,1332,-16337,-1941,7,-64,-5
6,219,788767,1274,-16349,-1888,7,-55,-11
6,220,788772,1332,-16351,-1911,7,-37,-13
6,221,788777,1391,-16306,-2012,8,-16,-13
6,222,788782,1547,-16310,-2002,7,6,-16
6,223,788787,1674,-16290,-1962,4,26,-16
6,224,788792,1719,-16281,-1897,3,33,-15
6,225,788797,1683,-16308,-1839,3,31,-16
6,226,788802,1663,-16266,-1768,5,26,-17
6,227,788807,1617,-16293,-1681,2,27,-17
6,228,788812,1533,-16255,-1637,1,30,-16
6,229,788817,1585,-16263,-1572,2,30,-13
6,230,788822,1675,-16318,-1655,5,23,-11
6,231,788827,1649,-16264,-1682,8,9,-9
6,232,788832,1632,-16293,-1620,6,-7,-6
6,233,788837,1539,-16269,-1579,5,-22,-10
6,234,788842,1438,-16303,-1629,6,-33,-6
6,235,788847,1436,-16333,-1731,7,-37,-3
6,236,788852,1484,-16302,-1777,10,-32,-5
6,237,788857,1575,-16304,-1803,7,-23,-4
6,238,788862,1576,-16300,-1765,6,-19,-4
6,239,788867,1535,-16293,-1749,6,-19,-9
6,240,788872,1431,-16322,-1749,4,-15,-12
6,241,788877,1448,-16312,-1723,3,-5,-13
6,242,788882,1475,-16274,-1768,1,12,-11
6,243,788887,1502,-16288,-1763,1,25,-13
6,244,788892,1522,-16314,-1684,2,26,-13
6,245,788897,1465,-16317,-1678,-1,21,-12
6,246,788902,1376,-16285,-1642,0,10,-14
6,247,788907,1325,-16283,-1636,2,3,-13
6,248,788912,1398,-16270,-1666,1,8,-15
6,249,788917,1466,-16297,-1682,0,11,-15
6,250,788922,1526,-16313,-1702,1,9,-14
6,251,788927,1510,-16342,-1737,2,2,-14
6,252,788932,1537,-16320,-1775,3,-12,-15
6,253,788937,1583,-16274,-1763,3,-16,-16
6,254,788942,1623,-16259,-1767,-1,-15,-13
6,255,788947,1674,-16263,-1756,1,-14,-12
6,256,788952,1660,-16294,-1768,2,-16,-10
6,257,788957,1586,-16321,-1802,5,-23,-14
6,258,788962,1496,-16330,-1842,3,-26,-16
6,259,788967,1482,-16315,-1885,2,-26,-14
6,260,788972,1514,-16317,-1881,0,-19,-11
6,261,788977,1619,-16276,-1829,3,-10,-10
6,262,788982,1617,-16274,-1828,1,-4,-13
6,263,788987,1565,-16274,-1825,3,-5,-12
6,264,788992,1583,-16290,-1787,3,-7,-11
6,265,788997,1505,-16308,-1834,2,-8,-15
6,266,789002,1519,-16276,-1784,4,-4,-12
6,267,789007,1597,-16278,-1676,3,3,-12
6,268,789012,1605,-16280,-1587,2,0,-11
6,269,789017,1591,-16271,-1569,2,-6,-11
6,270,789022,1539,-16275,-1637,3,-16,-13
6,271,789027,1442,-16329,-1706,3,-29,-13
6,272,789032,1462,-16336,-1734,1,-36,-10
6,273,789037,1552,-16332,-1728,6,-38,-8
6,274,789042,1570,-16334,-1738,7,-42,-7
6,275,789047,1600,-16316,-1756,6,-46,-9
6,276,789052,1637,-16296,-1809,6,-51,-9
6,277,789057,1697,-16295,-1859,9,-54,-7
6,278,789062,1673,-16308,-1900,10,-63,-3
6,279,789067,1532,-16288,-1877,11,-70,-6
6,280,789072,1451,-16303,-1901,11,-70,-7
6,281,789077,1406,-16321,-1981,8,-62,-6
6,282,789082,1478,-16333,-1978,13,-50,-7
6,283,789087,1491,-16329,-1962,10,-40,-10
6,284,789092,1461,-16295,-1926,9,-34,-9
6,285,789097,1487,-16310,-1922,8,-26,-11
6,286,789102,1511,-16311,-1916,10,-17,-12
6,287,789107,1501,-16301,-1913,8,-6,-15
6,288,789112,1486,-16306,-1821,6,0,-14
6,289,789117,1514,-16313,-1759,9,6,-12
6,290,789122,1525,-16308,-1732,8,8,-13
6,291,789127,1511,-16299,-1723,10,4,-14
6,292,789132,1533,-16304,-1698,8,0,-14
6,293,789137,1527,-16290,-1628,7,-8,-14
6,294,789142,1597,-16271,-1606,9,-14,-13
6,295,789147,1606,-16277,-1654,7,-14,-12
6,296,789152,1626,-16274,-1650,11,-20,-9
6,297,789157,1637,-16296,-1702,8,-29,-11
6,298,789162,1686,-16270,-1691,8,-37,-9
6,299,789167,1667,-16275,-1687,11,-39,-9
6,300,789172,1635,-16250,-1708,12,-41,-10
6,301,789177,1684,-16258,-1695,11,-44,-8
6,302,789182,1689,-16287,-1671,14,-43,-7
6,303,789187,1673,-16269,-1693,12,-46,-8
6,304,789192,1612,-16265,-1700,10,-48,-5
6,305,789197,1518,-16292,-1694,10,-46,-7
6,306,789202,1452,-16331,-1720,11,-35,-9
6,307,789207,1398,-16314,-1818,9,-28,-9
6,308,789212,1433,-16284,-1837,8,-20,-10
6,309,789217,1527,-16288,-1769,9,-11,-13
6,310,789222,1585,-16306,-1731,5,-2,-13
6,311,789227,1558,-16262,-1664,6,7,-10
6,312,789232,1594,-16289,-1643,7,13,-15
6,313,789237,1590,-16317,-1686,5,18,-12
6,314,789242,1585,-16299,-1634,2,18,-11
6,315,789247,1603,-16291,-1610,3,12,-13
6,316,789252,1605,-16274,-1580,6,3,-13
6,317,789257,1606,-16254,-1521,5,-1,-7
6,318,789262,1629,-16248,-1503,4,-6,-9
6,319,789267,1620,-16289,-1542,6,-13,-11
6,320,789272,1611,-16299,-1568,6,-18,-7
6,321,789277,1655,-16273,-1641,5,-24,-7
6,322,789282,1635,-16275,-1648,2,-29,-8
6,323,789287,1613,-16282,-1640,0,-31,-7
6,324,789292,1589,-16312,-1627,4,-34,-6
6,325,789297,1514,-16268,-1673,3,-36,-7
6,326,789302,1534,-16277,-1754,-1,-29,-8
6,327,789307,1502,-16300,-1762,1,-20,-7
6,328,789312,1511,-16317,-1758,0,-10,-5
6,329,789317,1543,-16306,-1734,-1,-2,-10
6,330,789322,1593,-16299,-1713,-1,3,-13
6,331,789327,1639,-16295,-1708,-2,10,-8
6,332,789332,1647,-16280,-1715,-1,14,-7
6,333,789337,1578,-16275,-1708,-3,17,-7
6,334,789342,1561,-16267,-1641,-2,17,-10
6,335,789347,1556,-16301,-1620,-2,13,-7
6,336,789352,1524,-16296,-1593,-4,14,-10
6,337,789357,1495,-16299,-1608,-4,15,-8
6,338,789362,1588,-16307,-1599,-2,12,-4
6,339,789367,1635,-16303,-1619,-3,4,-7
6,340,789372,1731,-16274,-1588,-5,-3,-7
6,341,789377,1715,-16269,-1592,-2,-16,-8
6,342,789382,1618,-16270,-1604,-4,-27,-7
6,343,789387,1560,-16247,-1648,-3,-36,-4
6,344,789392,1587,-16272,-1706,1,-39,-2
6,345,789397,1604,-16308,-1783,2,-36,-3
6,346,789402,1596,-16289,-1823,-2,-30,-1
6,347,789407,1621,-16302,-1796,-5,-28,-5
6,348,789412,1560,-16285,-1805,-1,-26,-5
6,349,789417,1485,-16328,-1860,-2,-21,-4
6,350,789422,1406,-16336,-1845,-2,-18,-5
6,351,789427,1389,-16296,-1828,-4,-11,-8
6,352,789432,1441,-16309,-1848,-4,0,-7
6,353,789437,1527,-16310,-1812,-3,13,-10
6,354,789442,1569,-16309,-1742,-6,14,-10
6,355,789447,1565,-16300,-1672,-3,9,-9
6,356,789452,1494,-16318,-1677,-3,7,-9
6,357,789457,1517,-16336,-1713,-3,3,-10
6,358,789462,1536,-16302,-1679,-3,0,-10
6,359,789467,1614,-16294,-1671,-5,-2,-8
6,360,789472,1675,-16270,-1653,-4,-8,-7
6,361,789477,1713,-16266,-1672,1,-18,-8
6,362,789482,1715,-16242,-1691,-1,-26,-8
6,363,789487,1766,-16251,-1768,-2,-28,-5
6,364,789492,1760,-16272,-1773,-3,-34,-7
6,365,789497,1788,-16305,-1757,-3,-37,-5
6,366,789502,1683,-16298,-1740,-2,-40,-3
6,367,789507,1594,-16282,-1717,-5,-46,0
6,368,789512,1585,-16281,-1751,-3,-49,-1
6,369,789517,1546,-16299,-1810,-2,-46,-1
6,370,789522,1536,-16296,-1800,2,-40,-1
6,371,789527,1534,-16303,-1836,2,-39,-2
6,372,789532,1538,-16304,-1855,-2,-42,-4
6,373,789537,1511,-16290,-1821,-2,-40,-4
6,374,789542,1556,-16273,-1833,0,-35,-5
6,375,789547,1555,-16291,-1853,0,-26,-5
6,376,789552,1475,-16324,-1864,0,-19,-4
6,377,789557,1501,-16350,-1948,0,-13,-7
6,378,789562,1520,-16330,-1892,-2,-8,-5
6,379,789567,1586,-16285,-1822,-1,0,-5
6,380,789572,1661,-16277,-1734,-4,7,-7
6,381,789577,1661,-16278,-1786,-3,4,-6
6,382,789582,1696,-16289,-1762,0,-2,-6
6,383,789587,1641,-16293,-1717,1,-11,-5
6,384,789592,1665,-16277,-1693,2,-23,-5
6,385,789597,1636,-16292,-1710,2,-31,-1
6,386,789602,1599,-16259,-1615,2,-33,2
6,387,789607,1536,-16260,-1628,2,-43,2
6,388,789612,1487,-16272,-1703,2,-46,1
6,389,789617,1479,-16278,-1723,3,-51,4
6,390,789622,1447,-16287,-1743,2,-55,3
6,391,789627,1466,-16283,-1723,3,-56,2
6,392,789632,1508,-16309,-1780,4,-56,-3
6,393,789637,1466,-16336,-1921,4,-52,0
6,394,789642,1485,-16326,-2004,7,-43,-3
6,395,789647,1423,-16361,-2092,3,-34,-3
6,396,789652,1473,-16359,-2013,0,-20,-7
6,397,789657,1507,-16328,-1926,1,-6,-9
6,398,789662,1517,-16310,-1911,-1,6,-9
6,399,789667,1549,-16309,-1862,1,17,-8
6,400,789672,1554,-16313,-1736,-1,28,-9
6,401,789677,1557,-16305,-1674,-2,29,-10
6,402,789682,1568,-16281,-1619,-2,20,-11
6,403,789687,1562,-16288,-1559,0,8,-10
6,404,789692,1592,-16296,-1524,-1,-7,-7
6,405,789697,1628,-16254,-1535,-4,-19,-2
6,406,789702,1677,-16280,-1596,-2,-30,1
6,407,789707,1851,-16261,-1676,-3,-39,1
6,408,789712,2029,-16247,-1739,-1,-44,6
6,409,789717,2045,-16188,-1799,-3,-48,7
6,410,789722,1983,-16248,-1750,-1,-55,5
6,411,789727,1824,-16286,-1854,2,-69,6
6,412,789732,1663,-16312,-1922,5,-74,9
6,413,789737,1646,-16338,-1924,4,-70,11
6,414,789742,1517,-16348,-1943,4,-61,14
6,415,789747,1445,-16312,-2017,5,-54,12
6,416,789752,1438,-16314,-2088,1,-46,8
6,417,789757,1465,-16334,-2209,5,-33,7
6,418,789762,1558,-16318,-2274,6,-19,6
6,419,789767,1586,-16335,-2323,3,-3,4
6,420,789772,1609,-16358,-2317,5,10,4
6,421,789777,1609,-16356,-2264,7,20,1
6,422,789782,1556,-16358,-2201,8,30,1
6,423,789787,1493,-16343,-2075,11,38,2
6,424,789792,1444,-16337,-1976,6,43,4
6,425,789797,1406,-16361,-1963,7,45,4
6,426,789802,1401,-16380,-1848,8,42,2
6,427,789807,1333,-16320,-1713,7,18,5
6,428,789812,1289,-16342,-1621,9,-2,4
6,429,789817,1220,-16327,-1556,10,-28,7
6,430,789822,1202,-16330,-1575,13,-52,9
6,431,789827,1243,-16286,-1697,16,-76,10
6,432,789832,1230,-16400,-1629,22,-106,13
6,433,789837,1023,-16405,-1755,25,-143,11
6,434,789842,856,-16378,-1869,29,-179,10
6,435,789847,858,-16402,-1878,31,-210,13
6,436,789852,755,-16379,-1970,33,-227,9
6,437,789857,727,-16388,-2222,36,-231,8
6,438,789862,860,-16474,-2204,36,-229,6
6,439,789867,964,-16466,-2174,38,-219,4
6,440,789872,1016,-16466,-2176,35,-201,-1
6,441,789877,1036,-16446,-2191,30,-170,-5
6,442,789882,1307,-16315,-2032,22,-125,-5
6,443,789887,1639,-16262,-2013,15,-60,-9
6,444,789892,1632,-16250,-2441,11,37,-12
6,445,789897,1538,-16314,-2759,-1,173,-10
6,446,789902,1554,-16801,-2695,-12,329,-4
6,447,789907,1773,-17301,-2082,-20,463,4
6,448,789912,1529,-17387,-1055,-25,514,8
6,449,789917,1339,-17324,-448,-30,457,14
6,450,789922,1771,-16993,1260,-35,340,27
6,451,789927,-1145,-16656,1084,-33,171,42
6,452,789932,-331,-18219,-1481,-17,22,42
6,453,789937,784,-18506,-2572,-22,-63,89
6,454,789942,3277,-17813,-963,-38,-160,109
6,455,789947,2558,-17060,312,-42,-365,105
6,456,789952,469,-16935,546,-19,-617,98
6,457,789957,-1028,-17023,-2214,10,-779,122
6,458,789962,-382,-17324,-4155,0,-699,153
6,459,789967,1303,-17390,-4256,-42,-499,172
6,460,789972,2332,-17570,-2888,-71,-357,177
6,461,789977,1953,-17540,-2156,-75,-352,173
6,462,789982,1130,-17389,-3010,-66,-372,176
6,463,789987,454,-17107,-3927,-76,-276,184
6,464,789992,340,-16981,-3937,-111,-96,203
6,465,789997,675,-16812,-2570,-148,41,221
6,466,790002,1172,-16666,-1383,-162,27,230
6,467,790007,1398,-16385,-1090,-158,-88,242
6,468,790012,1136,-16142,-1327,-161,-182,253
6,469,790017,523,-15977,-1934,-168,-230,270
6,470,790022,262,-15835,-1978,-189,-253,290
6,471,790027,543,-15733,-2049,-206,-309,311
6,472,790032,994,-15705,-2174,-217,-384,327
6,473,790037,997,-15736,-2587,-227,-434,338
6,474,790042,605,-15745,-3020,-237,-437,348
6,475,790047,265,-15574,-3621,-255,-398,361
6,476,790052,269,-15469,-3635,-279,-326,379
6,477,790057,587,-15458,-3394,-300,-267,396
6,478,790062,758,-15452,-3181,-318,-245,404
6,479,790067,461,-15539,-2870,-334,-244,413
6,480,790072,90,-15617,-3019,-347,-261,427
6,481,790077,104,-15522,-3093,-365,-264,442
6,482,790082,401,-15332,-2923,-385,-254,457
6,483,790087,562,-15340,-2584,-401,-255,474
6,484,790092,380,-15458,-2462,-418,-290,486
6,485,790097,118,-15501,-2609,-427,-362,502
6,486,790102,-119,-15561,-2880,-439,-427,518
6,487,790107,-218,-15564,-3012,-456,-458,536
6,488,790112,-130,-15568,-3394,-473,-471,554
6,489,790117,-192,-15506,-3789,-488,-450,564
6,490,790122,-293,-15593,-3951,-502,-414,574
6,491,790127,-406,-15571,-4187,-521,-376,587
6,492,790132,-295,-15526,-4148,-540,-326,598
6,493,790137,-462,-15608,-3851,-561,-271,612
6,494,790142,-493,-15636,-3693,-579,-237,619
6,495,790147,-480,-15613,-3666,-591,-222,631
6,496,790152,-426,-15594,-3536,-606,-218,644
6,497,790157,-450,-15630,-3434,-618,-231,658
6,498,790162,-590,-15639,-3196,-631,-251,670
6,499,790167,-706,-15662,-3167,-643,-292,683
6,500,790172,-753,-15648,-3556,-659,-382,713
6,501,790177,-721,-15749,-3857,-672,-417,732
6,502,790182,-748,-15806,-4024,-684,-433,743
6,503,790187,-776,-15829,-4160,-699,-427,757
6,504,790192,-822,-15823,-4070,-712,-404,771
6,505,790197,-834,-15756,-4050,-723,-372,782
6,506,790202,-990,-15717,-4073,-733,-341,792
6,507,790207,-1292,-15753,-4192,-739,-325,808
6,508,790212,-1495,-15789,-4231,-745,-325,818
6,509,790217,-1514,-15816,-4234,-753,-330,832
6,510,790222,-1565,-15903,-4306,-761,-332,840
6,511,790227,-1589,-15978,-4481,-770,-334,850
6,512,790232,-1622,-15909,-4521,-776,-329,858
6,513,790237,-1654,-15735,-4558,-783,-314,871
6,514,790242,-1651,-15688,-4526,-785,-299,881
6,515,790247,-1680,-15688,-4348,-787,-295,894
6,516,790252,-1715,-15644,-4080,-792,-311,903
6,517,790257,-1820,-15573,-3810,-792,-351,914
6,518,790262,-1962,-15519,-3786,-790,-410,929
6,519,790267,-2088,-15520,-4007,-784,-470,942
6,520,790272,-2189,-15620,-4331,-778,-517,954
6,521,790277,-2162,-15723,-4600,-782,-547,962
6,522,790282,-2083,-15723,-4893,-782,-554,970
6,523,790287,-2337,-15734,-4970,-778,-533,975
6,524,790292,-2641,-15873,-5211,-778,-503,982
6,525,790297,-2822,-15875,-5382,-779,-459,983
6,526,790302,-2776,-15774,-5615,-776,-417,991
6,527,790307,-2741,-15559,-5495,-779,-349,988
6,528,790312,-2766,-15421,-5101,-781,-288,988
6,529,790317,-2990,-15630,-4754,-772,-266,995
6,530,790322,-3131,-15572,-4825,-767,-281,989
6,531,790327,-3421,-15554,-5018,-763,-319,994
6,532,790332,-3290,-15422,-5140,-756,-336,1002
6,533,790337,-2856,-15417,-5412,-756,-326,1002
6,534,790342,-2612,-15333,-4898,-751,-270,997
6,535,790347,-2871,-15305,-4871,-738,-256,995
6,536,790352,-3369,-15338,-4949,-726,-280,993
6,537,790357,-3669,-15436,-5251,-717,-325,993
6,538,790362,-3722,-15486,-5140,-710,-355,995
6,539,790367,-3583,-15509,-5125,-705,-368,995
6,540,790372,-3476,-15515,-5165,-700,-357,989
6,541,790377,-3540,-15558,-5386,-687,-344,979
6,542,790382,-3642,-15526,-5693,-673,-331,973
6,543,790387,-3870,-15519,-5903,-669,-309,965
6,544,790392,-4014,-15510,-5774,-664,-282,959
6,545,790397,-4025,-15524,-5527,-659,-252,949
6,546,790402,-3885,-15438,-5362,-646,-225,937
6,547,790407,-3914,-15333,-5546,-630,-209,926
6,548,790412,-4166,-15287,-5747,-620,-205,919
6,549,790417,-4380,-15238,-5875,-612,-208,905
6,550,790422,-4337,-15204,-5875,-604,-221,901
6,551,790427,-3929,-15179,-5680,-595,-207,887
6,552,790432,-3790,-15068,-5125,-582,-187,874
6,553,790437,-3966,-15077,-5041,-563,-204,859
6,554,790442,-4305,-15010,-5368,-546,-244,843
6,555,790447,-4564,-14961,-5618,-531,-295,836
6,556,790452,-4552,-14909,-5735,-519,-322,824
6,557,790457,-4441,-14899,-5911,-507,-325,810
6,558,790462,-4273,-14930,-6000,-494,-296,794
6,559,790467,-4288,-14907,-6278,-480,-255,777
6,560,790472,-4417,-14872,-6575,-466,-211,755
6,561,790477,-4594,-14856,-6632,-459,-166,738
6,562,790482,-4639,-14857,-6404,-453,-110,718
6,563,790487,-4507,-14844,-6093,-444,-57,701
6,564,790492,-4297,-14754,-5754,-431,-15,680
6,565,790497,-4360,-14660,-5519,-414,-1,656
6,566,790502,-4607,-14586,-5502,-398,-17,636
6,567,790507,-4742,-14563,-5604,-384,-54,617
6,568,790512,-4599,-14440,-5583,-371,-88,599
6,569,790517,-4324,-14371,-5457,-357,-112,582
6,570,790522,-4190,-14314,-5307,-337,-137,564
6,571,790527,-4169,-14188,-5365,-319,-176,540
6,572,790532,-4327,-14085,-5535,-297,-232,522
6,573,790537,-4554,-13979,-5765,-277,-287,502
6,574,790542,-4925,-14248,-6455,-243,-337,462
6,575,790547,-4597,-14319,-6854,-231,-311,440
6,576,790552,-4174,-14333,-6922,-218,-227,413
6,577,790557,-4178,-14347,-6739,-210,-133,387
6,578,790562,-4423,-14295,-6569,-198,-60,354
6,579,790567,-4837,-14372,-6602,-182,-18,329
6,580,790572,-4902,-14290,-6380,-170,20,301
6,581,790577,-4620,-14290,-6303,-159,57,277
6,582,790582,-4381,-14215,-5845,-145,93,248
6,583,790587,-4382,-14157,-5700,-132,98,218
6,584,790592,-4312,-14022,-5698,-112,81,193
6,585,790597,-4226,-13899,-5722,-93,53,167
6,586,790602,-4072,-13740,-5451,-76,18,142
6,587,790607,-3989,-13674,-5179,-56,-35,119
6,588,790612,-4190,-13616,-5046,-30,-108,93
6,589,790617,-4651,-13587,-5285,-4,-204,67
6,590,790622,-5042,-13754,-5988,16,-283,41
6,591,790627,-4960,-13975,-6743,33,-301,17
6,592,790632,-4363,-14039,-7052,40,-232,-8
6,593,790637,-3700,-14066,-7022,49,-110,-38
6,594,790642,-3660,-14129,-6690,55,18,-78
6,595,790647,-4071,-14054,-6652,69,115,-117
6,596,790652,-4585,-14020,-6699,86,181,-148
6,597,790657,-4774,-14099,-6445,96,236,-175
6,598,790662,-4404,-14125,-6029,106,281,-204
6,599,790667,-3913,-14077,-5353,115,309,-236
6,600,790672,-3668,-14001,-4995,133,296,-269
6,601,790694,-3899,-13967,-5097,217,28,-372
6,602,790695,-3576,-13990,-5090,236,-38,-397
6,603,790696,-3576,-13990,-5090,236,-38,-397
6,604,790697,-3576,-13990,-5090,236,-38,-397
6,605,790698,-3576,-13990,-5090,236,-38,-397
6,606,790702,-3369,-14024,-5196,253,-92,-422
6,607,790707,-3714,-14050,-5562,277,-135,-454
6,608,790712,-4152,-14208,-6388,292,-168,-482
6,609,790717,-4117,-14292,-7039,306,-144,-509
6,610,790722,-3659,-14267,-6951,307,-58,-537
6,611,790727,-3275,-14335,-6518,314,57,-571
6,612,790732,-3326,-14426,-6232,323,156,-606
6,613,790737,-3687,-14489,-6241,337,223,-638
6,614,790742,-3882,-14402,-6039,360,257,-668
6,615,790747,-3713,-14244,-6019,369,271,-696
6,616,790752,-3389,-14130,-5393,374,294,-718
6,617,790757,-3128,-14196,-4882,390,287,-742
6,618,790762,-2988,-14244,-4980,411,243,-772
6,619,790767,-3090,-14282,-5009,433,187,-800
6,620,790772,-3245,-14344,-5371,452,114,-821
6,621,790777,-3264,-14405,-5522,471,65,-842
6,622,790782,-3107,-14517,-5612,480,43,-865
6,623,790787,-2995,-14733,-5708,491,44,-887
6,624,790792,-2948,-15033,-5828,501,59,-916
6,625,790797,-2862,-15204,-6051,516,83,-939
6,626,790802,-2828,-15249,-6153,525,126,-965
6,627,790807,-2802,-15373,-6182,533,182,-992
6,628,790812,-2870,-15545,-5840,542,251,-1018
6,629,790817,-2880,-15680,-5620,547,296,-1042
6,630,790822,-2869,-15762,-5454,558,326,-1067
6,631,790827,-2809,-15843,-5306,569,341,-1090
6,632,790832,-2669,-15789,-5130,580,345,-1117
6,633,790837,-2648,-15798,-4982,591,340,-1139
6,634,790842,-2669,-15917,-4819,596,326,-1156
6,635,790847,-2469,-15975,-4688,612,289,-1174
6,636,790852,-2290,-16042,-4757,623,245,-1194
6,637,790857,-2296,-16157,-4686,631,204,-1213
6,638,790862,-2456,-16343,-4847,642,169,-1232
6,639,790867,-2430,-16519,-5177,645,152,-1252
6,640,790872,-2243,-16541,-5269,643,176,-1271
6,641,790877,-1978,-16600,-5044,648,230,-1289
6,642,790882,-1702,-16563,-4874,648,281,-1306
6,643,790887,-1698,-16533,-4567,649,312,-1325
6,644,790892,-1902,-16571,-4140,655,315,-1341
6,645,790897,-1958,-16687,-4023,660,274,-1355
6,646,790902,-1716,-16784,-3819,664,223,-1366
6,647,790907,-1339,-16821,-3651,674,176,-1375
6,648,790912,-917,-16807,-4006,679,90,-1408
6,649,790917,-914,-16627,-4103,685,58,-1421
6,650,790922,-909,-16394,-3840,686,17,-1431
6,651,790927,-847,-16395,-4048,690,-28,-1442
6,652,790932,-927,-16266,-3805,692,-69,-1451
6,653,790937,-984,-16346,-3948,701,-132,-1458
6,654,790942,-1236,-16392,-3891,702,-195,-1469
6,655,790947,-1626,-16548,-4509,698,-257,-1481
6,656,790952,-1818,-16721,-5052,691,-272,-1490
6,657,790957,-995,-16724,-5191,675,-230,-1488
6,658,790962,195,-16484,-5169,659,-138,-1497
6,659,790967,243,-16484,-4306,660,17,-1528
6,660,790972,-558,-16541,-4403,670,92,-1548
6,661,790977,-1231,-16416,-4601,668,99,-1559
6,662,790982,-1113,-16215,-4478,661,99,-1562
6,663,790987,-449,-16004,-3545,657,107,-1562
6,664,790992,271,-16281,-3105,653,93,-1566
6,665,790997,371,-16261,-2949,661,48,-1578
6,666,791002,32,-16257,-3381,671,-33,-1587
6,667,791007,-199,-16010,-3940,680,-115,-1586
6,668,791012,-271,-16112,-3766,682,-163,-1583
6,669,791017,-472,-16551,-3832,677,-219,-1584
6,670,791022,-715,-16826,-3930,677,-271,-1590
6,671,791027,-397,-16904,-4722,675,-293,-1591
6,672,791032,479,-16880,-5229,675,-232,-1590
6,673,791037,429,-16980,-5176,665,-109,-1600
6,674,791042,112,-17388,-5236,650,15,-1609
6,675,791047,-55,-17193,-4849,643,114,-1615
6,676,791052,381,-17140,-4477,635,205,-1610
6,677,791057,1012,-16925,-3618,626,301,-1605
6,678,791062,1385,-16923,-2510,627,346,-1602
6,679,791067,1439,-16797,-1919,621,297,-1596
6,680,791072,1367,-16852,-1786,636,179,-1581
6,681,791077,1249,-16831,-1792,647,28,-1565
6,682,791082,1477,-16765,-2168,647,-98,-1548
6,683,791087,1688,-16916,-2287,645,-168,-1531
6,684,791092,1961,-16597,-2659,648,-218,-1520
6,685,791097,2082,-16427,-3240,643,-247,-1510
6,686,791102,1807,-16555,-3742,638,-243,-1497
6,687,791107,1336,-16763,-3716,634,-226,-1478
6,688,791112,1297,-16860,-3415,629,-210,-1453
6,689,791117,1786,-16159,-3674,612,-183,-1436
6,690,791122,-1066,-21950,-14037,657,-43,-1431
6,691,791127,10517,-22511,-26196,1153,1423,-1465
6,692,791132,-14217,-7383,-23109,270,3566,-1234
6,693,791137,-32768,-13584,29362,-755,8785,-310
6,694,791142,-26443,-1478,32767,-279,4431,979
6,695,791147,29308,-10282,29357,-684,676,1443
6,696,791152,32767,-19341,32767,-362,2271,717
6,697,791157,6514,-15951,15429,342,-2641,228
6,698,791162,-32768,-12645,-28331,527,-8629,591
6,699,791167,-32768,-7029,-17931,203,-9924,1126
6,700,791172,7019,-14230,-22545,-19,-10806,1438
6,701,791177,32767,-15142,-30377,-505,-5294,933
6,702,791182,22990,-18854,-25542,-384,2885,572
6,703,791187,-17956,-15582,-2437,-454,4839,179
6,704,791192,-32025,-14101,-1010,-126,2829,520
6,705,791197,-7555,-11917,-21426,12,180,917
6,706,791202,18090,-13140,5163,-307,1216,906
6,707,791207,17757,-14726,21037,-396,1923,717
6,708,791212,2328,-14710,10591,-151,1397,644
6,709,791217,-15338,-15708,5743,30,342,721
6,710,791222,-10969,-15186,-9280,-7,-1811,687
6,711,791227,4208,-14745,-15375,-140,-2404,800
6,712,791232,11588,-15803,-5616,-301,-1487,798
6,713,791237,6133,-16901,1380,-275,-639,683
6,714,791242,-3819,-16541,-1253,-98,-313,597
6,715,791247,-5757,-16889,-12367,44,-314,609
6,716,791252,-1365,-17218,-17890,-14,-26,641
6,717,791257,3558,-17088,-11580,-221,579,616
6,718,791262,3247,-16982,3091,-368,1061,563
6,719,791267,249,-17162,8236,-295,754,541
6,720,791272,-1008,-17176,544,-104,133,526
6,721,791277,929,-17269,-10134,-68,62,512
6,722,791282,871,-17121,-5113,-198,342,504
6,723,791287,837,-17206,1144,-240,311,499
6,724,791292,1484,-17260,1704,-168,49,486
6,725,791297,2401,-17663,-3581,-78,-73,457
6,726,791302,1399,-17786,-7900,-67,134,414
6,727,791307,-75,-17563,-7975,-127,424,390
6,728,791312,-503,-17044,-3789,-185,555,395
6,729,791317,1412,-16728,94,-183,466,400
6,730,791322,2736,-16909,-28,-136,338,385
6,731,791327,2672,-17244,-2565,-87,316,349
6,732,791332,1105,-17132,-4360,-80,350,321
6,733,791337,-32,-16793,-4397,-101,297,317
6,734,791342,321,-16588,-2731,-118,180,329
6,735,791347,2088,-16649,-2349,-116,76,331
6,736,791352,2910,-16693,-2677,-106,137,301
6,737,791357,2170,-16723,-2908,-70,282,271
6,738,791362,960,-16500,-4426,-57,329,249
6,739,791367,441,-16503,-4528,-76,330,239
6,740,791372,1251,-16486,-3465,-90,307,243
6,741,791377,2393,-16455,-2696,-102,301,233
6,742,791382,2537,-16427,-1209,-91,361,205
6,743,791387,1902,-16337,-1581,-56,350,187
6,744,791392,1229,-16094,-3084,-45,284,173
6,745,791397,1174,-16001,-3387,-47,227,173
6,746,791402,1701,-15831,-2668,-64,168,173
6,747,791407,2255,-15739,-1412,-70,116,167
6,748,791412,2309,-15863,-923,-52,70,155
6,749,791417,2038,-15868,-2128,-28,11,140
6,750,791422,1538,-15807,-3216,-9,-8,127
6,751,791427,1371,-15695,-3621,-15,-29,122
6,752,791432,1560,-15667,-3084,-31,-54,119
6,753,791437,1925,-15768,-2465,-38,-59,111
6,754,791442,2025,-15769,-2282,-31,-46,97
6,755,791447,1772,-15735,-2845,-12,-16,80
6,756,791452,1501,-15686,-3529,1,11,68
6,757,791457,1301,-15665,-3655,-7,23,58
6,758,791462,1338,-15627,-3236,-19,25,51
6,759,791467,1512,-15587,-2397,-24,18,44
6,760,791472,1627,-15584,-2189,-12,15,35
6,761,791477,1542,-15647,-2397,4,18,26
6,762,791482,1368,-15608,-2873,21,8,18
6,763,791487,1204,-15705,-3072,25,-20,9
6,764,791492,1305,-15718,-2862,18,-59,3
6,765,791497,1411,-15704,-2530,18,-87,-3
6,766,791502,1417,-15783,-2635,27,-96,-7
6,767,791507,1510,-15872,-3051,37,-79,-14
6,768,791512,1680,-15924,-3444,45,-47,-20
6,769,791517,1676,-15913,-3416,44,-15,-24
6,770,791522,1577,-15994,-3140,41,-7,-32
6,771,791527,1399,-16031,-2856,41,-15,-36
6,772,791532,1370,-15993,-2873,47,-12,-40
6,773,791537,1300,-16011,-3124,55,9,-45
6,774,791542,1332,-16064,-3317,59,42,-48
6,775,791547,1430,-16069,-3265,61,70,-55
6,776,791552,1447,-16104,-3054,58,78,-58
6,777,791557,1417,-16069,-2667,58,73,-61
6,778,791562,1328,-16059,-2706,66,54,-65
6,779,791567,1237,-16091,-2759,72,49,-68
6,780,791572,1109,-16193,-2852,80,42,-68
6,781,791577,1112,-16250,-2798,79,24,-73
6,782,791582,1202,-16222,-2729,78,0,-70
6,783,791587,1210,-16234,-2779,84,-17,-71
6,784,791592,1095,-16338,-3076,90,-18,-75
6,785,791597,987,-16385,-3295,94,1,-78
6,786,791602,914,-16384,-3408,95,33,-80
6,787,791607,857,-16430,-3459,90,73,-80
6,788,791612,1027,-16398,-3395,85,112,-84
6,789,791617,1314,-16290,-3168,83,161,-87
6,790,791622,1454,-16299,-2912,86,203,-88
6,791,791627,1281,-16292,-2681,90,219,-91
6,792,791632,953,-16230,-2559,94,196,-95
6,793,791637,725,-16177,-2594,94,151,-94
6,794,791642,874,-16126,-2651,95,108,-89
6,795,791647,1341,-16088,-2603,93,72,-89
6,796,791652,1192,-16024,-2527,96,46,-90
6,797,791657,915,-15975,-2779,103,-3,-88
6,798,791662,672,-15948,-3120,102,-43,-89
6,799,791667,710,-16011,-3244,101,-56,-84
6,800,791672,896,-16031,-3222,97,-44,-83
6,801,791677,992,-16068,-3047,98,-25,-85
6,802,791682,996,-16035,-3032,102,-21,-89
6,803,791687,906,-15932,-3190,102,-26,-88
6,804,791692,681,-15985,-3335,103,-30,-86
6,805,791697,542,-16134,-3372,100,-29,-87
6,806,791702,601,-16256,-3260,97,-22,-87
6,807,791707,808,-16284,-3216,95,-8,-83
6,808,791712,955,-16239,-3179,96,17,-87
6,809,791717,892,-16226,-3233,99,38,-93
6,810,791722,679,-16298,-3335,97,57,-94
6,811,791727,598,-16302,-3361,96,68,-92
6,812,791732,788,-16255,-3228,87,71,-89
6,813,791737,1018,-16221,-2843,87,78,-90
6,814,791742,1125,-16230,-2645,89,69,-86
6,815,791747,945,-16139,-2595,90,41,-89
6,816,791752,782,-16130,-2624,95,-6,-85
6,817,791757,802,-16112,-2911,96,-59,-77
6,818,791762,921,-16091,-2966,92,-88,-75
6,819,791767,1018,-16066,-2944,91,-106,-71
6,820,791772,1159,-16145,-3104,94,-114,-70
6,821,791777,1016,-16198,-3285,95,-107,-67
6,822,791782,840,-16186,-3600,92,-99,-70
6,823,791787,747,-16234,-3790,88,-71,-69
6,824,791792,870,-16222,-3646,81,-21,-63
6,825,791797,1018,-16151,-3342,78,29,-66
6,826,791802,1049,-16198,-3054,78,62,-68
6,827,791807,913,-16222,-3008,80,67,-66
6,828,791812,794,-16245,-3068,81,51,-65
6,829,791817,845,-16197,-3117,79,37,-62
6,830,791822,989,-16190,-3045,76,36,-59
6,831,791827,1029,-16208,-2942,76,44,-56
6,832,791832,980,-16245,-2993,77,47,-57
6,833,791837,873,-16248,-3119,80,44,-55
6,834,791842,771,-16252,-3340,79,44,-55
6,835,791847,810,-16220,-3387,75,57,-52
6,836,791852,925,-16179,-3274,72,76,-48
6,837,791857,979,-16176,-3203,72,104,-47
6,838,791862,888,-16153,-3279,71,124,-52
6,839,791867,809,-16099,-3548,72,137,-51
6,840,791872,855,-16105,-3699,74,158,-50
6,841,791877,1158,-16126,-3597,69,190,-50
6,842,791882,1324,-16137,-3092,62,221,-51
6,843,791887,1203,-16075,-2598,63,222,-51
6,844,791892,1004,-16009,-2364,68,187,-52
6,845,791897,885,-15956,-2466,72,138,-48
6,846,791902,904,-16008,-2578,73,96,-42
6,847,791907,948,-16042,-2462,72,60,-40
6,848,791912,965,-16103,-2314,71,13,-39
6,849,791917,853,-16168,-2429,75,-35,-38
6,850,791922,834,-16248,-2942,78,-58,-33
6,851,791927,959,-16298,-3291,78,-40,-33
6,852,791932,1011,-16292,-3315,74,9,-35
6,853,791937,1031,-16358,-3067,68,63,-38
6,854,791942,995,-16384,-2874,66,93,-43
6,855,791947,887,-16344,-2816,64,104,-44
6,856,791952,915,-16296,-2846,66,112,-45
6,857,791957,1072,-16258,-2789,65,124,-44
6,858,791962,1193,-16240,-2585,61,129,-43
6,859,791967,1273,-16181,-2378,59,119,-44
6,860,791972,1326,-16207,-2346,63,99,-43
6,861,791977,1336,-16216,-2354,63,68,-38
6,862,791982,1288,-16234,-2349,59,47,-37
6,863,791987,1281,-16246,-2389,58,29,-36
6,864,791992,1332,-16237,-2354,61,14,-33
6,865,791997,1340,-16275,-2349,59,-2,-32
6,866,792002,1268,-16280,-2369,56,-21,-31
6,867,792007,1219,-16284,-2442,58,-34,-28
6,868,792012,1282,-16325,-2585,55,-42,-27
6,869,792017,1303,-16343,-2594,51,-26,-28
6,870,792022,1292,-16337,-2545,49,-19,-31
6,871,792027,1278,-16303,-2507,47,-13,-31
6,872,792032,1235,-16230,-2524,46,-8,-29
6,873,792037,1194,-16176,-2489,46,-8,-29
6,874,792042,1151,-16175,-2429,44,-9,-30
6,875,792047,1134,-16142,-2496,46,-22,-28
6,876,792052,1174,-16076,-2651,46,-38,-26
6,877,792057,1261,-16010,-2766,48,-44,-27
6,878,792062,1259,-16059,-2786,47,-37,-28
6,879,792067,1255,-16165,-2772,45,-30,-30
6,880,792072,1176,-16202,-2707,45,-24,-31
6,881,792077,1061,-16197,-2686,42,-21,-33
6,882,792082,1042,-16275,-2755,41,-16,-34
6,883,792087,1067,-16344,-2694,40,-12,-33
6,884,792092,1098,-16389,-2573,38,-6,-36
6,885,792097,1156,-16393,-2595,37,-7,-39
6,886,792102,1195,-16380,-2596,37,-8,-41
6,887,792107,1149,-16286,-2667,39,-8,-42
6,888,792112,1034,-16244,-2765,39,-2,-42
6,889,792117,1008,-16282,-2743,37,2,-43
6,890,792122,1155,-16294,-2690,35,8,-42
6,891,792127,1242,-16230,-2564,34,15,-46
6,892,792132,1277,-16229,-2502,35,13,-46
6,893,792137,1193,-16258,-2518,36,2,-47
6,894,792142,1146,-16233,-2601,38,-13,-47
6,895,792147,1161,-16205,-2667,39,-23,-46
6,896,792152,1232,-16257,-2651,39,-32,-43
6,897,792157,1266,-16253,-2658,37,-34,-45
6,898,792162,1199,-16298,-2691,37,-37,-50
6,899,792167,1157,-16269,-2854,39,-34,-50
6,900,792172,1087,-16228,-3005,39,-19,-48
6,901,792177,1168,-16233,-3016,36,8,-49
6,902,792182,1187,-16229,-2891,35,36,-52
6,903,792187,1129,-16235,-2683,35,53,-56
6,904,792192,1158,-16245,-2628,35,49,-56
6,905,792197,1222,-16185,-2619,36,46,-57
6,906,792202,1289,-16177,-2605,35,49,-57
6,907,792207,1221,-16164,-2576,31,48,-57
6,908,792212,1176,-16193,-2538,32,38,-57
6,909,792217,1254,-16132,-2530,33,27,-56
6,910,792222,1471,-16087,-2614,34,24,-55
6,911,792227,1471,-16086,-2549,33,35,-54
6,912,792232,1474,-16106,-2507,32,42,-53
6,913,792237,1440,-16150,-2479,35,30,-51
6,914,792242,1450,-16131,-2510,31,11,-48
6,915,792247,1495,-16134,-2435,29,-5,-47
6,916,792252,1458,-16105,-2427,30,-12,-44
6,917,792257,1450,-16105,-2454,33,-16,-43
6,918,792262,1377,-16135,-2439,32,-19,-43
6,919,792267,1347,-16194,-2577,31,-28,-41
6,920,792272,1284,-16220,-2690,30,-34,-42
6,921,792277,1243,-16178,-2768,27,-25,-39
6,922,792282,1307,-16168,-2850,22,-1,-40
6,923,792287,1333,-16129,-2777,22,30,-40
6,924,792292,1433,-16088,-2697,20,57,-42
6,925,792297,1455,-16045,-2489,16,71,-43
6,926,792302,1410,-16003,-2346,15,67,-40
6,927,792307,1406,-15971,-2269,17,50,-41
6,928,792312,1355,-15957,-2226,15,26,-38
6,929,792317,1422,-15930,-2276,17,3,-35
6,930,792322,1442,-15986,-2318,16,-16,-35
6,931,792327,1448,-16102,-2452,18,-35,-35
6,932,792332,1436,-16157,-2519,15,-45,-31
6,933,792337,1400,-16160,-2565,15,-43,-29
6,934,792342,1429,-16248,-2625,16,-33,-28
6,935,792347,1439,-16323,-2623,11,-20,-26
6,936,792352,1497,-16312,-2451,11,-12,-30
6,937,792357,1445,-16384,-2393,9,-14,-32
6,938,792362,1382,-16382,-2355,7,-21,-29
6,939,792367,1317,-16348,-2350,8,-27,-26
6,940,792372,1266,-16305,-2509,9,-31,-30
6,941,792377,1201,-16326,-2597,7,-27,-30
6,942,792382,1349,-16278,-2688,1,-17,-29
6,943,792387,1372,-16253,-2638,0,-4,-30
6,944,792392,1417,-16272,-2581,1,11,-30
6,945,792397,1401,-16354,-2598,1,20,-31
6,946,792402,1310,-16340,-2584,3,20,-29
6,947,792407,1310,-16329,-2566,3,10,-28
6,948,792412,1375,-16322,-2595,4,4,-28
6,949,792417,1433,-16321,-2618,2,6,-28
6,950,792422,1451,-16280,-2577,3,13,-28
6,951,792427,1453,-16276,-2560,1,21,-28
6,952,792432,1442,-16316,-2552,0,20,-29
6,953,792437,1381,-16281,-2529,0,16,-30
6,954,792442,1348,-16227,-2524,0,11,-26
6,955,792447,1361,-16121,-2535,1,10,-24
6,956,792452,1409,-16145,-2529,0,14,-25
6,957,792457,1413,-16165,-2516,-1,19,-24
6,958,792462,1407,-16148,-2474,1,17,-23
6,959,792467,1360,-16113,-2448,0,8,-23
6,960,792472,1408,-16070,-2382,-1,2,-21
6,961,792477,1399,-16073,-2400,1,4,-18
6,962,792482,1384,-16127,-2379,-1,4,-17
6,963,792487,1381,-16220,-2427,-2,-6,-17
6,964,792492,1372,-16174,-2558,1,-17,-17
6,965,792497,1440,-16164,-2611,1,-16,-15
6,966,792502,1481,-16166,-2614,-3,2,-14
6,967,792507,1444,-16188,-2541,-2,20,-13
6,968,792512,1373,-16239,-2465,-4,28,-13
6,969,792517,1305,-16282,-2431,-6,33,-16
6,970,792522,1335,-16332,-2435,-6,29,-13
6,971,792527,1431,-16305,-2462,-6,30,-11
6,972,792532,1534,-16306,-2380,-9,40,-9
6,973,792537,1531,-16223,-2306,-10,41,-10
6,974,792542,1442,-16209,-2232,-9,27,-10
6,975,792547,1398,-16184,-2275,-8,10,-7
6,976,792552,1405,-16159,-2264,-11,-8,-4
6,977,792557,1490,-16175,-2218,-11,-20,-3
6,978,792562,1525,-16191,-2251,-13,-33,-3
6,979,792567,1565,-16194,-2294,-8,-45,1
6,980,792572,1591,-16137,-2412,-8,-47,2
6,981,792577,1544,-16143,-2469,-8,-49,3
6,982,792582,1446,-16108,-2430,-11,-49,5
6,983,792587,1344,-16156,-2375,-12,-49,6
6,984,792592,1339,-16207,-2400,-10,-49,7
6,985,792597,1379,-16251,-2498,-7,-46,9
6,986,792602,1477,-16190,-2516,-10,-39,5
6,987,792607,1523,-16141,-2530,-12,-34,9
6,988,792612,1457,-16154,-2516,-11,-33,8
6,989,792617,1337,-16126,-2522,-12,-34,5
6,990,792622,1325,-16094,-2596,-11,-31,4
6,991,792627,1321,-16106,-2660,-9,-27,7
6,992,792632,1375,-16051,-2679,-10,-15,7
6,993,792637,1466,-15998,-2632,-11,-3,9
6,994,792642,1500,-16063,-2497,-9,1,7
6,995,792647,1410,-16165,-2440,-12,-3,8
6,996,792652,1360,-16191,-2394,-11,-12,8
6,997,792657,1346,-16189,-2302,-10,-22,7
6,998,792662,1399,-16232,-2280,-10,-35,10
6,999,792667,1441,-16250,-2340,-5,-48,9
