event_id,seq,ts_ms,ax,ay,az,gx,gy,gz
1,0,31723,-3947,-16034,-2950,19,484,-9
1,1,31728,-3939,-16270,-2508,13,505,-11
1,2,31733,-4054,-16505,-2253,9,499,-13
1,3,31738,-4179,-16768,-2010,3,453,-19
1,4,31743,-4412,-16878,-1839,-4,378,-25
1,5,31748,-4581,-16977,-1968,-14,298,-27
1,6,31753,-4651,-16959,-2465,-19,231,-34
1,7,31758,-4678,-16980,-2880,-20,207,-41
1,8,31763,-4768,-16966,-3173,-23,212,-47
1,9,31768,-4864,-16931,-3302,-26,223,-53
1,10,31773,-4857,-16830,-3416,-29,241,-59
1,11,31778,-4781,-16693,-3558,-27,268,-64
1,12,31783,-4753,-16521,-3783,-23,304,-68
1,13,31788,-4717,-16375,-3958,-18,358,-74
1,14,31793,-4762,-16311,-4023,-14,409,-84
1,15,31798,-4833,-16290,-3711,-12,451,-87
1,16,31803,-4865,-16334,-3286,-15,473,-92
1,17,31808,-4826,-16297,-3198,-16,469,-94
1,18,31813,-4732,-16159,-3419,-15,460,-100
1,19,31818,-4662,-16016,-3711,-11,452,-106
1,20,31823,-4648,-15921,-3805,-14,451,-110
1,21,31828,-4645,-15933,-3584,-17,447,-115
1,22,31833,-4577,-15824,-3401,-18,423,-119
1,23,31838,-4383,-15879,-3744,-12,392,-110
1,24,31843,-4450,-16028,-3934,-17,372,-110
1,25,31848,-4498,-16012,-3892,-25,358,-118
1,26,31853,-4278,-15944,-3884,-25,348,-118
1,27,31858,-3952,-15992,-4179,-20,351,-119
1,28,31863,-3829,-16355,-4195,-17,369,-129
1,29,31868,-3745,-15865,-4461,-8,364,-166
1,30,31873,-3731,-15598,-3976,-6,378,-152
1,31,31878,-3744,-16278,-4164,-1,347,-123
1,32,31883,-3312,-15709,-4821,-6,308,-140
1,33,31888,-3314,-16059,-4018,8,349,-112
1,34,31893,-2366,-16774,-5084,-4,342,-110
1,35,31898,-2344,-15490,-4883,-8,433,-173
1,36,31903,-2453,-15648,-4707,6,507,-120
1,37,31908,-2476,-15934,-4801,6,481,-92
1,38,31913,-1910,-15704,-3572,4,426,-99
1,39,31918,-1397,-15675,-4072,7,340,-89
1,40,31923,-1542,-15652,-4241,13,311,-74
1,41,31928,-1885,-15465,-4284,8,281,-72
1,42,31933,-1849,-14956,-4273,2,229,-67
1,43,31938,-1419,-15011,-4179,3,172,-39
1,44,31943,-991,-15011,-4479,1,108,-26
1,45,31948,-966,-15008,-4295,-1,72,-17
1,46,31953,-1304,-14749,-4381,3,21,-8
1,47,31958,-1390,-14430,-4683,7,-18,4
1,48,31963,-1323,-14397,-4804,7,-28,27
1,49,31968,-1153,-14316,-4696,8,-20,41
1,50,31973,-1242,-14307,-4535,11,-7,50
1,51,31978,-1530,-14151,-4615,15,-13,55
1,52,31983,-1813,-13998,-4832,18,-5,67
1,53,31988,-1827,-13989,-5075,19,31,85
1,54,31993,-1604,-13907,-5157,25,94,96
1,55,31998,-1395,-13986,-5021,35,155,108
1,56,32003,-1556,-13965,-4604,38,200,110
1,57,32008,-1952,-13913,-4155,40,206,113
1,58,32013,-2230,-13909,-3818,44,167,125
1,59,32018,-2257,-13972,-3613,45,113,140
1,60,32023,-2229,-14001,-3478,43,59,149
1,61,32028,-2356,-14000,-3402,39,-3,146
1,62,32033,-2503,-14017,-3558,35,-88,147
1,63,32038,-2620,-14073,-3612,33,-165,146
1,64,32043,-2714,-14155,-3677,30,-245,149
1,65,32048,-2830,-14351,-3447,31,-322,147
1,66,32053,-3071,-14562,-3253,32,-402,137
1,67,32058,-3373,-14635,-3496,32,-479,133
1,68,32063,-3614,-14779,-3861,30,-522,132
1,69,32068,-3615,-14726,-4109,30,-513,131
1,70,32073,-3455,-14899,-4280,30,-478,137
1,71,32078,-3406,-14887,-4435,34,-412,133
1,72,32083,-3604,-14978,-4652,40,-325,129
1,73,32088,-3934,-15076,-4602,49,-237,122
1,74,32093,-3948,-15224,-3924,60,-101,112
1,75,32098,-3831,-15377,-3788,66,-40,108
1,76,32103,-3761,-15563,-3740,67,16,101
1,77,32108,-3818,-15499,-3709,70,59,87
1,78,32113,-3869,-15591,-3525,69,82,83
1,79,32118,-3786,-15654,-3285,69,81,79
1,80,32123,-3615,-15847,-3005,70,60,77
1,81,32128,-3529,-15991,-2938,70,29,70
1,82,32133,-3643,-16107,-2795,66,-10,58
1,83,32138,-3864,-16248,-2697,58,-50,53
1,84,32143,-3946,-16362,-2790,53,-86,49
1,85,32148,-3534,-16563,-3015,49,-108,55
1,86,32153,-3036,-16701,-3218,51,-104,51
1,87,32158,-3021,-16763,-3199,49,-89,39
1,88,32163,-3349,-16822,-3253,48,-89,31
1,89,32168,-3492,-16776,-3309,53,-88,30
1,90,32173,-3424,-16829,-3317,51,-75,35
1,91,32178,-3284,-16999,-3223,53,-57,33
1,92,32183,-3296,-17127,-2941,49,-46,28
1,93,32188,-3454,-17161,-2768,44,-60,20
1,94,32193,-3673,-17129,-2745,41,-84,17
1,95,32198,-3747,-17098,-2810,38,-106,17
1,96,32203,-3698,-17115,-2981,37,-123,17
1,97,32208,-3634,-17130,-3126,34,-132,16
1,98,32213,-3629,-17018,-3180,30,-124,11
1,99,32218,-3768,-16863,-3175,27,-114,2
1,100,32223,-3894,-16776,-3144,29,-100,-3
1,101,32228,-3986,-16663,-3233,31,-91,-5
1,102,32233,-3866,-16624,-3249,31,-83,-8
1,103,32238,-3838,-16541,-3259,28,-70,-12
1,104,32243,-4022,-16509,-3133,26,-50,-14
1,105,32248,-4162,-16396,-3189,26,-40,-18
1,106,32253,-3971,-16279,-3451,23,-28,-15
1,107,32258,-3707,-16184,-3516,25,0,-19
1,108,32263,-3790,-16075,-3466,25,31,-29
1,109,32268,-3997,-15961,-3520,29,49,-37
1,110,32273,-4013,-15874,-3651,30,58,-39
1,111,32278,-3808,-15772,-3737,29,69,-36
1,112,32283,-3623,-15736,-3506,27,78,-36
1,113,32288,-3578,-15678,-3320,28,75,-41
1,114,32293,-3709,-15570,-3296,29,56,-48
1,115,32298,-3780,-15506,-3477,29,31,-49
1,116,32303,-3728,-15414,-3513,28,8,-48
1,117,32308,-3662,-15396,-3391,25,-22,-49
1,118,32313,-3650,-15424,-3365,26,-53,-52
1,119,32318,-3740,-15343,-3350,25,-77,-55
1,120,32323,-3887,-15369,-3448,22,-96,-58
1,121,32328,-3781,-15322,-3671,24,-106,-54
1,122,32333,-3532,-15350,-3722,24,-97,-54
1,123,32338,-3558,-15366,-3665,20,-77,-60
1,124,32343,-3757,-15301,-3598,23,-50,-67
1,125,32348,-3935,-15298,-3660,26,-28,-66
1,126,32353,-3958,-15295,-3649,29,-15,-67
1,127,32358,-3784,-15393,-3529,29,0,-63
1,128,32363,-3675,-15479,-3400,28,14,-65
1,129,32368,-3704,-15437,-3363,26,28,-70
1,130,32373,-3814,-15396,-3500,23,34,-75
1,131,32378,-3844,-15328,-3632,25,41,-71
1,132,32383,-3743,-15367,-3624,26,54,-70
1,133,32388,-3584,-15454,-3410,24,67,-69
1,134,32393,-3528,-15411,-3206,18,74,-74
1,135,32398,-3570,-15357,-3213,21,72,-75
1,136,32403,-3622,-15287,-3297,22,64,-77
1,137,32408,-3647,-15241,-3391,18,49,-75
1,138,32413,-3598,-15297,-3364,14,27,-71
1,139,32418,-3535,-15321,-3253,10,19,-75
1,140,32423,-3495,-15411,-3282,10,12,-70
1,141,32428,-3494,-15490,-3394,10,9,-73
1,142,32433,-3500,-15457,-3430,9,5,-77
1,143,32438,-3404,-15434,-3450,6,2,-76
1,144,32443,-3293,-15506,-3417,5,-2,-74
1,145,32448,-3299,-15562,-3370,6,-5,-75
1,146,32453,-3422,-15606,-3352,4,-20,-74
1,147,32458,-3406,-15664,-3452,4,-31,-71
1,148,32463,-3217,-15762,-3584,4,-22,-67
1,149,32468,-3204,-15797,-3579,2,-7,-69
1,150,32473,-3269,-15813,-3561,3,9,-66
1,151,32478,-3289,-15816,-3577,5,23,-64
1,152,32483,-3222,-15915,-3466,3,35,-61
1,153,32488,-3175,-16006,-3294,5,52,-56
1,154,32493,-3208,-16102,-3118,1,57,-56
1,155,32498,-3272,-16034,-3002,-1,45,-59
1,156,32503,-3260,-16032,-3083,-2,29,-52
1,157,32508,-3158,-16071,-3143,-4,16,-46
1,158,32513,-3117,-16092,-3097,-6,5,-47
1,159,32518,-3179,-16112,-3144,-9,-15,-43
1,160,32523,-3156,-16046,-3337,-12,-29,-43
1,161,32528,-3187,-16015,-3425,-12,-31,-44
1,162,32533,-3198,-15939,-3500,-8,-31,-40
1,163,32538,-3211,-15916,-3457,-9,-32,-39
1,164,32543,-3179,-15912,-3467,-10,-31,-36
1,165,32548,-3223,-15825,-3500,-9,-30,-39
1,166,32553,-3265,-15737,-3484,-10,-29,-37
1,167,32558,-3322,-15750,-3461,-9,-28,-32
1,168,32563,-3362,-15673,-3445,-9,-31,-29
1,169,32568,-3276,-15642,-3385,-12,-35,-29
1,170,32573,-3197,-15639,-3406,-11,-37,-29
1,171,32578,-3232,-15698,-3472,-9,-39,-27
1,172,32583,-3288,-15679,-3447,-10,-44,-29
1,173,32588,-3354,-15663,-3399,-12,-54,-25
1,174,32593,-3374,-15681,-3404,-9,-56,-25
1,175,32598,-3401,-15664,-3347,-9,-49,-25
1,176,32603,-3379,-15658,-3350,-9,-41,-28
1,177,32608,-3450,-15599,-3385,-7,-39,-27
1,178,32613,-3473,-15543,-3451,-8,-37,-27
1,179,32618,-3456,-15577,-3426,-8,-35,-25
1,180,32623,-3342,-15569,-3387,-7,-32,-26
1,181,32628,-3311,-15569,-3381,-8,-33,-26
1,182,32633,-3348,-15491,-3401,-7,-35,-26
1,183,32638,-3396,-15491,-3456,-8,-40,-23
1,184,32643,-3332,-15391,-3427,-9,-40,-23
1,185,32648,-3212,-15405,-3473,-7,-31,-21
1,186,32653,-3194,-15411,-3532,-3,-22,-20
1,187,32658,-3282,-15438,-3622,-2,-13,-23
1,188,32663,-3359,-15405,-3528,0,-11,-22
1,189,32668,-3346,-15395,-3417,-2,-15,-20
1,190,32673,-3327,-15407,-3381,-2,-16,-19
1,191,32678,-3313,-15391,-3399,-1,-19,-15
1,192,32683,-3378,-15385,-3413,0,-26,-17
1,193,32688,-3452,-15337,-3491,1,-34,-18
1,194,32693,-3540,-15350,-3410,-1,-43,-17
1,195,32698,-3562,-15387,-3371,0,-53,-16
1,196,32703,-3596,-15395,-3357,0,-60,-16
1,197,32708,-3572,-15380,-3469,1,-62,-17
1,198,32713,-3529,-15369,-3692,5,-53,-18
1,199,32718,-3512,-15378,-3800,10,-35,-18
1,200,32723,-3586,-15447,-3638,8,-20,-19
1,201,32728,-3605,-15433,-3439,8,-7,-16
1,202,32733,-3519,-15577,-3400,12,3,-15
1,203,32738,-3519,-15618,-3365,16,15,-14
1,204,32743,-3553,-15673,-3269,15,28,-16
1,205,32748,-3623,-15674,-3284,13,32,-19
1,206,32753,-3514,-15713,-3239,12,32,-19
1,207,32758,-3394,-15791,-3306,11,36,-12
1,208,32763,-3356,-15821,-3286,14,46,-15
1,209,32768,-3357,-15795,-3237,15,50,-17
1,210,32773,-3370,-15796,-3278,13,45,-17
1,211,32778,-3282,-15781,-3293,14,46,-13
1,212,32783,-3197,-15818,-3162,13,45,-12
1,213,32788,-3229,-15847,-3082,13,33,-11
1,214,32793,-3195,-15839,-3061,11,10,-10
1,215,32798,-3159,-15795,-3128,10,-13,-9
1,216,32803,-3168,-15811,-3122,9,-33,-7
1,217,32808,-3212,-15879,-3094,9,-52,-5
1,218,32813,-3188,-15869,-3182,6,-68,-1
1,219,32818,-3164,-15881,-3257,5,-79,1
1,220,32823,-3237,-15886,-3314,7,-79,4
1,221,32828,-3346,-15901,-3322,6,-62,4
1,222,32833,-3279,-15865,-3447,7,-55,8
1,223,32838,-3180,-15857,-3524,10,-30,9
1,224,32843,-3240,-15842,-3556,9,-1,9
1,225,32848,-3370,-15846,-3461,11,22,10
1,226,32853,-3413,-15848,-3387,13,38,13
1,227,32858,-3356,-15833,-3260,14,49,16
1,228,32863,-3334,-15792,-3191,16,52,17
1,229,32868,-3354,-15784,-3163,13,44,16
1,230,32873,-3334,-15769,-3199,11,29,18
1,231,32878,-3342,-15734,-3229,10,11,20
1,232,32883,-3328,-15725,-3204,10,-2,24
1,233,32888,-3273,-15733,-3156,10,-23,22
1,234,32893,-3299,-15775,-3158,10,-40,20
1,235,32898,-3341,-15812,-3134,8,-51,21
1,236,32903,-3307,-15833,-3281,8,-63,26
1,237,32908,-3267,-15850,-3381,7,-65,25
1,238,32913,-3235,-15824,-3346,4,-61,25
1,239,32918,-3239,-15733,-3342,5,-57,26
1,240,32923,-3320,-15699,-3420,7,-52,27
1,241,32928,-3478,-15683,-3357,8,-44,29
1,242,32933,-3517,-15679,-3330,8,-37,30
1,243,32938,-3540,-15688,-3251,8,-38,33
1,244,32943,-3574,-15631,-3228,7,-39,31
1,245,32948,-3548,-15668,-3364,3,-39,31
1,246,32953,-3506,-15663,-3465,4,-34,32
1,247,32958,-3500,-15605,-3495,3,-27,31
1,248,32963,-3539,-15572,-3484,0,-17,28
1,249,32968,-3615,-15571,-3484,4,-7,29
1,250,32973,-3563,-15599,-3465,8,1,30
1,251,32978,-3618,-15602,-3400,5,11,30
1,252,32983,-3561,-15677,-3369,7,11,29
1,253,32988,-3491,-15648,-3363,5,10,26
1,254,32993,-3484,-15588,-3360,3,5,27
1,255,32998,-3567,-15630,-3338,2,-3,26
1,256,33003,-3612,-15652,-3243,0,-15,27
1,257,33008,-3503,-15684,-3364,-3,-17,29
1,258,33013,-3379,-15692,-3433,-5,-13,30
1,259,33018,-3331,-15672,-3395,-3,-3,26
1,260,33023,-3470,-15695,-3351,-1,2,23
1,261,33028,-3572,-15653,-3305,-4,-7,26
1,262,33033,-3525,-15643,-3312,-4,-19,30
1,263,33038,-3452,-15662,-3264,-5,-19,27
1,264,33043,-3510,-15666,-3276,-7,-23,26
1,265,33048,-3583,-15675,-3408,-8,-25,25
1,266,33053,-3617,-15634,-3428,-11,-26,24
1,267,33058,-3632,-15618,-3341,-12,-23,25
1,268,33063,-3600,-15706,-3277,-12,-21,24
1,269,33068,-3572,-15673,-3299,-14,-20,25
1,270,33073,-3575,-15616,-3393,-14,-16,22
1,271,33078,-3613,-15574,-3532,-14,-10,23
1,272,33083,-3633,-15597,-3526,-13,-1,24
1,273,33088,-3608,-15552,-3498,-13,4,23
1,274,33093,-3523,-15513,-3482,-15,10,22
1,275,33098,-3456,-15521,-3464,-15,16,20
1,276,33103,-3524,-15532,-3439,-13,22,20
1,277,33108,-3622,-15526,-3337,-12,19,18
1,278,33113,-3607,-15512,-3265,-15,4,19
1,279,33118,-3535,-15493,-3187,-20,-13,22
1,280,33123,-3459,-15556,-3182,-17,-32,21
1,281,33128,-3494,-15531,-3209,-18,-45,18
1,282,33133,-3590,-15494,-3322,-21,-61,17
1,283,33138,-3646,-15506,-3359,-22,-75,16
1,284,33143,-3645,-15526,-3364,-22,-82,15
1,285,33148,-3583,-15532,-3314,-20,-82,16
1,286,33153,-3550,-15539,-3384,-19,-78,16
1,287,33158,-3614,-15530,-3476,-18,-72,11
1,288,33163,-3702,-15531,-3575,-19,-62,10
1,289,33168,-3693,-15601,-3567,-20,-50,12
1,290,33173,-3600,-15642,-3543,-18,-27,10
1,291,33178,-3559,-15720,-3526,-18,-8,11
1,292,33183,-3546,-15756,-3426,-14,14,12
1,293,33188,-3521,-15767,-3397,-14,35,10
1,294,33193,-3573,-15796,-3313,-14,52,11
1,295,33198,-3509,-15802,-3228,-11,62,10
1,296,33203,-3416,-15848,-3189,-16,61,9
1,297,33208,-3319,-15831,-3179,-19,53,7
1,298,33213,-3349,-15821,-3197,-14,41,8
1,299,33218,-3346,-15814,-3187,-16,22,7
1,300,33223,-3343,-15784,-3166,-19,-3,9
1,301,33228,-3355,-15738,-3067,-21,-29,9
1,302,33233,-3369,-15722,-3056,-21,-52,10
1,303,33238,-3415,-15710,-3179,-24,-72,10
1,304,33243,-3416,-15691,-3282,-24,-82,11
1,305,33248,-3406,-15684,-3317,-28,-86,11
1,306,33253,-3378,-15682,-3330,-26,-81,10
1,307,33258,-3444,-15640,-3411,-25,-74,11
1,308,33263,-3447,-15644,-3467,-20,-60,10
1,309,33268,-3495,-15576,-3478,-20,-46,8
1,310,33273,-3527,-15559,-3461,-24,-31,12
1,311,33278,-3556,-15570,-3417,-23,-23,12
1,312,33283,-3588,-15569,-3435,-21,-18,10
1,313,33288,-3565,-15597,-3483,-21,-11,10
1,314,33293,-3555,-15624,-3525,-17,-7,12
1,315,33298,-3552,-15630,-3422,-18,0,6
1,316,33303,-3558,-15650,-3307,-17,2,5
1,317,33308,-3609,-15652,-3262,-20,10,6
1,318,33313,-3576,-15673,-3336,-20,15,7
1,319,33318,-3506,-15658,-3389,-16,23,8
1,320,33323,-3425,-15627,-3378,-17,32,6
1,321,33328,-3386,-15683,-3266,-19,37,4
1,322,33333,-3430,-15699,-3199,-19,36,3
1,323,33338,-3467,-15675,-3197,-18,23,3
1,324,33343,-3432,-15676,-3202,-20,8,6
1,325,33348,-3314,-15668,-3180,-22,-8,6
1,326,33353,-3370,-15691,-3172,-23,-22,4
1,327,33358,-3447,-15691,-3215,-22,-37,3
1,328,33363,-3488,-15654,-3262,-26,-55,3
1,329,33368,-3450,-15676,-3348,-24,-72,5
1,330,33373,-3424,-15651,-3368,-25,-73,7
1,331,33378,-3436,-15637,-3356,-26,-74,6
1,332,33383,-3531,-15672,-3373,-26,-72,4
1,333,33388,-3648,-15699,-3401,-21,-64,1
1,334,33393,-3594,-15719,-3429,-21,-52,4
1,335,33398,-3494,-15706,-3473,-22,-38,5
1,336,33403,-3485,-15737,-3400,-19,-19,3
1,337,33408,-3552,-15678,-3421,-20,1,-1
1,338,33413,-3590,-15647,-3434,-18,17,0
1,339,33418,-3647,-15638,-3372,-19,24,2
1,340,33423,-3620,-15670,-3285,-17,23,3
1,341,33428,-3565,-15691,-3292,-19,18,0
1,342,33433,-3561,-15674,-3327,-18,11,-2
1,343,33438,-3599,-15642,-3340,-18,3,-3
1,344,33443,-3593,-15628,-3370,-19,-5,-1
1,345,33448,-3507,-15668,-3320,-19,-11,2
1,346,33453,-3368,-15655,-3392,-17,-12,1
1,347,33458,-3279,-15597,-3426,-16,-12,-1
1,348,33463,-3352,-15545,-3414,-14,-13,-5
1,349,33468,-3458,-15518,-3418,-15,-24,-5
1,350,33473,-3418,-15493,-3385,-15,-37,-1
1,351,33478,-3429,-15500,-3238,-15,-48,0
1,352,33483,-3476,-15583,-3124,-14,-65,3
1,353,33488,-3537,-15618,-3209,-17,-75,1
1,354,33493,-3548,-15580,-3464,-13,-72,1
1,355,33498,-3541,-15582,-3624,-13,-58,4
1,356,33503,-3496,-15643,-3583,-13,-40,6
1,357,33508,-3505,-15635,-3495,-13,-22,3
1,358,33513,-3544,-15596,-3412,-10,-8,1
1,359,33518,-3510,-15551,-3468,-7,10,2
1,360,33523,-3462,-15516,-3485,-6,24,5
1,361,33528,-3532,-15521,-3309,-11,23,5
1,362,33533,-3602,-15500,-3145,-11,12,3
1,363,33538,-3648,-15427,-3125,-11,-2,6
1,364,33543,-3650,-15416,-3193,-11,-22,8
1,365,33548,-3654,-15374,-3266,-8,-38,11
1,366,33553,-3653,-15322,-3291,-13,-57,10
1,367,33558,-3698,-15334,-3206,-18,-77,12
1,368,33563,-3820,-15395,-3284,-18,-108,19
1,369,33568,-3530,-15362,-3505,-19,-113,26
1,370,33573,-3266,-15347,-3524,-20,-104,34
1,371,33578,-3150,-15386,-3430,-24,-86,43
1,372,33583,-3086,-15401,-3174,-23,-81,53
1,373,33588,-2986,-15320,-2953,-26,-95,65
1,374,33593,-2759,-15294,-2791,-30,-128,80
1,375,33598,-2654,-15410,-2651,-32,-167,96
1,376,33603,-2787,-15551,-2391,-40,-229,108
1,377,33608,-3039,-15585,-1852,-47,-315,120
1,378,33613,-3296,-15474,-1758,-60,-437,129
1,379,33618,-3530,-15513,-2247,-65,-541,153
1,380,33623,-3668,-15656,-2913,-70,-603,173
1,381,33628,-3704,-15587,-3222,-77,-612,186
1,382,33633,-3828,-15565,-3375,-81,-597,205
1,383,33638,-3887,-15574,-3568,-80,-581,222
1,384,33643,-4096,-15617,-3798,-79,-564,239
1,385,33648,-4265,-15550,-3764,-77,-534,260
1,386,33653,-4277,-15527,-3767,-77,-504,286
1,387,33658,-4196,-15472,-3650,-75,-474,308
1,388,33663,-4218,-15407,-3512,-75,-452,331
1,389,33668,-4465,-15325,-3252,-78,-447,354
1,390,33673,-4616,-15214,-3153,-77,-491,371
1,391,33678,-4713,-15114,-3115,-80,-537,395
1,392,33683,-4865,-15166,-3146,-83,-584,421
1,393,33688,-5107,-15049,-3370,-83,-612,440
1,394,33693,-5208,-14940,-3703,-83,-622,464
1,395,33698,-5177,-14910,-3993,-81,-598,488
1,396,33703,-5307,-14872,-4006,-78,-550,510
1,397,33708,-5527,-14836,-4193,-74,-504,532
1,398,33713,-5683,-14727,-4100,-67,-454,555
1,399,33718,-5812,-14709,-4082,-64,-407,577
1,400,33723,-5950,-14785,-3904,-59,-358,597
1,401,33728,-5941,-14778,-3756,-55,-323,625
1,402,33733,-5830,-14821,-3849,-54,-288,645
1,403,33738,-5881,-14819,-3754,-50,-254,661
1,404,33743,-6005,-14876,-3553,-49,-236,684
1,405,33748,-5952,-14801,-3325,-47,-233,707
1,406,33753,-5880,-14802,-3187,-49,-260,732
1,407,33758,-5908,-14935,-2889,-52,-298,754
1,408,33763,-6151,-14909,-2939,-54,-348,772
1,409,33768,-6312,-14889,-3226,-57,-386,787
1,410,33773,-6511,-14807,-3465,-53,-406,808
1,411,33778,-6403,-14789,-3579,-51,-409,829
1,412,33783,-6427,-14836,-3599,-55,-400,850
1,413,33788,-6467,-14871,-3632,-54,-384,869
1,414,33793,-6932,-14770,-3725,-54,-369,885
1,415,33798,-7151,-14733,-3834,-51,-339,908
1,416,33803,-6843,-14689,-4143,-48,-292,935
1,417,33808,-6549,-14666,-3822,-45,-220,955
1,418,33813,-6669,-14617,-3517,-43,-170,962
1,419,33818,-7142,-14599,-3342,-40,-153,972
1,420,33823,-7530,-14451,-3346,-38,-171,983
1,421,33828,-7484,-14492,-3495,-40,-193,1007
1,422,33833,-7144,-14556,-3412,-44,-193,1024
1,423,33838,-7271,-14577,-3214,-40,-184,1031
1,424,33843,-7695,-14540,-3181,-42,-192,1038
1,425,33848,-7781,-14316,-3725,-45,-213,1051
1,426,33853,-7565,-14236,-3678,-49,-203,1071
1,427,33858,-7520,-14330,-3470,-51,-189,1085
1,428,33863,-7524,-14346,-3349,-46,-183,1085
1,429,33868,-7646,-14233,-3135,-48,-204,1086
1,430,33873,-7899,-14147,-3120,-54,-250,1089
1,431,33878,-8035,-14149,-3331,-54,-295,1100
1,432,33883,-7836,-14156,-3579,-55,-308,1112
1,433,33888,-7621,-14217,-3646,-56,-292,1117
1,434,33893,-7747,-14256,-3363,-59,-272,1113
1,435,33898,-8143,-14216,-3298,-61,-278,1110
1,436,33903,-8190,-14142,-3583,-65,-293,1120
1,437,33908,-7997,-14129,-3698,-66,-275,1129
1,438,33913,-7855,-14184,-3580,-66,-232,1130
1,439,33918,-7976,-14143,-3199,-66,-192,1125
1,440,33923,-8212,-14014,-3023,-68,-193,1118
1,441,33928,-8319,-13977,-3030,-72,-220,1116
1,442,33933,-8215,-13978,-2958,-80,-266,1108
1,443,33938,-8508,-14153,-2834,-82,-283,1104
1,444,33943,-8792,-14111,-2971,-88,-319,1095
1,445,33948,-8670,-13995,-3612,-90,-338,1092
1,446,33953,-8311,-14100,-4080,-91,-297,1094
1,447,33958,-8312,-14178,-3888,-93,-214,1083
1,448,33963,-8731,-14089,-3698,-94,-140,1067
1,449,33968,-8858,-13987,-3795,-96,-90,1061
1,450,33973,-8536,-13919,-3815,-94,-41,1057
1,451,33978,-8240,-14036,-3612,-95,1,1048
1,452,33983,-8349,-14117,-3122,-97,35,1033
1,453,33988,-8579,-14086,-2869,-100,21,1018
1,454,33993,-8674,-14070,-2816,-106,-20,1005
1,455,33998,-8534,-14016,-2859,-113,-77,992
1,456,34003,-8327,-14088,-2966,-119,-116,981
1,457,34008,-8292,-14075,-3027,-123,-143,965
1,458,34013,-8416,-13961,-3112,-125,-174,944
1,459,34018,-8686,-13954,-3036,-130,-215,929
1,460,34023,-8799,-13928,-3036,-132,-264,913
1,461,34028,-8719,-13883,-3317,-135,-296,905
1,462,34033,-8344,-13874,-3650,-133,-287,898
1,463,34038,-8231,-14014,-3590,-133,-253,876
1,464,34043,-9035,-13654,-3027,-129,-242,842
1,465,34048,-9158,-13664,-3439,-127,-278,837
1,466,34053,-8949,-13442,-3871,-133,-276,827
1,467,34058,-8645,-13742,-3944,-133,-230,824
1,468,34063,-8674,-13497,-3548,-131,-165,792
1,469,34068,-8955,-13486,-3601,-127,-118,772
1,470,34073,-9328,-13159,-3919,-117,-92,742
1,471,34078,-9354,-13181,-3956,-108,-59,730
1,472,34083,-8989,-13185,-3623,-112,-20,712
1,473,34088,-8553,-13125,-3030,-108,7,684
1,474,34093,-9288,-12950,-3050,-99,1,645
1,475,34098,-9623,-13048,-3414,-92,-47,624
1,476,34103,-9464,-12318,-3463,-100,-95,598
1,477,34108,-9196,-13075,-2473,-119,-122,610
1,478,34113,-9217,-13400,-2331,-109,-180,562
1,479,34118,-9482,-12965,-2623,-97,-224,509
1,480,34123,-9249,-12903,-3670,-87,-261,495
1,481,34128,-9146,-13008,-3809,-82,-256,475
1,482,34133,-9238,-13040,-3402,-88,-236,451
1,483,34138,-9217,-13031,-3508,-83,-215,420
1,484,34143,-9266,-12872,-3950,-69,-159,390
1,485,34148,-9438,-12781,-3990,-58,-77,370
1,486,34153,-9598,-12822,-3675,-54,-14,344
1,487,34158,-9573,-12794,-3259,-53,20,308
1,488,34163,-9483,-12711,-3269,-44,42,274
1,489,34168,-9478,-12592,-3581,-33,82,240
1,490,34173,-9632,-12550,-3585,-22,138,207
1,491,34178,-9728,-12441,-3365,-17,167,173
1,492,34183,-9742,-12405,-2923,-17,167,139
1,493,34188,-9746,-12357,-2567,-17,151,110
1,494,34193,-9718,-12403,-2652,-12,141,80
1,495,34198,-9531,-12500,-2974,-4,130,48
1,496,34203,-9404,-12436,-3125,-5,130,19
1,497,34208,-9377,-12406,-2911,-3,136,-17
1,498,34213,-9379,-12300,-2945,2,124,-56
1,499,34218,-9303,-12212,-3400,14,137,-93
1,500,34223,-9238,-12105,-3720,26,179,-124
1,501,34228,-9297,-12044,-3525,33,228,-156
1,502,34233,-9219,-12101,-3378,36,252,-195
1,503,34238,-9204,-12027,-3074,41,265,-229
1,504,34243,-9173,-12066,-3169,50,270,-263
1,505,34248,-9221,-12111,-3163,60,283,-295
1,506,34253,-9432,-12254,-2909,66,294,-332
1,507,34258,-9405,-12211,-2838,66,284,-370
1,508,34263,-9365,-12279,-2753,69,285,-398
1,509,34268,-8954,-12570,-3235,76,291,-433
1,510,34273,-8890,-12270,-3109,82,317,-485
1,511,34278,-9074,-12567,-2901,86,315,-509
1,512,34283,-9252,-12594,-3047,96,290,-545
1,513,34288,-9089,-12514,-3121,101,275,-578
1,514,34293,-8789,-12782,-3439,103,297,-599
1,515,34298,-8664,-12922,-3336,114,404,-664
1,516,34303,-8606,-12923,-3303,120,429,-699
1,517,34308,-8569,-12825,-3272,127,440,-736
1,518,34313,-8590,-12941,-3103,136,441,-762
1,519,34318,-8516,-13164,-3072,149,443,-786
1,520,34323,-8171,-13254,-3460,154,455,-827
1,521,34328,-7986,-13247,-3516,161,494,-859
1,522,34333,-8034,-13364,-3195,163,518,-889
1,523,34338,-8058,-13375,-3011,166,499,-918
1,524,34343,-7904,-13445,-3006,173,481,-940
1,525,34348,-7737,-13576,-3274,179,452,-966
1,526,34353,-7839,-13639,-3063,186,450,-990
1,527,34358,-7883,-13700,-2890,191,435,-1019
1,528,34363,-7685,-13669,-3091,192,409,-1050
1,529,34368,-7332,-13692,-3300,200,390,-1073
1,530,34373,-7138,-13794,-3223,207,381,-1095
1,531,34378,-7141,-13857,-3039,213,359,-1117
1,532,34383,-7122,-13885,-3071,214,319,-1144
1,533,34388,-7121,-13898,-3068,218,282,-1171
1,534,34393,-7085,-14127,-2955,224,258,-1187
1,535,34398,-6882,-14396,-2976,228,243,-1202
1,536,34403,-6721,-14394,-3060,232,233,-1229
1,537,34408,-6602,-14390,-3519,236,232,-1252
1,538,34413,-6713,-14332,-3687,244,264,-1274
1,539,34418,-6688,-14341,-3763,251,298,-1294
1,540,34423,-6625,-14552,-3616,258,335,-1309
1,541,34428,-6520,-14714,-3231,268,361,-1326
1,542,34433,-6559,-14915,-2986,271,368,-1346
1,543,34438,-6782,-14887,-2760,277,368,-1369
1,544,34443,-6805,-14868,-3028,283,374,-1382
1,545,34448,-6394,-14998,-3534,290,401,-1390
1,546,34453,-5838,-15267,-3776,297,465,-1399
1,547,34458,-5679,-15493,-3536,308,533,-1417
1,548,34463,-5879,-15416,-3319,317,574,-1443
1,549,34468,-5998,-15453,-3330,323,586,-1452
1,550,34473,-5853,-15491,-3377,332,605,-1457
1,551,34478,-5423,-15657,-3295,341,624,-1458
1,552,34483,-4977,-15868,-2939,347,631,-1465
1,553,34488,-4767,-15897,-2688,352,596,-1477
1,554,34493,-4825,-15818,-2637,353,522,-1494
1,555,34498,-4919,-15713,-2654,357,426,-1500
1,556,34503,-4787,-15698,-2680,357,341,-1498
1,557,34508,-4419,-15738,-2776,357,268,-1493
1,558,34513,-4017,-15810,-2802,357,209,-1496
1,559,34518,-3995,-15809,-2834,355,152,-1506
1,560,34523,-4234,-15722,-2835,358,86,-1511
1,561,34528,-4443,-15688,-2814,359,22,-1511
1,562,34533,-4689,-15707,-2532,351,-26,-1508
1,563,34538,-4600,-15929,-2675,345,-56,-1494
1,564,34543,-3986,-16021,-3278,343,-37,-1482
1,565,34548,-3408,-16094,-3846,346,33,-1480
1,566,34553,-3535,-16027,-3976,349,126,-1486
1,567,34558,-3820,-15882,-3726,350,191,-1480
1,568,34563,-3616,-15773,-3475,354,218,-1466
1,569,34568,-3134,-15727,-3310,360,240,-1452
1,570,34573,-2983,-15916,-2828,364,254,-1437
1,571,34578,-3437,-15934,-2079,360,218,-1435
1,572,34583,-3714,-15904,-1825,353,107,-1431
1,573,34588,-3365,-15913,-2224,342,-26,-1413
1,574,34593,-3128,-16020,-2406,333,-113,-1398
1,575,34598,-3080,-16184,-2467,327,-184,-1387
1,576,34603,-3234,-16122,-2574,326,-254,-1383
1,577,34608,-3383,-16183,-2841,313,-335,-1373
1,578,34613,-3452,-16171,-2996,301,-403,-1361
1,579,34618,-3380,-16224,-3113,299,-436,-1345
1,580,34623,-4165,-17088,-3928,293,-434,-1344
1,581,34628,-5898,-15052,-3304,302,-327,-1396
1,582,34633,-5043,-15413,-2613,299,-404,-1280
1,583,34638,-2579,-17496,-3684,257,-501,-1233
1,584,34643,-4700,-16302,-1203,262,-488,-1341
1,585,34648,-8119,-16087,-893,265,-641,-1323
1,586,34653,-6211,-15868,-7111,276,-713,-1240
1,587,34658,-1308,-17339,-8421,282,-354,-1225
1,588,34663,-5757,-16568,356,272,65,-1348
1,589,34668,-6966,-15977,-2734,294,-143,-1300
1,590,34673,-4716,-16023,-7750,328,-118,-1239
1,591,34678,-1620,-17401,-5666,310,176,-1229
1,592,34683,-3255,-14527,3029,311,435,-1332
1,593,34688,-4114,-18469,-1827,271,213,-1216
1,594,34693,-3793,-15599,-559,400,213,-1339
1,595,34698,-5666,-16756,-5220,291,-113,-1212
1,596,34703,-4738,-16605,-1003,257,-183,-1183
1,597,34708,-2875,-16355,-1905,236,-274,-1155
1,598,34713,-4262,-14023,-5247,260,-103,-1102
1,599,34718,-259,-22666,-10093,606,488,-1085
1,600,34723,-9140,7446,-6239,1033,3375,-1749
1,601,34745,22166,-32768,13738,380,5936,700
1,602,34745,22166,-32768,13738,380,5936,700
1,603,34746,22166,-32768,13738,380,5936,700
1,604,34747,-32768,-17956,25491,263,1451,-1614
1,605,34748,-32768,-17956,25491,263,1451,-1614
1,606,34753,-32768,15798,-12819,66,-6558,-1038
1,607,34758,3361,7273,-32768,79,-8365,1415
1,608,34763,32767,-30055,-22296,-5,-2643,2389
1,609,34768,22070,-32768,14833,-116,4047,510
1,610,34773,-31734,-12559,29928,142,4141,-782
1,611,34778,-32768,-3318,-13273,309,-662,98
1,612,34783,-5865,-6909,-27231,371,-1929,1154
1,613,34788,32767,-17566,-7239,43,-962,1152
1,614,34793,19984,-23346,17296,-102,900,502
1,615,34798,-17136,-19223,11098,133,1447,86
1,616,34803,-27085,-12012,-12282,310,552,300
1,617,34808,-7207,-11098,-17987,141,-439,729
1,618,34813,12678,-15139,-323,-155,-589,799
1,619,34818,10322,-18897,14807,-96,-70,544
1,620,34823,-5477,-17268,8522,170,226,324
1,621,34828,-13017,-15149,-11987,306,-65,350
1,622,34833,-7198,-13546,-16207,131,-442,486
1,623,34838,1224,-13810,25,-182,-621,584
1,624,34843,3964,-17933,10706,-154,-420,571
1,625,34848,494,-18342,2413,102,-86,387
1,626,34853,-4641,-16436,-11291,209,122,305
1,627,34858,-7308,-14844,-10531,53,89,377
1,628,34863,-4717,-15036,1263,-122,-192,466
1,629,34868,634,-16305,5409,-91,-289,471
1,630,34873,2663,-17518,-2013,87,76,409
1,631,34878,-1481,-17130,-8281,136,516,328
1,632,34883,-6276,-15493,-5507,23,528,298
1,633,34888,-5662,-15211,1045,-77,161,361
1,634,34893,-730,-15523,2491,-68,-92,391
1,635,34898,2281,-16811,-3051,6,76,385
1,636,34903,-752,-17239,-4945,48,475,333
1,637,34908,-5129,-16486,-2052,-1,453,279
1,638,34913,-5233,-15672,1276,-63,31,282
1,639,34918,-1172,-15685,-885,-81,-326,308
1,640,34923,1005,-16580,-3489,-47,-132,325
1,641,34928,-1140,-17344,-3180,-22,240,309
1,642,34933,-4173,-16997,-1490,-38,282,258
1,643,34938,-4056,-16087,-1663,-64,1,235
1,644,34943,-1459,-15990,-3069,-84,-155,253
1,645,34948,-330,-16379,-3285,-71,28,261
1,646,34953,-1792,-16964,-2058,-48,287,259
1,647,34958,-3441,-16831,-1469,-42,294,232
1,648,34963,-3306,-16317,-2300,-61,96,207
1,649,34968,-2032,-16131,-2942,-84,-15,202
1,650,34973,-1554,-16264,-2399,-82,77,204
1,651,34978,-2110,-16550,-1692,-66,207,200
1,652,34983,-2705,-16597,-2142,-59,195,190
1,653,34988,-2749,-16320,-2871,-73,84,170
1,654,34993,-2444,-16081,-2835,-89,2,157
1,655,34998,-2252,-16214,-2130,-96,23,155
1,656,35003,-2263,-16256,-1904,-81,92,154
1,657,35008,-2330,-16392,-2490,-70,118,147
1,658,35013,-2476,-16351,-2911,-72,71,125
1,659,35018,-2616,-16204,-2419,-83,2,106
1,660,35023,-2572,-16169,-1824,-96,-46,101
1,661,35028,-2463,-16244,-1837,-89,-45,106
1,662,35033,-2643,-16431,-2591,-84,-38,93
1,663,35038,-2851,-16316,-2313,-96,-91,73
1,664,35043,-2840,-16167,-1996,-104,-131,65
1,665,35048,-2711,-16099,-2230,-101,-131,62
1,666,35053,-2738,-16151,-2598,-92,-96,61
1,667,35058,-2971,-16260,-2707,-89,-71,56
1,668,35063,-3142,-16205,-2548,-95,-85,41
1,669,35068,-3029,-16055,-2395,-99,-99,29
1,670,35073,-2845,-15999,-2631,-99,-74,25
1,671,35078,-2904,-15952,-2784,-91,-10,20
1,672,35083,-3123,-15972,-2813,-82,37,16
1,673,35088,-3210,-15984,-2688,-84,44,6
1,674,35093,-3019,-15904,-2582,-89,32,-5
1,675,35098,-2911,-15933,-2544,-88,45,-12
1,676,35103,-2981,-16007,-2484,-82,84,-13
1,677,35108,-3071,-16011,-2412,-80,102,-18
1,678,35113,-3081,-15985,-2377,-81,95,-25
1,679,35118,-2915,-15911,-2328,-84,77,-33
1,680,35123,-2833,-15870,-2252,-86,73,-38
1,681,35128,-2832,-15906,-2195,-81,73,-43
1,682,35133,-2928,-15919,-2156,-81,62,-41
1,683,35138,-2966,-15867,-2205,-85,33,-45
1,684,35143,-2973,-15763,-2166,-88,4,-53
1,685,35148,-3034,-15692,-2173,-89,-18,-56
1,686,35153,-2985,-15657,-2334,-89,-22,-55
1,687,35158,-2898,-15676,-2541,-82,-12,-55
1,688,35163,-2929,-15731,-2666,-82,-6,-61
1,689,35168,-3045,-15756,-2608,-83,-9,-64
1,690,35173,-3116,-15680,-2575,-83,-4,-67
1,691,35178,-3081,-15681,-2637,-79,13,-68
1,692,35183,-3046,-15788,-2654,-71,39,-68
1,693,35188,-3105,-15870,-2498,-71,59,-69
1,694,35193,-3193,-15878,-2375,-72,63,-74
1,695,35198,-3207,-15854,-2309,-73,51,-78
1,696,35203,-3209,-15852,-2402,-68,50,-78
1,697,35208,-3079,-15928,-2536,-66,61,-78
1,698,35213,-2953,-15951,-2541,-67,68,-76
1,699,35218,-2934,-15931,-2400,-64,68,-75
1,700,35223,-2950,-15863,-2362,-64,58,-81
1,701,35228,-2943,-15848,-2473,-62,41,-85
1,702,35233,-2895,-15914,-2384,-62,21,-74
1,703,35238,-2937,-15944,-2173,-60,-5,-72
1,704,35243,-2929,-15944,-1959,-63,-45,-77
1,705,35248,-3005,-15862,-2058,-60,-87,-77
1,706,35253,-3006,-15795,-2346,-60,-117,-76
1,707,35258,-3021,-15785,-2533,-57,-132,-72
1,708,35263,-3065,-15830,-2473,-57,-140,-71
1,709,35268,-3158,-15830,-2308,-57,-163,-74
1,710,35273,-3265,-15850,-2260,-59,-189,-73
1,711,35278,-3334,-15871,-2478,-55,-199,-73
1,712,35283,-3366,-15838,-2753,-51,-184,-69
1,713,35288,-3344,-15913,-2907,-46,-156,-70
1,714,35293,-3332,-15932,-2874,-46,-123,-70
1,715,35298,-3341,-15872,-2759,-45,-96,-71
1,716,35303,-3355,-15871,-2682,-37,-69,-70
1,717,35308,-3450,-15911,-2566,-34,-43,-71
1,718,35313,-3555,-15873,-2433,-34,-23,-70
1,719,35318,-3523,-15902,-2415,-33,-17,-65
1,720,35323,-3416,-15942,-2430,-30,-13,-65
1,721,35328,-3284,-15955,-2483,-30,-14,-62
1,722,35333,-3211,-15966,-2416,-27,-20,-65
1,723,35338,-3290,-15842,-2308,-26,-34,-66
1,724,35343,-3323,-15840,-2417,-27,-49,-62
1,725,35348,-3274,-15811,-2505,-24,-61,-59
1,726,35353,-3241,-15876,-2488,-21,-65,-57
1,727,35358,-3271,-15955,-2385,-20,-74,-56
1,728,35363,-3290,-15954,-2326,-22,-89,-55
1,729,35368,-3267,-16000,-2308,-19,-103,-54
1,730,35373,-3242,-16008,-2322,-22,-108,-55
1,731,35378,-3235,-15991,-2482,-21,-104,-52
1,732,35383,-3208,-15989,-2675,-18,-92,-51
1,733,35388,-3200,-15924,-2695,-14,-79,-50
1,734,35393,-3234,-15893,-2657,-11,-65,-48
1,735,35398,-3193,-15898,-2471,-8,-36,-45
1,736,35403,-3212,-15898,-2481,-7,-31,-43
1,737,35408,-3227,-15867,-2508,-5,-34,-41
1,738,35413,-3278,-15865,-2436,-2,-36,-38
1,739,35418,-3226,-15829,-2402,-3,-42,-40
1,740,35423,-3243,-15825,-2326,-2,-49,-38
1,741,35428,-3278,-15830,-2344,-1,-62,-36
1,742,35433,-3265,-15867,-2373,1,-75,-36
1,743,35438,-3252,-15931,-2289,-1,-88,-35
1,744,35443,-3252,-15941,-2223,-4,-103,-35
1,745,35448,-3252,-15942,-2261,-4,-115,-34
1,746,35453,-3237,-15969,-2439,-4,-120,-35
1,747,35458,-3183,-15996,-2493,-3,-126,-34
1,748,35463,-3195,-15964,-2442,-1,-135,-35
1,749,35468,-3253,-15918,-2388,-4,-146,-38
1,750,35473,-3307,-15967,-2453,-4,-152,-35
1,751,35478,-3314,-15940,-2613,1,-144,-32
1,752,35483,-3286,-15926,-2751,4,-123,-33
1,753,35488,-3294,-15921,-2701,6,-106,-37
1,754,35493,-3292,-15900,-2585,5,-97,-36
1,755,35498,-3311,-15800,-2479,7,-90,-37
1,756,35503,-3245,-15829,-2587,12,-79,-35
1,757,35508,-3253,-15877,-2638,11,-65,-35
1,758,35513,-3361,-15942,-2537,14,-57,-30
1,759,35518,-3368,-15951,-2464,10,-55,-31
1,760,35523,-3280,-15945,-2507,8,-53,-31
1,761,35528,-3176,-15971,-2658,12,-41,-32
1,762,35533,-3188,-15921,-2763,13,-24,-34
1,763,35538,-3263,-15871,-2646,17,-20,-35
1,764,35543,-3284,-15773,-2521,17,-28,-35
1,765,35548,-3235,-15745,-2543,12,-34,-36
1,766,35553,-3143,-15814,-2605,13,-28,-30
1,767,35558,-3177,-15797,-2552,19,-18,-32
1,768,35563,-3263,-15738,-2451,18,-17,-36
1,769,35568,-3274,-15675,-2449,17,-37,-40
1,770,35573,-3216,-15638,-2515,17,-57,-37
1,771,35578,-3125,-15699,-2512,15,-68,-33
1,772,35583,-3074,-15776,-2453,14,-67,-34
1,773,35588,-3126,-15774,-2442,16,-65,-33
1,774,35593,-3149,-15788,-2565,15,-71,-37
1,775,35598,-3138,-15730,-2693,15,-68,-37
1,776,35603,-3128,-15790,-2776,13,-54,-34
1,777,35608,-3161,-15874,-2677,16,-35,-34
1,778,35613,-3168,-15844,-2586,18,-28,-39
1,779,35618,-3227,-15816,-2572,18,-26,-39
1,780,35623,-3191,-15831,-2594,19,-17,-41
1,781,35628,-3202,-15768,-2580,20,-6,-40
1,782,35633,-3113,-15761,-2589,20,7,-39
1,783,35638,-3088,-15764,-2566,20,14,-39
1,784,35643,-3122,-15783,-2467,22,9,-36
1,785,35648,-3173,-15762,-2430,18,-3,-36
1,786,35653,-3080,-15770,-2453,16,-10,-38
1,787,35658,-3018,-15792,-2562,20,-16,-37
1,788,35663,-2973,-15765,-2656,23,-14,-37
1,789,35668,-2940,-15709,-2698,20,-15,-35
1,790,35673,-2941,-15659,-2630,20,-23,-38
1,791,35678,-2995,-15665,-2527,20,-31,-37
1,792,35683,-3058,-15760,-2450,21,-37,-34
1,793,35688,-3034,-15818,-2435,19,-43,-33
1,794,35693,-2956,-15868,-2401,20,-46,-33
1,795,35698,-2986,-15845,-2467,19,-52,-34
1,796,35703,-3117,-15787,-2551,18,-55,-36
1,797,35708,-3141,-15779,-2616,18,-56,-37
1,798,35713,-3076,-15800,-2564,20,-52,-33
1,799,35718,-3073,-15876,-2472,21,-47,-30
1,800,35723,-3143,-15930,-2432,21,-41,-33
1,801,35728,-3188,-15938,-2461,17,-43,-36
1,802,35733,-3149,-15906,-2612,18,-38,-34
1,803,35738,-3107,-15884,-2665,19,-21,-32
1,804,35743,-3097,-15915,-2671,21,-4,-31
1,805,35748,-3125,-15900,-2571,21,7,-33
1,806,35753,-3256,-15882,-2424,19,9,-34
1,807,35758,-3287,-15950,-2452,20,9,-35
1,808,35763,-3101,-15928,-2576,23,28,-31
1,809,35768,-3101,-15997,-2555,23,41,-31
1,810,35773,-3094,-15995,-2486,23,44,-34
1,811,35778,-3031,-15974,-2393,21,40,-35
1,812,35783,-3055,-15929,-2383,21,27,-36
1,813,35788,-3071,-15960,-2326,21,16,-34
1,814,35793,-3101,-16014,-2325,19,1,-34
1,815,35798,-3019,-16031,-2390,17,-17,-32
1,816,35803,-2899,-16000,-2501,15,-25,-32
1,817,35808,-2811,-16017,-2588,15,-23,-30
1,818,35813,-2852,-15983,-2570,16,-17,-31
1,819,35818,-2947,-16006,-2485,15,-20,-29
1,820,35823,-2974,-16036,-2405,14,-26,-28
1,821,35828,-2932,-16012,-2404,14,-33,-25
1,822,35833,-2931,-16045,-2431,13,-36,-24
1,823,35838,-2923,-16124,-2387,11,-37,-23
1,824,35843,-2936,-16119,-2407,13,-38,-23
1,825,35848,-2996,-16060,-2512,11,-31,-24
1,826,35853,-2931,-16053,-2620,10,-24,-22
1,827,35858,-2911,-16034,-2642,9,-13,-19
1,828,35863,-2913,-16062,-2582,7,5,-18
1,829,35868,-2969,-16050,-2533,10,17,-18
1,830,35873,-2988,-15987,-2559,10,22,-16
1,831,35878,-3025,-15968,-2544,12,34,-14
1,832,35883,-3007,-15952,-2454,8,39,-13
1,833,35888,-2961,-15938,-2364,8,39,-12
1,834,35893,-2937,-15860,-2334,9,32,-9
1,835,35898,-2904,-15876,-2351,7,21,-11
1,836,35903,-2890,-15970,-2338,6,5,-11
1,837,35908,-2933,-15957,-2236,2,-18,-11
1,838,35913,-2946,-15984,-2162,0,-44,-7
1,839,35918,-2926,-15980,-2264,1,-66,-5
1,840,35923,-2912,-15977,-2477,1,-79,-6
1,841,35928,-2903,-15967,-2568,-1,-81,-7
1,842,35933,-2965,-15984,-2572,-5,-78,-6
1,843,35938,-2999,-16005,-2521,-7,-73,-4
1,844,35943,-2946,-15956,-2509,-6,-67,-3
1,845,35948,-2970,-15993,-2608,-6,-56,0
1,846,35953,-2977,-15949,-2680,-5,-38,-3
1,847,35958,-3007,-15907,-2615,-5,-19,-1
1,848,35963,-3023,-15850,-2526,-4,-6,1
1,849,35968,-2989,-15828,-2395,-4,0,2
1,850,35973,-2957,-15894,-2338,-8,4,3
1,851,35978,-2993,-15884,-2360,-7,3,1
1,852,35983,-3028,-15893,-2368,-4,-5,1
1,853,35988,-3067,-15873,-2367,-9,-13,3
1,854,35993,-3038,-15859,-2326,-11,-27,4
1,855,35998,-2996,-15895,-2315,-9,-38,4
1,856,36003,-2988,-15919,-2355,-13,-44,5
1,857,36008,-3034,-15916,-2373,-14,-52,6
1,858,36013,-3030,-15931,-2503,-13,-56,3
1,859,36018,-3014,-15919,-2547,-15,-62,3
1,860,36023,-3007,-15895,-2597,-15,-56,4
1,861,36028,-2990,-15879,-2642,-14,-42,8
1,862,36033,-3012,-15877,-2603,-14,-33,7
1,863,36038,-3002,-15857,-2594,-13,-28,7
1,864,36043,-3060,-15850,-2547,-15,-26,6
1,865,36048,-3124,-15896,-2477,-13,-26,3
1,866,36053,-3112,-15908,-2366,-13,-25,7
1,867,36058,-3054,-16027,-2347,-11,-28,7
1,868,36063,-3035,-16104,-2465,-14,-29,3
1,869,36068,-3113,-16089,-2573,-15,-26,3
1,870,36073,-3184,-16092,-2530,-15,-24,5
1,871,36078,-3210,-16052,-2524,-16,-18,4
1,872,36083,-3099,-16043,-2591,-15,-7,7
1,873,36088,-3054,-15986,-2710,-12,16,6
1,874,36093,-3087,-15944,-2698,-13,37,3
1,875,36098,-3130,-15871,-2566,-11,49,3
1,876,36103,-3184,-15785,-2409,-10,44,4
1,877,36108,-3187,-15829,-2333,-12,32,3
1,878,36113,-3090,-15960,-2349,-11,21,4
1,879,36118,-3039,-16054,-2275,-11,11,5
1,880,36123,-3069,-16055,-2296,-13,-4,-1
1,881,36128,-3092,-16002,-2405,-15,-22,-1
1,882,36133,-3009,-16031,-2649,-15,-21,3
1,883,36138,-3003,-16049,-2585,-13,-9,3
1,884,36143,-2974,-16031,-2526,-15,-2,4
1,885,36148,-2969,-15935,-2594,-16,2,-2
1,886,36153,-3051,-15869,-2643,-13,6,1
1,887,36158,-3067,-15812,-2670,-12,16,1
1,888,36163,-3098,-15808,-2509,-11,19,3
1,889,36168,-3153,-15865,-2356,-11,8,4
1,890,36173,-3143,-15926,-2249,-12,-10,2
1,891,36178,-3147,-16043,-2266,-14,-24,2
1,892,36183,-3149,-16124,-2329,-14,-28,0
1,893,36188,-3131,-16104,-2511,-14,-22,2
1,894,36193,-3097,-16072,-2634,-12,-8,3
1,895,36198,-3112,-16015,-2704,-14,12,-1
1,896,36203,-3022,-16019,-2628,-14,39,-2
1,897,36208,-3015,-15984,-2564,-12,52,0
1,898,36213,-2989,-15910,-2568,-7,64,2
1,899,36218,-2986,-15838,-2528,-6,66,3
1,900,36223,-2979,-15834,-2477,-7,61,1
1,901,36228,-3032,-15813,-2355,-7,52,0
1,902,36233,-3020,-15891,-2225,-6,40,0
1,903,36238,-3003,-15984,-2131,-8,23,2
1,904,36243,-2944,-16058,-2213,-12,3,4
1,905,36248,-2931,-16072,-2404,-12,-8,2
1,906,36253,-2875,-16026,-2584,-11,-6,1
1,907,36258,-2915,-15941,-2603,-11,0,0
1,908,36263,-2946,-15872,-2596,-11,9,0
1,909,36268,-2913,-15890,-2535,-11,14,4
1,910,36273,-2919,-15909,-2435,-9,15,4
1,911,36278,-2890,-15884,-2390,-7,12,5
1,912,36283,-2933,-15857,-2471,-9,3,6
1,913,36288,-2931,-15812,-2475,-9,-7,3
1,914,36293,-2911,-15804,-2501,-8,-16,4
1,915,36298,-2856,-15773,-2511,-5,-18,6
1,916,36303,-2919,-15836,-2496,-4,-20,7
1,917,36308,-2979,-15902,-2420,-5,-22,7
1,918,36313,-3024,-15924,-2430,-5,-23,6
1,919,36318,-2922,-15903,-2566,-4,-20,8
1,920,36323,-2824,-15883,-2682,-1,-3,7
1,921,36328,-2829,-15881,-2718,3,17,8
1,922,36333,-2892,-15850,-2614,3,36,7
1,923,36338,-2962,-15816,-2463,3,41,7
1,924,36343,-2998,-15889,-2296,6,33,8
1,925,36348,-3015,-15968,-2184,4,15,10
1,926,36353,-2943,-16013,-2164,1,3,12
1,927,36358,-2895,-16026,-2338,0,-7,13
1,928,36363,-2839,-16030,-2548,0,-8,9
1,929,36368,-2828,-15966,-2583,-1,-5,11
1,930,36373,-2882,-15927,-2537,0,-2,12
1,931,36378,-2908,-15872,-2470,5,5,12
1,932,36383,-2910,-15871,-2470,4,3,12
1,933,36388,-2980,-15867,-2487,5,-8,13
1,934,36393,-3024,-15845,-2454,6,-17,12
1,935,36398,-3014,-15852,-2430,5,-36,11
1,936,36403,-3076,-15891,-2342,9,-50,12
1,937,36408,-3034,-15969,-2385,5,-58,12
1,938,36413,-2960,-16011,-2472,2,-61,12
1,939,36418,-2923,-15978,-2609,6,-53,12
1,940,36423,-2969,-15875,-2720,7,-42,11
1,941,36428,-3036,-15861,-2734,13,-25,9
1,942,36433,-3064,-15867,-2654,11,-6,10
1,943,36438,-3037,-15886,-2486,10,3,12
1,944,36443,-3077,-15956,-2404,14,3,14
1,945,36448,-3131,-15979,-2371,12,-1,11
1,946,36453,-3164,-15892,-2421,13,-2,11
1,947,36458,-3167,-15885,-2581,12,3,9
1,948,36463,-3071,-15877,-2666,15,18,11
1,949,36468,-3000,-15903,-2647,14,33,13
1,950,36473,-2974,-15904,-2576,16,40,14
1,951,36478,-3067,-15840,-2433,17,37,9
1,952,36483,-3096,-15795,-2402,16,23,7
1,953,36488,-3071,-15794,-2403,18,10,11
1,954,36493,-3093,-15843,-2355,18,2,7
1,955,36498,-3066,-15860,-2413,17,-26,9
1,956,36503,-3060,-15794,-2557,17,-36,6
1,957,36508,-3055,-15770,-2626,16,-32,7
1,958,36513,-3053,-15849,-2574,19,-24,6
1,959,36518,-3141,-15933,-2421,19,-21,6
1,960,36523,-3181,-15961,-2324,20,-25,4
1,961,36528,-3170,-16010,-2438,20,-30,4
1,962,36533,-3143,-15995,-2520,18,-23,4
1,963,36538,-3106,-15989,-2649,20,-4,7
1,964,36543,-3089,-16006,-2569,21,11,6
1,965,36548,-3018,-16020,-2525,22,22,6
1,966,36553,-3036,-16005,-2504,22,29,4
1,967,36558,-3140,-16020,-2379,23,33,3
1,968,36563,-3134,-16041,-2342,23,28,5
1,969,36568,-3061,-16052,-2332,22,23,5
1,970,36573,-3003,-16090,-2366,20,21,5
1,971,36578,-2967,-16078,-2482,19,25,4
1,972,36583,-2961,-16053,-2539,22,30,3
1,973,36588,-3061,-16035,-2431,19,32,4
1,974,36593,-3118,-16028,-2392,18,21,4
1,975,36598,-3040,-16038,-2386,20,11,6
1,976,36603,-3005,-16064,-2410,20,9,5
1,977,36608,-3034,-16052,-2449,22,11,6
1,978,36613,-3103,-16025,-2440,23,9,3
1,979,36618,-3038,-16015,-2456,21,1,3
1,980,36623,-2998,-16007,-2464,19,-5,3
1,981,36628,-3001,-16011,-2360,20,-6,5
1,982,36633,-3049,-15978,-2373,18,-10,4
1,983,36638,-3029,-15971,-2464,19,-13,2
1,984,36643,-2970,-15960,-2632,21,-10,4
1,985,36648,-2966,-15945,-2670,21,4,4
1,986,36653,-2965,-15971,-2585,18,16,6
1,987,36658,-2969,-15980,-2479,19,20,7
1,988,36663,-2981,-15930,-2420,18,19,6
1,989,36668,-3060,-15924,-2411,19,14,4
1,990,36673,-3078,-15933,-2381,20,12,4
1,991,36678,-3041,-15985,-2368,21,10,7
1,992,36683,-3058,-15981,-2379,20,-1,4
1,993,36688,-3071,-15937,-2416,17,-9,4
1,994,36693,-3019,-15912,-2516,18,-7,4
1,995,36698,-3051,-15933,-2593,20,-8,4
1,996,36703,-3076,-15973,-2537,18,-7,8
1,997,36708,-3110,-15973,-2450,14,-12,4
1,998,36713,-3117,-16014,-2433,14,-13,3
1,999,36718,-3076,-16008,-2485,15,-14,4
2,0,53108,-2835,-15798,-3088,-24,-4,-21
2,1,53113,-2831,-15811,-3074,-22,-3,-23
2,2,53118,-2808,-15881,-3063,-22,-5,-23
2,3,53123,-2780,-15872,-3075,-24,-8,-22
2,4,53128,-2728,-15883,-3026,-20,-9,-20
2,5,53133,-2734,-15849,-3085,-19,-8,-22
2,6,53138,-2733,-15820,-3103,-20,-8,-24
2,7,53143,-2774,-15860,-3029,-20,-10,-22
2,8,53148,-2836,-15868,-2915,-18,-20,-22
2,9,53153,-2878,-15897,-2906,-19,-30,-21
2,10,53158,-2813,-15931,-2969,-21,-42,-19
2,11,53163,-2771,-15931,-3103,-19,-46,-21
2,12,53168,-2829,-15932,-3252,-19,-37,-23
2,13,53173,-2862,-15959,-3300,-17,-25,-21
2,14,53178,-2831,-15977,-3270,-18,-14,-20
2,15,53183,-2763,-16005,-3203,-14,-1,-20
2,16,53188,-2706,-15988,-3167,-14,8,-19
2,17,53193,-2742,-15948,-3139,-11,15,-17
2,18,53198,-2803,-15952,-3139,-12,20,-16
2,19,53203,-2823,-15948,-3059,-9,21,-18
2,20,53208,-2784,-15968,-2945,-8,14,-18
2,21,53213,-2768,-16008,-2910,-10,2,-17
2,22,53218,-2851,-16019,-2893,-11,-17,-18
2,23,53223,-2881,-15954,-2973,-11,-37,-20
2,24,53228,-2915,-15927,-3040,-11,-54,-18
2,25,53233,-2940,-15953,-3142,-9,-62,-19
2,26,53238,-2901,-15990,-3166,-9,-60,-19
2,27,53243,-2897,-15987,-3195,-12,-53,-16
2,28,53248,-2915,-15982,-3263,-11,-39,-17
2,29,53253,-2902,-15980,-3319,-9,-20,-19
2,30,53258,-2904,-15904,-3386,-5,4,-18
2,31,53263,-2901,-15888,-3403,-3,28,-20
2,32,53268,-2862,-15896,-3178,-3,47,-19
2,33,53273,-2899,-15903,-3028,0,51,-17
2,34,53278,-2901,-15879,-2900,-1,50,-21
2,35,53283,-2901,-15894,-2918,1,46,-22
2,36,53288,-2875,-15913,-2951,0,39,-21
2,37,53293,-2828,-15897,-2978,0,33,-22
2,38,53298,-2781,-15898,-2979,-2,28,-22
2,39,53303,-2745,-15788,-3059,-2,22,-22
2,40,53308,-2744,-15755,-3151,-2,22,-21
2,41,53313,-2698,-15777,-3157,-3,22,-18
2,42,53318,-2739,-15768,-3088,-3,22,-18
2,43,53323,-2770,-15726,-2998,-3,17,-20
2,44,53328,-2757,-15696,-2968,-4,7,-20
2,45,53333,-2702,-15671,-3020,-5,-4,-19
2,46,53338,-2682,-15670,-3046,-3,-5,-17
2,47,53343,-2703,-15643,-3081,-3,-7,-19
2,48,53348,-2730,-15622,-3055,-3,-17,-18
2,49,53353,-2766,-15652,-2974,-5,-24,-18
2,50,53358,-2813,-15708,-2947,-5,-32,-17
2,51,53363,-2823,-15743,-2955,-9,-41,-16
2,52,53368,-2818,-15708,-3044,-8,-46,-19
2,53,53373,-2813,-15712,-3120,-7,-42,-15
2,54,53378,-2889,-15716,-3188,-10,-31,-11
2,55,53383,-2843,-15767,-3157,-11,-16,-15
2,56,53388,-2920,-15768,-3095,-9,8,-13
2,57,53393,-2917,-15785,-3116,-11,15,-14
2,58,53398,-2842,-15797,-3205,-9,24,-16
2,59,53403,-2832,-15791,-3175,-8,38,-19
2,60,53408,-2881,-15763,-3096,-6,43,-17
2,61,53413,-2840,-15795,-3030,-8,40,-17
2,62,53418,-2832,-15790,-2999,-8,36,-17
2,63,53423,-2820,-15819,-2960,-9,27,-13
2,64,53428,-2783,-15844,-2934,-11,15,-14
2,65,53433,-2748,-15887,-2935,-15,-1,-14
2,66,53438,-2751,-15897,-2949,-15,-15,-13
2,67,53443,-2751,-15896,-2978,-16,-26,-12
2,68,53448,-2798,-15962,-3052,-18,-34,-13
2,69,53453,-2771,-15941,-3115,-18,-37,-10
2,70,53458,-2716,-15889,-3214,-17,-35,-10
2,71,53463,-2738,-15899,-3283,-20,-23,-11
2,72,53468,-2786,-15840,-3355,-18,-6,-9
2,73,53473,-2771,-15824,-3304,-14,7,-6
2,74,53478,-2777,-15842,-3137,-14,18,-6
2,75,53483,-2845,-15853,-3026,-15,18,-7
2,76,53488,-2928,-15800,-3026,-16,9,-9
2,77,53493,-2942,-15855,-2992,-17,-4,-8
2,78,53498,-2977,-15857,-3031,-15,-18,-7
2,79,53503,-3024,-15835,-3064,-20,-29,-7
2,80,53508,-3051,-15841,-3202,-21,-33,-12
2,81,53513,-3048,-15806,-3327,-17,-30,-7
2,82,53518,-3064,-15803,-3363,-14,-22,-9
2,83,53523,-3081,-15827,-3355,-16,-13,-10
2,84,53528,-3096,-15887,-3278,-13,-3,-8
2,85,53533,-2994,-15904,-3287,-13,9,-9
2,86,53538,-2959,-15902,-3332,-11,19,-10
2,87,53543,-2959,-15910,-3330,-7,31,-12
2,88,53548,-2945,-15950,-3297,-6,39,-13
2,89,53553,-2961,-15963,-3252,-7,43,-14
2,90,53558,-2854,-15925,-3249,-5,46,-12
2,91,53563,-2772,-15875,-3330,-3,48,-11
2,92,53568,-2739,-15811,-3289,-1,54,-12
2,93,53573,-2698,-15809,-3321,-1,59,-11
2,94,53578,-2686,-15805,-3246,-1,58,-9
2,95,53583,-2628,-15825,-3211,-1,54,-7
2,96,53588,-2588,-15875,-3202,-2,45,-5
2,97,53593,-2549,-15853,-3210,1,38,-4
2,98,53598,-2561,-15873,-3162,1,28,-3
2,99,53603,-2540,-15889,-3157,2,13,-1
2,100,53608,-2518,-15879,-3168,2,6,-2
2,101,53613,-2463,-15961,-3238,0,0,0
2,102,53618,-2488,-15975,-3204,-2,-7,1
2,103,53623,-2585,-15934,-3195,-3,-10,4
2,104,53628,-2612,-15880,-3204,-3,-11,3
2,105,53633,-2558,-15898,-3272,3,-6,6
2,106,53638,-2562,-15883,-3357,1,-1,7
2,107,53643,-2559,-15882,-3282,1,9,7
2,108,53648,-2581,-15885,-3177,1,12,10
2,109,53653,-2670,-15888,-3139,1,12,8
2,110,53658,-2676,-15851,-3263,-1,16,10
2,111,53663,-2656,-15873,-3323,0,18,12
2,112,53668,-2632,-15887,-3278,2,21,12
2,113,53673,-2579,-15851,-3246,4,23,14
2,114,53678,-2600,-15837,-3207,5,22,15
2,115,53683,-2616,-15872,-3177,7,15,16
2,116,53688,-2671,-15889,-3210,4,5,16
2,117,53693,-2675,-15908,-3165,2,-9,17
2,118,53698,-2636,-15875,-3147,-1,-25,19
2,119,53703,-2616,-15820,-3167,-3,-33,17
2,120,53708,-2627,-15775,-3267,1,-41,17
2,121,53713,-2692,-15759,-3368,3,-43,21
2,122,53718,-2761,-15828,-3260,1,-45,16
2,123,53723,-2804,-15834,-3139,-1,-48,16
2,124,53728,-2729,-15822,-3221,-5,-48,20
2,125,53733,-2699,-15870,-3332,-3,-41,20
2,126,53738,-2765,-15886,-3369,2,-29,18
2,127,53743,-2855,-15859,-3331,0,-15,17
2,128,53748,-2850,-15819,-3253,-1,-6,16
2,129,53753,-2799,-15818,-3199,0,-1,20
2,130,53758,-2797,-15823,-3220,0,5,16
2,131,53763,-2846,-15771,-3195,1,-1,15
2,132,53768,-2873,-15730,-3165,0,-10,18
2,133,53773,-2861,-15714,-3169,0,-17,15
2,134,53778,-2774,-15754,-3196,1,-16,18
2,135,53783,-2777,-15734,-3211,-2,-17,16
2,136,53788,-2806,-15742,-3206,-3,-21,11
2,137,53793,-2868,-15769,-3261,-2,-25,14
2,138,53798,-2864,-15753,-3220,-1,-27,14
2,139,53803,-2808,-15784,-3227,0,-26,14
2,140,53808,-2790,-15870,-3208,-2,-22,11
2,141,53813,-2804,-15860,-3245,-1,-14,13
2,142,53818,-2874,-15826,-3281,-2,-4,11
2,143,53823,-2851,-15833,-3312,-2,5,11
2,144,53828,-2788,-15849,-3274,-2,15,10
2,145,53833,-2864,-15839,-3101,-1,22,8
2,146,53838,-2874,-15836,-3031,0,15,10
2,147,53843,-2807,-15801,-3073,0,7,10
2,148,53848,-2800,-15827,-3090,-2,5,8
2,149,53853,-2822,-15825,-3123,-2,2,5
2,150,53858,-2836,-15819,-3114,-3,-8,5
2,151,53863,-2775,-15859,-3136,-2,-17,9
2,152,53868,-2762,-15905,-3110,-4,-22,8
2,153,53873,-2790,-15892,-3134,-3,-26,6
2,154,53878,-2771,-15887,-3264,-5,-29,4
2,155,53883,-2804,-15891,-3369,-5,-29,6
2,156,53888,-2783,-15871,-3324,-1,-25,4
2,157,53893,-2747,-15864,-3255,-1,-19,5
2,158,53898,-2735,-15896,-3308,-1,-15,6
2,159,53903,-2742,-15931,-3285,0,-17,4
2,160,53908,-2884,-15921,-3217,-2,-22,1
2,161,53913,-2922,-15882,-3162,-3,-26,2
2,162,53918,-2887,-15941,-3201,-3,-25,3
2,163,53923,-2828,-15973,-3292,-1,-17,1
2,164,53928,-2773,-15954,-3386,1,-2,1
2,165,53933,-2814,-15917,-3358,4,13,-1
2,166,53938,-2835,-15881,-3285,4,21,-2
2,167,53943,-2893,-15856,-3166,4,16,-1
2,168,53948,-2864,-15807,-3105,2,9,-2
2,169,53953,-2811,-15782,-3119,3,1,-1
2,170,53958,-2912,-15826,-3151,6,-10,-1
2,171,53963,-2942,-15879,-3179,1,-20,-2
2,172,53968,-2867,-15952,-3176,3,-27,-2
2,173,53973,-2702,-15987,-3238,3,-25,-3
2,174,53978,-2654,-15998,-3325,3,-13,-6
2,175,53983,-2769,-15935,-3314,5,-5,-8
2,176,53988,-2873,-15856,-3199,4,-4,-5
2,177,53993,-2834,-15814,-3145,2,-10,-5
2,178,53998,-2739,-15815,-3134,4,-17,-5
2,179,54003,-2715,-15855,-3115,5,-23,-4
2,180,54008,-2835,-15921,-3044,4,-32,-5
2,181,54013,-2882,-15977,-2991,1,-47,-6
2,182,54018,-2809,-15982,-3094,-2,-54,-5
2,183,54023,-2646,-15961,-3256,0,-47,-6
2,184,54028,-2665,-15907,-3353,1,-29,-6
2,185,54033,-2768,-15864,-3340,1,-14,-6
2,186,54038,-2853,-15750,-3288,-1,-10,-9
2,187,54043,-2816,-15674,-3216,3,-9,-7
2,188,54048,-2744,-15599,-3190,2,-12,-6
2,189,54053,-2755,-15631,-3176,3,-19,-7
2,190,54058,-2852,-15691,-3139,4,-32,-10
2,191,54063,-2922,-15750,-3086,2,-44,-10
2,192,54068,-2854,-15825,-3145,2,-56,-11
2,193,54073,-2741,-15855,-3224,2,-52,-10
2,194,54078,-2695,-15857,-3379,3,-37,-9
2,195,54083,-2737,-15836,-3435,5,-15,-8
2,196,54088,-2754,-15737,-3421,8,1,-9
2,197,54093,-2773,-15696,-3264,8,13,-8
2,198,54098,-2717,-15702,-3125,7,15,-7
2,199,54103,-2721,-15729,-3030,7,8,-9
2,200,54108,-2754,-15794,-3013,5,-6,-9
2,201,54113,-2739,-15846,-3068,5,-24,-8
2,202,54118,-2714,-15827,-3061,6,-41,-7
2,203,54123,-2677,-15818,-3156,6,-63,-6
2,204,54128,-2780,-15894,-3072,4,-70,-8
2,205,54133,-2832,-15986,-3137,3,-78,-8
2,206,54138,-2831,-16014,-3260,3,-82,-6
2,207,54143,-2762,-15983,-3251,8,-73,-10
2,208,54148,-2850,-15903,-3322,5,-59,-7
2,209,54153,-2787,-15908,-3302,5,-45,-7
2,210,54158,-2984,-15919,-3177,8,-34,-9
2,211,54163,-2938,-15958,-3122,9,-32,-6
2,212,54168,-2921,-15926,-3084,8,-32,-7
2,213,54173,-2807,-15884,-3136,9,-36,-8
2,214,54178,-2811,-15797,-3269,9,-30,-8
2,215,54183,-2860,-15782,-3316,9,-24,-12
2,216,54188,-2964,-15769,-3162,8,-22,-14
2,217,54193,-2960,-15798,-3096,10,-30,-12
2,218,54198,-2849,-15837,-3092,11,-35,-12
2,219,54203,-2795,-15863,-3133,8,-32,-11
2,220,54208,-2878,-15826,-3157,11,-28,-15
2,221,54213,-3005,-15858,-3154,10,-32,-17
2,222,54218,-3019,-15856,-3056,12,-38,-15
2,223,54223,-2938,-15849,-3105,11,-43,-12
2,224,54228,-2836,-15920,-3069,10,-39,-15
2,225,54233,-2946,-15934,-3130,13,-41,-16
2,226,54238,-3029,-15918,-3152,11,-44,-15
2,227,54243,-3095,-15886,-3115,10,-48,-18
2,228,54248,-3010,-15943,-3200,10,-49,-18
2,229,54253,-2938,-15983,-3174,12,-36,-20
2,230,54258,-2893,-15998,-3238,12,-20,-19
2,231,54263,-2921,-15974,-3253,12,-8,-20
2,232,54268,-2910,-15911,-3268,13,3,-21
2,233,54273,-2845,-15865,-3245,11,14,-19
2,234,54278,-2801,-15837,-3122,11,21,-20
2,235,54283,-2813,-15868,-3070,13,23,-21
2,236,54288,-2798,-15850,-3131,11,21,-20
2,237,54293,-2774,-15824,-3095,9,18,-18
2,238,54298,-2785,-15834,-3024,10,13,-20
2,239,54303,-2724,-15825,-3061,11,4,-22
2,240,54308,-2749,-15809,-3027,8,-4,-18
2,241,54313,-2739,-15855,-3075,7,-18,-16
2,242,54318,-2814,-15802,-3089,7,-25,-18
2,243,54323,-2819,-15785,-3115,3,-33,-17
2,244,54328,-2761,-15771,-3176,4,-37,-16
2,245,54333,-2747,-15745,-3227,6,-36,-15
2,246,54338,-2764,-15707,-3314,4,-32,-14
2,247,54343,-2787,-15714,-3292,3,-25,-15
2,248,54348,-2757,-15739,-3186,3,-22,-16
2,249,54353,-2791,-15738,-3142,3,-24,-16
2,250,54358,-2780,-15777,-3121,0,-30,-12
2,251,54363,-2771,-15772,-3151,5,-28,-12
2,252,54368,-2757,-15795,-3252,3,-23,-12
2,253,54373,-2747,-15802,-3326,0,-16,-12
2,254,54378,-2761,-15774,-3311,1,-7,-9
2,255,54383,-2727,-15788,-3256,2,1,-8
2,256,54388,-2754,-15746,-3190,1,4,-8
2,257,54393,-2715,-15778,-3122,2,3,-8
2,258,54398,-2771,-15781,-3124,3,-2,-7
2,259,54403,-2715,-15808,-3076,2,-13,-3
2,260,54408,-2776,-15812,-3005,-1,-22,-5
2,261,54413,-2794,-15826,-3075,1,-36,-6
2,262,54418,-2784,-15828,-3103,-5,-47,-3
2,263,54423,-2799,-15895,-3150,-5,-55,-4
2,264,54428,-2799,-15926,-3208,-1,-60,-3
2,265,54433,-2838,-15918,-3273,-3,-60,-2
2,266,54438,-2835,-15892,-3312,-6,-59,-1
2,267,54443,-2835,-15890,-3297,-6,-48,0
2,268,54448,-2852,-15901,-3311,-4,-34,1
2,269,54453,-2843,-15907,-3267,-5,-22,-2
2,270,54458,-2851,-15929,-3231,-2,-11,0
2,271,54463,-2883,-15918,-3190,-2,-3,1
2,272,54468,-2871,-15881,-3214,-4,-4,-1
2,273,54473,-2874,-15910,-3173,-6,-4,-1
2,274,54478,-2861,-15929,-3215,-4,0,0
2,275,54483,-2834,-15895,-3183,-1,0,0
2,276,54488,-2858,-15916,-3207,-6,-8,2
2,277,54493,-2810,-15884,-3175,-6,-11,1
2,278,54498,-2835,-15817,-3166,-7,-14,-2
2,279,54503,-2806,-15796,-3201,-7,-17,1
2,280,54508,-2858,-15771,-3114,-7,-22,-1
2,281,54513,-2859,-15800,-3088,-8,-28,0
2,282,54518,-2892,-15759,-3133,-9,-35,0
2,283,54523,-2867,-15767,-3147,-5,-40,1
2,284,54528,-2869,-15824,-3169,-6,-42,1
2,285,54533,-2941,-15849,-3123,-8,-47,1
2,286,54538,-2940,-15856,-3125,-9,-53,0
2,287,54543,-2928,-15867,-3161,-11,-50,-1
2,288,54548,-2963,-15891,-3258,-9,-43,2
2,289,54553,-2930,-15897,-3281,-6,-32,-1
2,290,54558,-2964,-15962,-3255,-7,-17,-2
2,291,54563,-3005,-15912,-3216,-8,-7,-2
2,292,54568,-2941,-15913,-3176,-6,1,-2
2,293,54573,-2881,-15901,-3175,-5,7,0
2,294,54578,-2946,-15945,-3280,-5,13,-2
2,295,54583,-2890,-15884,-3223,-1,21,-3
2,296,54588,-2885,-15870,-3155,-4,26,-4
2,297,54593,-2880,-15868,-3118,-6,30,-2
2,298,54598,-2877,-15867,-3085,-4,31,-2
2,299,54603,-2839,-15860,-3066,-1,29,-3
2,300,54608,-2824,-15841,-3104,-4,29,-3
2,301,54613,-2830,-15852,-3120,-2,27,-1
2,302,54618,-2807,-15820,-3136,-4,29,0
2,303,54623,-2760,-15825,-3117,-5,27,-2
2,304,54628,-2744,-15795,-3094,-5,22,-2
2,305,54633,-2782,-15756,-3043,-3,18,-3
2,306,54638,-2724,-15754,-3064,-5,11,-1
2,307,54643,-2710,-15729,-3078,-4,5,-1
2,308,54648,-2694,-15732,-3077,-3,-3,2
2,309,54653,-2661,-15719,-3053,-7,-12,2
2,310,54658,-2719,-15733,-3083,-7,-20,2
2,311,54663,-2703,-15745,-3103,-7,-20,-1
2,312,54668,-2657,-15758,-3172,-8,-20,2
2,313,54673,-2661,-15764,-3199,-8,-20,5
2,314,54678,-2688,-15785,-3233,-4,-10,6
2,315,54683,-2734,-15816,-3248,-5,0,4
2,316,54688,-2764,-15801,-3199,-4,7,6
2,317,54693,-2765,-15788,-3188,-3,16,5
2,318,54698,-2713,-15791,-3247,-2,21,7
2,319,54703,-2715,-15858,-3246,-2,25,5
2,320,54708,-2741,-15827,-3149,-5,24,5
2,321,54713,-2808,-15799,-3059,-4,19,7
2,322,54718,-2816,-15779,-3052,-5,14,6
2,323,54723,-2839,-15779,-3134,-4,15,5
2,324,54728,-2823,-15787,-3126,-3,22,1
2,325,54733,-2940,-15774,-3058,-3,17,0
2,326,54738,-2918,-15713,-3029,-7,8,2
2,327,54743,-2855,-15707,-3028,-8,2,2
2,328,54748,-2896,-15680,-3095,-4,-1,1
2,329,54753,-2913,-15695,-3114,-7,-4,-2
2,330,54758,-2985,-15709,-3101,-8,-11,0
2,331,54763,-2994,-15707,-3102,-9,-17,-2
2,332,54768,-2958,-15693,-3168,-9,-21,-2
2,333,54773,-2896,-15665,-3318,-7,-13,-4
2,334,54778,-2892,-15653,-3360,-8,0,-4
2,335,54783,-2877,-15627,-3234,-9,10,-5
2,336,54788,-2935,-15628,-3165,-7,16,-9
2,337,54793,-2899,-15641,-3240,-7,24,-10
2,338,54798,-2826,-15677,-3345,-4,39,-7
2,339,54803,-2802,-15707,-3220,-4,48,-10
2,340,54808,-2847,-15787,-2998,-4,52,-10
2,341,54813,-2889,-15838,-2950,-2,41,-9
2,342,54818,-2842,-15854,-3025,-4,29,-12
2,343,54823,-2769,-15900,-3105,-7,28,-11
2,344,54828,-2739,-15912,-3108,-5,26,-10
2,345,54833,-2781,-15959,-3110,-7,25,-14
2,346,54838,-2773,-15977,-3082,-7,23,-16
2,347,54843,-2719,-16055,-3050,-6,18,-14
2,348,54848,-2690,-16054,-3099,-10,12,-10
2,349,54853,-2627,-16047,-3155,-12,8,-10
2,350,54858,-2657,-16044,-3247,-8,10,-13
2,351,54863,-2664,-16055,-3191,-7,9,-10
2,352,54868,-2632,-16020,-3172,-9,5,-9
2,353,54873,-2588,-15985,-3175,-9,3,-9
2,354,54878,-2610,-15974,-3205,-8,-4,-8
2,355,54883,-2629,-15986,-3182,-6,-4,-11
2,356,54888,-2664,-15982,-3176,-6,-6,-8
2,357,54893,-2673,-15953,-3201,-9,-12,-8
2,358,54898,-2666,-15958,-3245,-9,-15,-8
2,359,54903,-2674,-15896,-3254,-7,-15,-8
2,360,54908,-2725,-15900,-3279,-7,-14,-6
2,361,54913,-2781,-15890,-3306,-6,-12,-5
2,362,54918,-2799,-15862,-3261,-9,-11,-6
2,363,54923,-2793,-15821,-3287,-8,-11,-4
2,364,54928,-2705,-15851,-3300,-7,-11,-6
2,365,54933,-2720,-15836,-3270,-5,-8,-4
2,366,54938,-2781,-15751,-3177,-3,-7,-5
2,367,54943,-2942,-15754,-3139,-4,-16,-3
2,368,54948,-2928,-15783,-3167,-4,-25,-1
2,369,54953,-2827,-15821,-3174,-8,-30,4
2,370,54958,-2574,-15825,-3235,-10,-26,13
2,371,54963,-2498,-15832,-3235,-10,-14,15
2,372,54968,-2706,-15787,-3237,-12,1,15
2,373,54973,-2730,-15623,-3304,-15,12,23
2,374,54978,-2552,-15625,-3440,-14,32,37
2,375,54983,-2225,-15732,-3536,-13,69,51
2,376,54988,-1890,-15970,-3436,-13,117,66
2,377,54993,-1603,-16101,-3256,-14,148,80
2,378,54998,-1224,-16163,-3005,-17,154,104
2,379,55003,-489,-16248,-2807,-19,139,129
2,380,55008,40,-16277,-2358,-25,100,153
2,381,55013,-219,-16246,-1502,-36,6,171
2,382,55018,-719,-16190,-765,-54,-173,194
2,383,55023,-1012,-16034,-727,-72,-408,223
2,384,55028,-892,-16094,-1036,-93,-634,267
2,385,55033,-1039,-16084,-913,-116,-814,305
2,386,55038,-1616,-15870,-739,-134,-983,329
2,387,55043,-2441,-15591,-1050,-149,-1167,351
2,388,55048,-3364,-15437,-2140,-162,-1339,375
2,389,55053,-3933,-15326,-2961,-170,-1435,406
2,390,55058,-4150,-15379,-3771,-176,-1459,446
2,391,55063,-4409,-15386,-4146,-174,-1400,473
2,392,55068,-4785,-15192,-4729,-168,-1303,490
2,393,55073,-5224,-14987,-5489,-158,-1167,514
2,394,55078,-5539,-14834,-5909,-144,-982,535
2,395,55083,-5684,-14614,-5697,-135,-768,564
2,396,55088,-5541,-14465,-5843,-121,-567,602
2,397,55093,-5872,-14707,-3818,-108,-384,638
2,398,55098,-5837,-14573,-3211,-122,-401,649
2,399,55103,-5950,-14632,-2885,-125,-447,683
2,400,55108,-5796,-14669,-3956,-121,-512,703
2,401,55113,-5893,-14369,-3850,-117,-512,713
2,402,55118,-5937,-14397,-3268,-117,-520,743
2,403,55123,-5577,-14443,-3663,-111,-547,769
2,404,55128,-5487,-14354,-4214,-112,-578,790
2,405,55133,-5570,-14370,-4507,-121,-604,821
2,406,55138,-6148,-14377,-3971,-131,-602,857
2,407,55143,-6355,-14363,-3548,-127,-600,883
2,408,55148,-6248,-14294,-3914,-118,-587,909
2,409,55153,-6006,-14489,-4058,-112,-551,939
2,410,55158,-6029,-14558,-3906,-112,-517,954
2,411,55163,-6468,-14480,-3540,-114,-501,966
2,412,55168,-6881,-14472,-3811,-112,-498,986
2,413,55173,-6933,-14483,-4096,-106,-466,1014
2,414,55178,-6809,-14712,-4099,-105,-407,1037
2,415,55183,-6892,-14665,-3584,-103,-351,1052
2,416,55188,-7002,-14762,-3310,-108,-332,1064
2,417,55193,-7188,-14631,-3236,-111,-331,1069
2,418,55198,-7383,-14618,-3447,-111,-330,1089
2,419,55203,-7523,-14766,-3559,-108,-314,1111
2,420,55208,-7417,-14833,-3564,-112,-288,1132
2,421,55213,-6904,-14868,-3428,-115,-265,1147
2,422,55218,-6695,-14897,-3357,-117,-243,1153
2,423,55223,-7388,-14735,-3201,-116,-212,1170
2,424,55228,-7445,-14721,-2992,-124,-223,1191
2,425,55233,-7067,-14794,-2725,-130,-248,1206
2,426,55238,-6707,-14839,-2729,-132,-277,1216
2,427,55243,-6799,-14847,-2739,-131,-301,1216
2,428,55248,-7230,-14770,-2939,-137,-340,1219
2,429,55253,-7564,-14589,-3055,-144,-391,1230
2,430,55258,-7669,-14816,-2980,-150,-426,1251
2,431,55263,-7419,-14877,-3143,-151,-434,1262
2,432,55268,-7096,-14979,-3281,-150,-411,1269
2,433,55273,-7402,-14989,-3516,-148,-385,1265
2,434,55278,-7970,-14893,-3664,-148,-367,1261
2,435,55283,-8179,-14755,-3776,-149,-354,1269
2,436,55288,-8041,-14787,-3613,-150,-312,1279
2,437,55293,-7918,-14890,-3316,-147,-262,1284
2,438,55298,-8086,-14945,-3052,-145,-238,1280
2,439,55303,-8503,-14847,-2934,-144,-250,1266
2,440,55308,-8953,-14684,-2998,-148,-291,1257
2,441,55313,-9084,-14506,-3243,-150,-319,1256
2,442,55318,-8914,-14478,-3296,-148,-316,1261
2,443,55323,-8741,-14573,-3147,-149,-299,1256
2,444,55328,-8908,-14438,-3151,-148,-293,1239
2,445,55333,-9193,-14463,-3331,-145,-308,1227
2,446,55338,-9261,-14410,-3556,-148,-330,1218
2,447,55343,-9266,-14350,-3533,-148,-314,1208
2,448,55348,-9296,-14475,-3349,-142,-290,1203
2,449,55353,-9297,-14495,-3464,-139,-264,1185
2,450,55358,-9264,-14505,-3627,-135,-223,1168
2,451,55363,-9173,-14324,-3805,-132,-178,1147
2,452,55368,-9278,-14360,-3724,-131,-125,1133
2,453,55373,-9475,-14293,-3488,-123,-71,1119
2,454,55378,-9440,-14089,-3677,-122,-26,1102
2,455,55383,-9348,-14225,-3375,-115,32,1090
2,456,55388,-9328,-14001,-3102,-120,49,1061
2,457,55393,-9343,-14148,-3049,-120,45,1041
2,458,55398,-9376,-13984,-3155,-112,27,1015
2,459,55403,-9320,-13824,-3422,-115,18,997
2,460,55408,-9171,-13868,-3354,-114,23,981
2,461,55413,-9093,-13858,-3195,-109,15,953
2,462,55418,-9019,-13868,-3357,-110,-9,922
2,463,55423,-9102,-13770,-3368,-112,-39,894
2,464,55428,-9214,-13444,-3253,-106,-69,855
2,465,55433,-9428,-12956,-2771,-107,-89,831
2,466,55438,-9616,-13372,-2104,-106,-126,833
2,467,55443,-9494,-13512,-2595,-105,-191,808
2,468,55448,-9171,-13544,-2930,-109,-208,785
2,469,55453,-8723,-13768,-3751,-106,-169,771
2,470,55458,-7960,-11638,-4750,-79,-77,767
2,471,55463,-9125,-14492,-3527,-69,60,805
2,472,55468,-9050,-13814,-5122,-119,105,679
2,473,55473,-9053,-13477,-3406,-129,261,612
2,474,55478,-8181,-12940,-3530,-69,421,569
2,475,55483,-8936,-13170,-2473,-34,474,612
2,476,55488,-8832,-13698,-1469,-44,332,600
2,477,55493,-8712,-12945,-3208,-75,137,540
2,478,55498,-8232,-13054,-3612,-82,167,524
2,479,55503,-8303,-12878,-4065,-70,295,502
2,480,55508,-8551,-12915,-2521,-67,370,481
2,481,55513,-8311,-12960,-1688,-78,241,452
2,482,55518,-7868,-12683,-2335,-79,29,406
2,483,55523,-7961,-12539,-3111,-75,-97,381
2,484,55528,-8613,-12426,-3375,-66,-112,364
2,485,55533,-8901,-12343,-3233,-62,-86,343
2,486,55538,-8470,-12392,-3258,-71,-71,319
2,487,55543,-7825,-12548,-3495,-70,-61,291
2,488,55548,-7984,-12550,-3231,-62,-44,256
2,489,55553,-8479,-12519,-3206,-55,-51,228
2,490,55558,-8782,-12428,-3609,-47,-59,204
2,491,55563,-8575,-12419,-4087,-37,-21,179
2,492,55568,-8339,-12548,-4012,-36,65,151
2,493,55573,-8330,-12560,-3444,-28,156,125
2,494,55578,-8534,-12478,-3176,-21,192,93
2,495,55583,-8638,-12300,-3285,-16,195,60
2,496,55588,-8583,-12334,-3448,-15,198,36
2,497,55593,-8507,-12358,-3032,-6,202,-11
2,498,55598,-8485,-12345,-3145,-1,188,-41
2,499,55603,-8577,-12286,-3393,1,183,-84
2,500,55608,-8743,-12152,-3468,5,179,-119
2,501,55613,-8840,-12166,-3348,9,163,-145
2,502,55618,-8832,-12206,-3182,13,145,-169
2,503,55623,-8879,-12288,-3117,17,124,-204
2,504,55628,-8946,-12395,-3359,23,113,-239
2,505,55633,-8912,-12412,-3789,29,126,-269
2,506,55638,-8737,-12457,-4157,32,168,-300
2,507,55643,-8704,-12507,-4119,37,228,-331
2,508,55648,-8771,-12446,-3927,44,290,-366
2,509,55653,-8881,-12431,-3911,56,334,-398
2,510,55658,-8871,-12495,-3874,66,369,-426
2,511,55663,-8777,-12532,-3687,69,402,-457
2,512,55668,-8736,-12615,-3448,75,413,-487
2,513,55673,-8677,-12691,-3329,80,405,-520
2,514,55678,-8653,-12700,-3441,82,390,-552
2,515,55683,-8670,-12710,-3544,90,381,-584
2,516,55688,-8784,-12719,-3501,94,371,-615
2,517,55693,-8767,-12815,-3473,97,356,-643
2,518,55698,-8533,-12932,-3714,100,357,-669
2,519,55703,-8353,-13035,-3837,104,380,-697
2,520,55708,-8348,-13130,-3732,111,402,-729
2,521,55713,-8550,-13216,-3530,112,413,-762
2,522,55718,-8568,-13195,-3711,116,404,-790
2,523,55723,-8276,-13298,-3950,121,415,-810
2,524,55728,-8063,-13372,-4053,130,444,-841
2,525,55733,-8132,-13445,-3841,135,479,-871
2,526,55738,-8209,-13364,-3714,138,479,-901
2,527,55743,-8138,-13316,-3722,144,465,-926
2,528,55748,-8035,-13355,-4044,151,461,-946
2,529,55753,-7904,-13508,-4019,156,483,-967
2,530,55758,-8012,-13471,-3930,161,507,-993
2,531,55763,-8847,-13566,-2827,172,546,-1012
2,532,55768,-7531,-13324,-4776,173,491,-1030
2,533,55773,-7486,-13927,-6316,199,663,-1015
2,534,55778,-7240,-14336,-5433,213,838,-1076
2,535,55783,-8620,-13214,-3894,211,952,-1112
2,536,55788,-7607,-14407,-4660,228,991,-1084
2,537,55793,-7404,-13649,-5724,261,1104,-1125
2,538,55798,-7067,-14321,-5069,276,1242,-1121
2,539,55803,-7833,-14298,-4063,284,1330,-1148
2,540,55808,-7630,-14034,-3949,307,1381,-1179
2,541,55813,-7202,-14260,-4800,319,1403,-1180
2,542,55818,-6661,-14323,-4664,333,1448,-1204
2,543,55823,-6687,-14532,-4035,348,1472,-1215
2,544,55828,-6360,-14545,-3475,358,1438,-1230
2,545,55833,-5956,-14375,-3402,361,1351,-1241
2,546,55838,-5723,-14401,-2824,360,1252,-1252
2,547,55843,-5780,-14381,-2102,361,1100,-1260
2,548,55848,-6044,-14422,-1718,357,872,-1267
2,549,55853,-5313,-14666,-2227,341,578,-1279
2,550,55858,-4955,-14266,-1977,343,387,-1301
2,551,55863,-4830,-14652,-2864,340,161,-1307
2,552,55868,-5613,-14748,-4264,343,44,-1307
2,553,55873,-5393,-14035,-4424,340,-17,-1342
2,554,55878,-5335,-14534,-5318,318,-4,-1309
2,555,55883,-4927,-14657,-5032,332,139,-1316
2,556,55888,-5058,-14648,-4848,340,251,-1319
2,557,55893,-5207,-14829,-4478,349,314,-1333
2,558,55898,-5529,-14319,-4426,353,310,-1360
2,559,55903,-5500,-14576,-4338,356,312,-1350
2,560,55908,-5372,-14528,-4501,356,309,-1352
2,561,55913,-5198,-14573,-4299,359,348,-1354
2,562,55918,-5194,-14557,-4139,364,357,-1365
2,563,55923,-5242,-14648,-3861,359,324,-1379
2,564,55928,-5393,-14555,-3560,355,246,-1398
2,565,55933,-5289,-14383,-3610,349,147,-1398
2,566,55938,-5218,-14676,-3568,349,58,-1388
2,567,55943,-5536,-15087,-3228,339,-46,-1400
2,568,55948,-5979,-15095,-3236,326,-167,-1430
2,569,55953,-5774,-15097,-3789,317,-268,-1434
2,570,55958,-4098,-15739,-4829,303,-232,-1424
2,571,55963,-4282,-15875,-4818,303,-148,-1443
2,572,55968,-4797,-15727,-4804,306,-72,-1458
2,573,55973,-4618,-15670,-4978,309,-10,-1458
2,574,55978,-4082,-15714,-4711,313,71,-1454
2,575,55983,-3657,-16139,-3973,315,140,-1447
2,576,55988,-3789,-16250,-3140,311,140,-1460
2,577,55993,-3778,-16244,-3241,301,62,-1462
2,578,55998,-3664,-16266,-3627,292,-19,-1462
2,579,56003,-3604,-16263,-3681,283,-68,-1461
2,580,56008,-3503,-16320,-3333,276,-104,-1458
2,581,56013,-3479,-16410,-3152,272,-161,-1459
2,582,56018,-3486,-16454,-3408,262,-239,-1463
2,583,56023,-3737,-16381,-3570,251,-311,-1473
2,584,56028,-4122,-16377,-3485,242,-373,-1476
2,585,56033,-4565,-16603,-3368,234,-432,-1472
2,586,56038,-5290,-16949,-4048,221,-470,-1469
2,587,56043,-4197,-16382,-6005,223,-419,-1474
2,588,56048,-1777,-16473,-5259,227,-229,-1421
2,589,56053,-1096,-17582,-3402,209,-119,-1405
2,590,56058,-3293,-17149,-2438,210,-129,-1450
2,591,56063,-4072,-16798,-4706,213,-243,-1440
2,592,56068,-3290,-16910,-6544,210,-194,-1402
2,593,56073,-2383,-17528,-5489,202,24,-1383
2,594,56078,-2347,-17750,-2817,216,258,-1410
2,595,56083,-2559,-16711,-2676,239,268,-1451
2,596,56088,-2522,-16811,-2772,233,168,-1405
2,597,56093,-1909,-16776,-4890,212,14,-1391
2,598,56098,1818,-10025,-10639,215,88,-1392
2,599,56103,4509,-30203,-10340,524,1208,-1575
2,600,56108,-32768,-3153,14838,237,574,-1707
2,601,56130,-11036,-28614,32767,148,4857,-587
2,602,56131,-32768,-3606,3569,166,-1295,-812
2,603,56131,-32768,-3606,3569,166,-1295,-812
2,604,56132,-32768,-3606,3569,166,-1295,-812
2,605,56133,-32768,-3606,3569,166,-1295,-812
2,606,56138,-24562,1484,-32768,-36,-4297,441
2,607,56143,16665,-6975,-29840,-237,-3206,1194
2,608,56148,32767,-25805,1966,-425,448,1206
2,609,56153,6206,-24886,18041,-130,2583,387
2,610,56158,-21798,-14511,4167,145,1620,54
2,611,56163,-24550,-7177,-13030,132,-707,327
2,612,56168,-1033,-11413,-13625,-176,-2001,721
2,613,56173,15180,-14926,393,-317,-1335,743
2,614,56178,10484,-20764,6425,-160,327,679
2,615,56183,-7468,-18737,-1342,35,931,401
2,616,56188,-15180,-14220,-12104,20,150,383
2,617,56193,-7349,-12199,-9089,-182,-888,517
2,618,56198,4438,-14653,1445,-263,-920,647
2,619,56203,7074,-19207,3022,-89,2,632
2,620,56208,-383,-18037,-7805,89,793,437
2,621,56213,-10203,-15765,-8591,77,838,411
2,622,56218,-9430,-13927,-959,-150,-61,493
2,623,56223,-538,-14670,1845,-261,-718,595
2,624,56228,5665,-16973,-2876,-88,-267,600
2,625,56233,760,-18069,-6543,13,587,524
2,626,56238,-7019,-16473,-4398,-13,710,444
2,627,56243,-7986,-15097,-1373,-132,-14,469
2,628,56248,-1933,-14831,99,-152,-566,516
2,629,56253,3010,-16132,-4022,-95,-405,537
2,630,56258,488,-17477,-5003,-31,244,519
2,631,56263,-4906,-16968,-3971,-46,409,462
2,632,56268,-6308,-15253,-1844,-97,0,430
2,633,56273,-2645,-15117,-1650,-133,-420,472
2,634,56278,960,-15763,-4359,-105,-358,490
2,635,56283,-347,-16962,-4171,-59,98,490
2,636,56288,-3892,-16780,-2809,-44,271,441
2,637,56293,-4971,-15721,-2582,-78,2,408
2,638,56298,-2834,-15221,-3906,-108,-277,414
2,639,56303,-632,-15611,-4861,-96,-173,433
2,640,56308,-1333,-16374,-3912,-63,161,438
2,641,56313,-2994,-16144,-2980,-41,295,407
2,642,56318,-3982,-15387,-2734,-56,145,387
2,643,56323,-2952,-15649,-4216,-79,-70,382
2,644,56328,-2155,-15616,-3114,-58,146,367
2,645,56333,-2972,-16025,-2783,-46,218,366
2,646,56338,-3249,-15570,-3034,-46,123,324
2,647,56343,-3044,-15329,-3869,-60,-29,308
2,648,56348,-2743,-15339,-3736,-71,-72,304
2,649,56353,-2720,-15542,-2962,-65,-16,304
2,650,56358,-2788,-15705,-3198,-53,23,295
2,651,56363,-2919,-15647,-3800,-52,6,271
2,652,56368,-3066,-15468,-3809,-58,-44,248
2,653,56373,-3080,-15461,-3378,-63,-88,237
2,654,56378,-3009,-15484,-3094,-60,-95,231
2,655,56383,-2953,-15574,-3582,-52,-74,224
2,656,56388,-3084,-15625,-4043,-46,-40,209
2,657,56393,-3302,-15562,-3882,-51,-29,188
2,658,56398,-3273,-15514,-3708,-52,-42,170
2,659,56403,-3153,-15510,-3477,-54,-30,157
2,660,56408,-3066,-15491,-3700,-49,-5,149
2,661,56413,-3182,-15571,-3776,-43,24,136
2,662,56418,-3353,-15563,-3646,-44,27,122
2,663,56423,-3342,-15604,-3509,-48,13,104
2,664,56428,-3215,-15626,-3298,-47,6,92
2,665,56433,-3162,-15635,-3363,-45,9,79
2,666,56438,-3262,-15645,-3562,-44,11,69
2,667,56443,-3286,-15599,-3667,-46,3,51
2,668,56448,-3338,-15602,-3640,-49,-13,35
2,669,56453,-3279,-15606,-3447,-53,-25,27
2,670,56458,-3103,-15554,-3549,-51,-21,18
2,671,56463,-3113,-15600,-3669,-44,-3,4
2,672,56468,-3290,-15586,-3739,-39,7,-12
2,673,56473,-3439,-15539,-3708,-38,7,-24
2,674,56478,-3368,-15507,-3723,-40,12,-33
2,675,56483,-3127,-15538,-3904,-38,44,-37
2,676,56488,-2931,-15641,-3962,-31,90,-46
2,677,56493,-3006,-15718,-3904,-31,124,-60
2,678,56498,-3142,-15644,-3834,-26,134,-73
2,679,56503,-3232,-15504,-3829,-27,139,-83
2,680,56508,-3142,-15501,-3785,-25,151,-86
2,681,56513,-2953,-15623,-3684,-17,172,-89
2,682,56518,-2853,-15780,-3732,-15,181,-97
2,683,56523,-2866,-15807,-3714,-14,168,-110
2,684,56528,-2943,-15653,-3501,-17,138,-119
2,685,56533,-2916,-15529,-3430,-17,109,-119
2,686,56538,-2831,-15574,-3442,-14,90,-115
2,687,56543,-2763,-15666,-3509,-12,79,-116
2,688,56548,-2681,-15669,-3634,-12,69,-120
2,689,56553,-2614,-15538,-3698,-14,61,-128
2,690,56558,-2644,-15463,-3762,-11,54,-131
2,691,56563,-2633,-15508,-3886,-5,52,-134
2,692,56568,-2538,-15602,-3982,0,55,-130
2,693,56573,-2458,-15693,-3849,2,52,-129
2,694,56578,-2568,-15665,-3528,2,37,-134
2,695,56583,-2696,-15609,-3299,2,6,-137
2,696,56588,-2716,-15576,-3367,3,-24,-133
2,697,56593,-2650,-15614,-3543,7,-42,-130
2,698,56598,-2686,-15712,-3634,8,-53,-128
2,699,56603,-2715,-15741,-3637,8,-71,-133
2,700,56608,-2725,-15771,-3656,10,-89,-129
2,701,56613,-2767,-15695,-3673,8,-93,-127
2,702,56618,-2793,-15673,-3711,13,-89,-122
2,703,56623,-2866,-15738,-3789,18,-89,-121
2,704,56628,-2920,-15712,-3751,19,-95,-123
2,705,56633,-3004,-15682,-3687,19,-101,-122
2,706,56638,-3051,-15644,-3720,19,-102,-122
2,707,56643,-3062,-15581,-3884,25,-99,-119
2,708,56648,-3059,-15610,-3967,27,-91,-117
2,709,56653,-3016,-15601,-3890,29,-80,-113
2,710,56658,-2989,-15534,-3811,30,-70,-118
2,711,56663,-3099,-15449,-3803,35,-69,-118
2,712,56668,-3172,-15444,-3785,40,-70,-117
2,713,56673,-3215,-15419,-3702,41,-75,-115
2,714,56678,-3285,-15451,-3601,43,-91,-114
2,715,56683,-3366,-15456,-3567,41,-109,-114
2,716,56688,-3247,-15470,-3697,43,-121,-111
2,717,56693,-3161,-15478,-3913,49,-112,-108
2,718,56698,-3293,-15523,-3839,51,-103,-110
2,719,56703,-3312,-15559,-3771,48,-98,-111
2,720,56708,-3301,-15509,-3709,48,-93,-105
2,721,56713,-3304,-15520,-3615,54,-86,-103
2,722,56718,-3388,-15518,-3618,57,-84,-104
2,723,56723,-3442,-15536,-3586,58,-88,-106
2,724,56728,-3442,-15522,-3560,59,-100,-106
2,725,56733,-3393,-15520,-3535,58,-110,-103
2,726,56738,-3403,-15565,-3580,59,-115,-102
2,727,56743,-3455,-15535,-3721,60,-121,-102
2,728,56748,-3535,-15552,-3775,59,-121,-103
2,729,56753,-3473,-15665,-3753,59,-119,-101
2,730,56758,-3429,-15731,-3733,58,-112,-99
2,731,56763,-3461,-15747,-3687,59,-102,-100
2,732,56768,-3450,-15757,-3678,63,-91,-101
2,733,56773,-3456,-15740,-3772,65,-79,-99
2,734,56778,-3352,-15730,-3828,62,-60,-94
2,735,56783,-3152,-15730,-3787,64,-35,-93
2,736,56788,-3096,-15732,-3649,65,-10,-93
2,737,56793,-3188,-15702,-3500,65,-1,-92
2,738,56798,-3234,-15666,-3555,68,-11,-92
2,739,56803,-3160,-15658,-3585,69,-22,-89
2,740,56808,-2977,-15645,-3474,67,-30,-83
2,741,56813,-2908,-15641,-3297,63,-48,-82
2,742,56818,-2995,-15683,-3221,63,-74,-82
2,743,56823,-3171,-15680,-3259,61,-109,-84
2,744,56828,-3304,-15736,-3301,57,-149,-79
2,745,56833,-3243,-15800,-3285,54,-177,-74
2,746,56838,-3110,-15805,-3485,51,-194,-73
2,747,56843,-3103,-15796,-3674,50,-193,-72
2,748,56848,-3140,-15747,-3808,51,-184,-73
2,749,56853,-3261,-15630,-3804,50,-166,-72
2,750,56858,-3381,-15643,-3703,53,-151,-69
2,751,56863,-3433,-15729,-3580,53,-135,-65
2,752,56868,-3351,-15794,-3536,52,-124,-63
2,753,56873,-3244,-15874,-3528,51,-117,-60
2,754,56878,-3159,-15902,-3551,50,-106,-64
2,755,56883,-3482,-15840,-3573,50,-94,-67
2,756,56888,-3587,-15723,-3769,50,-85,-68
2,757,56893,-3218,-15547,-3783,54,-70,-62
2,758,56898,-3212,-15756,-3454,48,-59,-48
2,759,56903,-3334,-15868,-3473,47,-57,-57
2,760,56908,-3507,-15501,-3416,52,-62,-69
2,761,56913,-3520,-15750,-3401,48,-79,-50
2,762,56918,-3440,-15911,-3419,46,-97,-54
2,763,56923,-3273,-15909,-3502,46,-111,-59
2,764,56928,-3186,-15935,-3514,42,-115,-55
2,765,56933,-3308,-15950,-3581,37,-108,-56
2,766,56938,-3425,-15875,-3802,39,-92,-62
2,767,56943,-3434,-15794,-3837,41,-67,-58
2,768,56948,-3235,-15918,-3668,40,-47,-50
2,769,56953,-3153,-15874,-3336,41,-34,-54
2,770,56958,-3170,-15756,-3333,40,-37,-57
2,771,56963,-3184,-15696,-3569,37,-47,-56
2,772,56968,-3242,-15612,-3662,39,-53,-55
2,773,56973,-3140,-15478,-3628,36,-57,-56
2,774,56978,-3039,-15451,-3377,36,-74,-54
2,775,56983,-2999,-15556,-3184,35,-101,-54
2,776,56988,-3202,-15651,-3173,32,-138,-57
2,777,56993,-3502,-15764,-3152,27,-179,-57
2,778,56998,-3533,-15863,-3199,22,-212,-56
2,779,57003,-3350,-15937,-3492,20,-217,-54
2,780,57008,-3194,-15995,-3906,22,-182,-53
2,781,57013,-3116,-15990,-4194,23,-114,-55
2,782,57018,-3096,-15870,-4287,25,-39,-59
2,783,57023,-3217,-15828,-4035,27,27,-57
2,784,57028,-3194,-15756,-3694,30,70,-57
2,785,57033,-3102,-15803,-3417,31,93,-52
2,786,57038,-3065,-15888,-3225,32,105,-53
2,787,57043,-3012,-15840,-3165,32,99,-55
2,788,57048,-2982,-15821,-3160,31,76,-54
2,789,57053,-2926,-15772,-3181,26,58,-54
2,790,57058,-2808,-15800,-3158,21,38,-52
2,791,57063,-2762,-15752,-3223,15,-2,-49
2,792,57068,-2764,-15717,-3280,12,-25,-49
2,793,57073,-2846,-15687,-3333,10,-45,-47
2,794,57078,-2864,-15736,-3370,10,-57,-42
2,795,57083,-2770,-15739,-3389,7,-63,-39
2,796,57088,-2751,-15737,-3448,9,-69,-40
2,797,57093,-2817,-15724,-3440,9,-72,-41
2,798,57098,-2893,-15692,-3507,5,-73,-43
2,799,57103,-2982,-15699,-3475,7,-71,-41
2,800,57108,-2950,-15724,-3455,7,-66,-38
2,801,57113,-2885,-15745,-3466,6,-59,-33
2,802,57118,-2829,-15762,-3503,4,-47,-33
2,803,57123,-2817,-15755,-3538,5,-36,-32
2,804,57128,-2913,-15687,-3566,4,-25,-32
2,805,57133,-2921,-15686,-3513,4,-16,-28
2,806,57138,-2842,-15712,-3515,3,-7,-27
2,807,57143,-2786,-15723,-3477,5,7,-25
2,808,57148,-2796,-15725,-3342,4,15,-27
2,809,57153,-2904,-15692,-3277,2,6,-30
2,810,57158,-2976,-15648,-3296,1,-10,-27
2,811,57163,-2859,-15622,-3417,1,-21,-26
2,812,57168,-2780,-15665,-3355,1,-25,-23
2,813,57173,-2828,-15742,-3349,0,-33,-22
2,814,57178,-2872,-15744,-3379,-3,-45,-25
2,815,57183,-2843,-15745,-3541,1,-56,-25
2,816,57188,-2783,-15774,-3607,-2,-59,-23
2,817,57193,-2762,-15789,-3418,-2,-55,-20
2,818,57198,-2845,-15785,-3274,-4,-56,-19
2,819,57203,-2922,-15810,-3241,-6,-61,-21
2,820,57208,-2916,-15831,-3283,-7,-68,-21
2,821,57213,-2950,-15874,-3337,-9,-68,-19
2,822,57218,-2885,-15927,-3324,-8,-70,-19
2,823,57223,-2835,-15920,-3324,-8,-73,-17
2,824,57228,-2825,-15898,-3401,-9,-67,-16
2,825,57233,-2834,-15870,-3552,-8,-57,-17
2,826,57238,-2866,-15835,-3563,-9,-41,-17
2,827,57243,-2899,-15888,-3454,-8,-28,-15
2,828,57248,-2906,-15917,-3314,-10,-18,-16
2,829,57253,-2853,-15916,-3236,-10,-19,-16
2,830,57258,-2812,-15904,-3250,-9,-22,-13
2,831,57263,-2837,-15883,-3333,-9,-21,-15
2,832,57268,-2857,-15835,-3419,-10,-22,-18
2,833,57273,-2824,-15844,-3463,-8,-26,-17
2,834,57278,-2819,-15833,-3345,-8,-29,-13
2,835,57283,-2859,-15847,-3266,-11,-34,-12
2,836,57288,-2904,-15876,-3227,-13,-44,-11
2,837,57293,-2923,-15862,-3244,-13,-53,-13
2,838,57298,-2879,-15815,-3305,-14,-56,-13
2,839,57303,-2890,-15838,-3362,-14,-59,-13
2,840,57308,-2901,-15832,-3385,-13,-56,-13
2,841,57313,-2918,-15851,-3373,-12,-51,-13
2,842,57318,-2951,-15853,-3395,-15,-47,-15
2,843,57323,-2974,-15881,-3353,-16,-43,-13
2,844,57328,-2949,-15912,-3407,-15,-40,-13
2,845,57333,-2887,-15881,-3382,-14,-31,-15
2,846,57338,-2965,-15808,-3419,-15,-22,-15
2,847,57343,-2970,-15809,-3478,-12,-18,-16
2,848,57348,-2984,-15764,-3389,-13,-12,-16
2,849,57353,-2909,-15814,-3291,-14,-7,-14
2,850,57358,-2896,-15819,-3276,-13,-8,-14
2,851,57363,-2919,-15833,-3232,-13,-12,-14
2,852,57368,-2959,-15838,-3368,-13,-19,-13
2,853,57373,-2971,-15799,-3402,-14,-24,-15
2,854,57378,-2969,-15851,-3378,-17,-30,-14
2,855,57383,-2937,-15879,-3365,-19,-29,-16
2,856,57388,-2888,-15823,-3407,-16,-23,-14
2,857,57393,-2915,-15795,-3528,-12,-10,-16
2,858,57398,-2992,-15771,-3547,-14,5,-14
2,859,57403,-2979,-15750,-3406,-14,18,-14
2,860,57408,-2917,-15775,-3289,-13,26,-17
2,861,57413,-2852,-15812,-3266,-14,29,-18
2,862,57418,-2830,-15771,-3320,-13,31,-15
2,863,57423,-2855,-15757,-3330,-12,31,-13
2,864,57428,-2855,-15668,-3268,-14,15,-13
2,865,57433,-2863,-15729,-3247,-14,3,-9
2,866,57438,-2811,-15773,-3225,-16,-10,-12
2,867,57443,-2812,-15733,-3239,-18,-23,-12
2,868,57448,-2871,-15663,-3364,-18,-36,-10
2,869,57453,-2849,-15622,-3487,-16,-36,-11
2,870,57458,-2858,-15603,-3564,-17,-35,-9
2,871,57463,-2866,-15580,-3509,-17,-30,-10
2,872,57468,-2887,-15672,-3372,-15,-29,-10
2,873,57473,-2965,-15758,-3358,-16,-30,-10
2,874,57478,-2936,-15832,-3380,-17,-29,-8
2,875,57483,-2874,-15853,-3463,-16,-18,-7
2,876,57488,-2823,-15837,-3521,-12,-1,-9
2,877,57493,-2831,-15812,-3522,-14,17,-7
2,878,57498,-2879,-15838,-3427,-14,29,-8
2,879,57503,-2909,-15818,-3313,-13,36,-8
2,880,57508,-2913,-15833,-3251,-13,33,-6
2,881,57513,-2887,-15839,-3211,-14,20,-5
2,882,57518,-2867,-15776,-3304,-15,11,-4
2,883,57523,-2830,-15809,-3418,-14,6,-1
2,884,57528,-2784,-15791,-3493,-11,9,0
2,885,57533,-2803,-15757,-3468,-15,13,-3
2,886,57538,-2844,-15713,-3401,-16,14,-3
2,887,57543,-2829,-15656,-3368,-14,10,1
2,888,57548,-2793,-15629,-3410,-13,4,0
2,889,57553,-2831,-15595,-3387,-8,-1,-1
2,890,57558,-2896,-15601,-3372,-10,-9,2
2,891,57563,-2889,-15641,-3376,-15,-16,4
2,892,57568,-2885,-15644,-3370,-16,-16,1
2,893,57573,-2850,-15652,-3405,-14,-12,3
2,894,57578,-2810,-15680,-3443,-11,-7,5
2,895,57583,-2883,-15671,-3417,-8,-2,2
2,896,57588,-2949,-15634,-3360,-10,-7,4
2,897,57593,-2910,-15669,-3380,-9,-11,7
2,898,57598,-2840,-15716,-3470,-7,-8,8
2,899,57603,-2818,-15752,-3495,-8,-5,9
2,900,57608,-2865,-15749,-3429,-9,0,7
2,901,57613,-2869,-15726,-3428,-11,2,7
2,902,57618,-2814,-15678,-3438,-9,4,9
2,903,57623,-2815,-15745,-3432,-9,9,11
2,904,57628,-2828,-15748,-3413,-5,13,10
2,905,57633,-2874,-15751,-3391,-6,9,11
2,906,57638,-2874,-15754,-3338,-8,-2,8
2,907,57643,-2828,-15741,-3379,-8,-10,14
2,908,57648,-2816,-15710,-3462,-5,-10,15
2,909,57653,-2818,-15706,-3477,-3,-6,16
2,910,57658,-2883,-15786,-3487,-5,-5,16
2,911,57663,-2840,-15802,-3518,-7,-5,14
2,912,57668,-2767,-15829,-3451,-2,-4,16
2,913,57673,-2785,-15865,-3442,-1,0,18
2,914,57678,-2875,-15811,-3417,-2,4,17
2,915,57683,-2912,-15751,-3453,-1,2,16
2,916,57688,-2851,-15729,-3435,-1,4,14
2,917,57693,-2878,-15767,-3339,1,7,15
2,918,57698,-2889,-15828,-3315,-1,4,19
2,919,57703,-2835,-15799,-3370,-1,-1,20
2,920,57708,-2790,-15800,-3492,-2,0,20
2,921,57713,-2776,-15769,-3542,1,9,22
2,922,57718,-2840,-15689,-3442,4,14,23
2,923,57723,-2903,-15692,-3298,5,5,23
2,924,57728,-2870,-15700,-3266,2,-5,23
2,925,57733,-2827,-15721,-3393,2,-14,25
2,926,57738,-2797,-15741,-3472,4,-15,26
2,927,57743,-2864,-15738,-3534,5,-11,25
2,928,57748,-2901,-15714,-3539,3,-7,21
2,929,57753,-2880,-15725,-3492,4,-3,22
2,930,57758,-2869,-15726,-3487,4,1,24
2,931,57763,-2858,-15748,-3519,7,10,27
2,932,57768,-2910,-15762,-3469,9,13,28
2,933,57773,-2861,-15788,-3379,6,9,25
2,934,57778,-2816,-15744,-3383,8,6,25
2,935,57783,-2794,-15677,-3392,10,7,24
2,936,57788,-2864,-15684,-3360,12,7,25
2,937,57793,-2941,-15800,-3304,8,-24,23
2,938,57798,-2877,-15824,-3376,8,-34,25
2,939,57803,-2872,-15798,-3443,6,-36,26
2,940,57808,-2853,-15760,-3582,10,-27,26
2,941,57813,-2938,-15753,-3593,12,-15,24
2,942,57818,-3017,-15735,-3472,14,-1,21
2,943,57823,-2984,-15759,-3394,15,1,23
2,944,57828,-2939,-15781,-3311,14,-1,21
2,945,57833,-2925,-15731,-3366,13,-7,23
2,946,57838,-2891,-15720,-3401,14,-17,24
2,947,57843,-2976,-15725,-3335,15,-19,20
2,948,57848,-3018,-15735,-3294,15,-24,22
2,949,57853,-2991,-15756,-3297,11,-36,19
2,950,57858,-2915,-15841,-3386,12,-39,20
2,951,57863,-2953,-15872,-3508,11,-39,22
2,952,57868,-2966,-15846,-3534,9,-30,18
2,953,57873,-2950,-15791,-3567,11,-12,16
2,954,57878,-2954,-15790,-3600,12,10,18
2,955,57883,-2974,-15801,-3570,15,29,15
2,956,57888,-2951,-15823,-3416,14,43,17
2,957,57893,-2938,-15810,-3302,16,46,15
2,958,57898,-2974,-15821,-3270,17,42,12
2,959,57903,-2973,-15746,-3349,18,35,14
2,960,57908,-2896,-15750,-3420,14,31,12
2,961,57913,-2943,-15772,-3381,15,26,10
2,962,57918,-2929,-15775,-3335,18,16,14
2,963,57923,-2901,-15797,-3285,14,10,12
2,964,57928,-2884,-15755,-3292,10,-5,9
2,965,57933,-2879,-15754,-3342,11,-15,9
2,966,57938,-2922,-15709,-3409,13,-22,9
2,967,57943,-2947,-15749,-3489,13,-28,8
2,968,57948,-2943,-15808,-3548,10,-23,5
2,969,57953,-2914,-15778,-3548,8,-17,7
2,970,57958,-2870,-15812,-3502,9,-7,5
2,971,57963,-2926,-15783,-3502,14,-1,3
2,972,57968,-2991,-15751,-3540,13,6,3
2,973,57973,-3078,-15720,-3467,14,7,2
2,974,57978,-3025,-15798,-3309,13,5,3
2,975,57983,-2972,-15879,-3206,13,0,3
2,976,57988,-2903,-15913,-3296,12,-5,2
2,977,57993,-2877,-15924,-3393,11,-6,-1
2,978,57998,-2944,-15864,-3507,10,-6,-1
2,979,58003,-2971,-15820,-3475,10,-5,-2
2,980,58008,-2949,-15771,-3450,9,-2,-6
2,981,58013,-2927,-15860,-3480,9,1,-3
2,982,58018,-2914,-15904,-3543,10,10,-4
2,983,58023,-2860,-15892,-3540,9,24,-7
2,984,58028,-2891,-15889,-3528,11,32,-8
2,985,58033,-2851,-15832,-3420,9,35,-8
2,986,58038,-2822,-15838,-3326,8,34,-8
2,987,58043,-2878,-15885,-3296,10,29,-8
2,988,58048,-2913,-15877,-3319,6,21,-7
2,989,58053,-2878,-15867,-3359,6,9,-9
2,990,58058,-2839,-15859,-3355,4,5,-8
2,991,58063,-2824,-15805,-3427,5,3,-8
2,992,58068,-2828,-15803,-3436,2,6,-10
2,993,58073,-2867,-15785,-3425,0,6,-9
2,994,58078,-2867,-15770,-3399,4,0,-10
2,995,58083,-2897,-15795,-3361,2,-9,-10
2,996,58088,-2896,-15763,-3422,1,-14,-10
2,997,58093,-2857,-15768,-3475,-1,-13,-12
2,998,58098,-2872,-15781,-3551,1,-9,-11
2,999,58103,-2931,-15761,-3472,0,-7,-12
3,0,61358,-2955,-15770,-3341,4,31,-3
3,1,61363,-3002,-15690,-3318,8,29,-3
3,2,61368,-2923,-15711,-3278,9,26,-3
3,3,61373,-2868,-15656,-3292,7,19,-6
3,4,61378,-2887,-15664,-3218,6,7,-6
3,5,61383,-2879,-15667,-3194,9,-8,-11
3,6,61388,-2802,-15650,-3240,9,-31,-9
3,7,61393,-2778,-15692,-3288,8,-44,-8
3,8,61398,-2789,-15651,-3340,7,-54,-8
3,9,61403,-2769,-15690,-3281,9,-60,-10
3,10,61408,-2865,-15730,-3258,9,-70,-8
3,11,61413,-2891,-15753,-3395,10,-77,-10
3,12,61418,-2838,-15735,-3493,10,-71,-10
3,13,61423,-2802,-15811,-3485,10,-54,-8
3,14,61428,-2867,-15757,-3454,15,-36,-9
3,15,61433,-2959,-15826,-3410,14,-18,-10
3,16,61438,-2945,-15846,-3404,14,-2,-9
3,17,61443,-2925,-15844,-3375,15,15,-10
3,18,61448,-2904,-15877,-3308,16,25,-10
3,19,61453,-2896,-15856,-3256,15,36,-11
3,20,61458,-2970,-15799,-3278,14,36,-15
3,21,61463,-2952,-15823,-3292,16,35,-12
3,22,61468,-2903,-15788,-3241,16,33,-12
3,23,61473,-2911,-15786,-3243,13,31,-12
3,24,61478,-2865,-15757,-3239,16,22,-16
3,25,61483,-2867,-15715,-3287,15,10,-16
3,26,61488,-2867,-15743,-3257,14,-1,-15
3,27,61493,-2886,-15743,-3247,11,-10,-15
3,28,61498,-2863,-15774,-3312,14,-22,-14
3,29,61503,-2839,-15790,-3435,12,-23,-14
3,30,61508,-2874,-15799,-3523,10,-18,-16
3,31,61513,-2892,-15806,-3531,12,-8,-16
3,32,61518,-2881,-15793,-3479,11,4,-18
3,33,61523,-2837,-15789,-3466,13,17,-15
3,34,61528,-2828,-15806,-3439,13,31,-15
3,35,61533,-2879,-15826,-3342,15,40,-16
3,36,61538,-2907,-15816,-3304,12,40,-16
3,37,61543,-2842,-15795,-3230,12,37,-15
3,38,61548,-2805,-15802,-3263,10,31,-16
3,39,61553,-2761,-15835,-3280,11,25,-17
3,40,61558,-2773,-15830,-3328,13,18,-14
3,41,61563,-2715,-15789,-3317,14,13,-12
3,42,61568,-2660,-15743,-3340,8,9,-13
3,43,61573,-2621,-15683,-3349,8,7,-11
3,44,61578,-2687,-15728,-3288,9,4,-12
3,45,61583,-2687,-15742,-3227,8,-9,-11
3,46,61588,-2728,-15738,-3214,6,-24,-10
3,47,61593,-2699,-15728,-3244,8,-38,-7
3,48,61598,-2640,-15739,-3318,5,-43,-8
3,49,61603,-2717,-15793,-3408,4,-39,-8
3,50,61608,-2764,-15835,-3453,3,-36,-8
3,51,61613,-2714,-15834,-3433,1,-32,-5
3,52,61618,-2714,-15835,-3391,4,-25,-4
3,53,61623,-2764,-15815,-3428,4,-16,-5
3,54,61628,-2795,-15835,-3509,3,-6,-5
3,55,61633,-2834,-15787,-3458,5,1,-2
3,56,61638,-2837,-15784,-3384,7,5,-4
3,57,61643,-2811,-15794,-3313,3,8,-4
3,58,61648,-2826,-15815,-3319,3,6,-5
3,59,61653,-2859,-15805,-3334,4,0,-3
3,60,61658,-2864,-15803,-3374,3,-5,-4
3,61,61663,-2814,-15854,-3328,2,-8,-5
3,62,61668,-2737,-15823,-3366,-1,-3,-4
3,63,61673,-2731,-15829,-3440,-1,4,-1
3,64,61678,-2739,-15823,-3497,4,8,-2
3,65,61683,-2762,-15833,-3416,5,12,-2
3,66,61688,-2774,-15783,-3264,3,9,1
3,67,61693,-2714,-15805,-3219,2,1,-1
3,68,61698,-2670,-15832,-3198,2,-8,-2
3,69,61703,-2733,-15832,-3213,2,-24,2
3,70,61708,-2780,-15848,-3243,-1,-38,0
3,71,61713,-2749,-15834,-3293,-1,-48,-1
3,72,61718,-2710,-15864,-3329,0,-53,0
3,73,61723,-2672,-15887,-3406,-1,-55,1
3,74,61728,-2757,-15899,-3387,0,-48,3
3,75,61733,-2802,-15931,-3350,1,-47,4
3,76,61738,-2876,-15882,-3367,-1,-42,2
3,77,61743,-2916,-15906,-3294,-1,-40,3
3,78,61748,-2918,-15926,-3277,-1,-39,2
3,79,61753,-2880,-15906,-3337,-1,-38,2
3,80,61758,-2867,-15847,-3391,0,-35,0
3,81,61763,-2918,-15823,-3452,1,-29,-1
3,82,61768,-2936,-15798,-3416,1,-20,1
3,83,61773,-2893,-15841,-3312,1,-12,1
3,84,61778,-2869,-15810,-3245,0,-11,-2
3,85,61783,-2907,-15777,-3251,1,-14,-4
3,86,61788,-2943,-15789,-3310,4,-15,-4
3,87,61793,-3002,-15730,-3351,1,-16,-5
3,88,61798,-2930,-15717,-3329,3,-19,-4
3,89,61803,-2877,-15760,-3282,4,-18,-4
3,90,61808,-2872,-15770,-3312,2,-22,-5
3,91,61813,-2850,-15756,-3356,2,-25,-5
3,92,61818,-2886,-15742,-3400,4,-26,-5
3,93,61823,-2918,-15759,-3386,5,-23,-7
3,94,61828,-2889,-15803,-3327,3,-24,-9
3,95,61833,-2821,-15808,-3303,7,-15,-8
3,96,61838,-2850,-15817,-3344,5,-8,-10
3,97,61843,-2848,-15797,-3345,7,1,-8
3,98,61848,-2853,-15800,-3274,8,9,-7
3,99,61853,-2832,-15801,-3148,9,10,-6
3,100,61858,-2745,-15785,-3205,7,9,-7
3,101,61863,-2735,-15742,-3296,4,14,-9
3,102,61868,-2830,-15737,-3385,7,23,-10
3,103,61873,-2837,-15748,-3356,9,27,-13
3,104,61878,-2754,-15736,-3322,11,25,-7
3,105,61883,-2656,-15704,-3269,7,24,-8
3,106,61888,-2707,-15743,-3284,7,22,-10
3,107,61893,-2722,-15750,-3393,15,15,-10
3,108,61898,-2735,-15757,-3397,13,7,-7
3,109,61903,-2793,-15709,-3313,11,3,-7
3,110,61908,-2717,-15701,-3237,9,1,-9
3,111,61913,-2703,-15738,-3220,11,-2,-7
3,112,61918,-2771,-15707,-3303,13,-5,-5
3,113,61923,-2777,-15672,-3417,14,-6,-6
3,114,61928,-2817,-15691,-3296,13,-2,-4
3,115,61933,-2842,-15715,-3190,13,-6,-5
3,116,61938,-2753,-15740,-3305,15,0,-5
3,117,61943,-2725,-15728,-3430,20,14,-4
3,118,61948,-2772,-15805,-3461,21,31,-5
3,119,61953,-2784,-15810,-3330,20,44,-3
3,120,61958,-2798,-15834,-3033,21,45,-3
3,121,61964,-2780,-15776,-3066,20,36,-3
3,122,61994,-2750,-15797,-3268,21,-7,-4
3,123,61995,-2750,-15797,-3268,21,-7,-4
3,124,61996,-2785,-15780,-3358,22,4,-3
3,125,61997,-2785,-15780,-3358,22,4,-3
3,126,61997,-2785,-15780,-3358,22,4,-3
3,127,61998,-2785,-15780,-3358,22,4,-3
3,128,61999,-2785,-15780,-3358,22,4,-3
3,129,62003,-2857,-15723,-3319,24,12,0
3,130,62008,-2871,-15684,-3276,24,14,-2
3,131,62013,-2860,-15694,-3236,23,16,-2
3,132,62018,-2856,-15715,-3263,26,21,-2
3,133,62023,-2825,-15717,-3216,25,29,-2
3,134,62028,-2823,-15720,-3263,27,33,-1
3,135,62033,-2756,-15770,-3254,27,29,-4
3,136,62038,-2813,-15791,-3218,31,25,-5
3,137,62043,-2836,-15770,-3165,29,25,-5
3,138,62048,-2856,-15741,-3093,24,20,-2
3,139,62053,-2744,-15829,-3080,26,21,-2
3,140,62058,-2780,-15828,-3211,28,30,-2
3,141,62063,-2830,-15801,-3221,27,38,-3
3,142,62068,-2857,-15792,-3178,27,40,-4
3,143,62073,-2721,-15789,-3200,27,42,-2
3,144,62078,-2663,-15759,-3254,26,53,3
3,145,62083,-2688,-15820,-3214,28,65,2
3,146,62088,-2777,-15819,-3163,31,62,0
3,147,62093,-2815,-15784,-3044,29,46,0
3,148,62098,-2778,-15759,-3072,26,30,3
3,149,62103,-2700,-15784,-3072,24,18,4
3,150,62108,-2674,-15751,-3040,25,5,5
3,151,62113,-2743,-15794,-3146,25,-12,4
3,152,62118,-2839,-15769,-3194,23,-31,0
3,153,62123,-2860,-15763,-3210,20,-45,1
3,154,62128,-2817,-15798,-3193,21,-50,3
3,155,62133,-2757,-15917,-3183,21,-51,6
3,156,62138,-2825,-15921,-3249,24,-51,5
3,157,62143,-2828,-15897,-3347,24,-48,3
3,158,62148,-2882,-15823,-3368,21,-41,2
3,159,62153,-2873,-15827,-3329,21,-30,1
3,160,62158,-2835,-15863,-3303,22,-20,5
3,161,62163,-2776,-15948,-3342,24,-6,6
3,162,62168,-2753,-15990,-3392,25,10,3
3,163,62173,-2784,-15976,-3334,24,18,2
3,164,62178,-2823,-15936,-3256,25,19,5
3,165,62183,-2755,-15934,-3187,25,20,6
3,166,62188,-2772,-15942,-3165,25,17,5
3,167,62193,-2813,-15964,-3122,24,7,7
3,168,62198,-2840,-15988,-3073,21,-11,6
3,169,62203,-2771,-15997,-3236,23,-34,5
3,170,62208,-2760,-15968,-3371,23,-34,7
3,171,62213,-2830,-15978,-3325,23,-35,6
3,172,62218,-2838,-15944,-3318,22,-34,5
3,173,62223,-2875,-15941,-3323,23,-39,6
3,174,62228,-2971,-16020,-3247,25,-37,4
3,175,62233,-2974,-16020,-3221,24,-34,4
3,176,62238,-2990,-16074,-3352,22,-32,8
3,177,62243,-2951,-16077,-3363,24,-25,5
3,178,62248,-2927,-16012,-3380,23,-12,3
3,179,62253,-2979,-15958,-3368,25,-4,3
3,180,62258,-2994,-15951,-3298,23,1,2
3,181,62263,-2954,-15922,-3257,24,1,3
3,182,62268,-2969,-15914,-3251,23,0,3
3,183,62273,-2993,-15920,-3215,23,2,3
3,184,62278,-2940,-15896,-3246,22,4,2
3,185,62283,-2858,-15903,-3311,20,10,2
3,186,62288,-2818,-15897,-3377,23,18,3
3,187,62293,-2857,-15904,-3304,21,25,-1
3,188,62298,-2852,-15890,-3192,21,28,1
3,189,62303,-2834,-15876,-3123,20,21,2
3,190,62308,-2816,-15866,-3169,20,21,2
3,191,62313,-2754,-15884,-3255,18,23,2
3,192,62318,-2818,-15848,-3290,16,26,1
3,193,62323,-2842,-15838,-3212,15,25,0
3,194,62328,-2826,-15863,-3175,15,13,1
3,195,62333,-2766,-15859,-3112,11,2,4
3,196,62338,-2814,-15853,-3075,9,-8,2
3,197,62343,-2889,-15835,-3135,9,-19,-1
3,198,62348,-2833,-15851,-3247,7,-26,2
3,199,62353,-2770,-15869,-3343,6,-19,2
3,200,62358,-2746,-15892,-3347,5,-9,3
3,201,62363,-2783,-15908,-3320,1,-2,5
3,202,62368,-2810,-15876,-3199,0,2,5
3,203,62373,-2857,-15895,-3195,1,3,2
3,204,62378,-2868,-15922,-3236,-1,3,3
3,205,62383,-2839,-15916,-3338,0,8,3
3,206,62388,-2863,-15879,-3356,-4,11,3
3,207,62393,-2814,-15848,-3286,-5,17,4
3,208,62398,-2835,-15792,-3276,-9,18,5
3,209,62403,-2851,-15810,-3254,-5,15,4
3,210,62408,-2910,-15830,-3275,-6,13,4
3,211,62413,-2915,-15810,-3237,-7,6,3
3,212,62418,-2859,-15807,-3286,-7,1,0
3,213,62423,-2863,-15834,-3345,-11,-1,2
3,214,62428,-2822,-15857,-3347,-14,2,1
3,215,62433,-2802,-15875,-3291,-15,2,1
3,216,62438,-2804,-15835,-3270,-17,3,3
3,217,62443,-2845,-15828,-3276,-19,3,1
3,218,62448,-2846,-15849,-3340,-17,2,0
3,219,62453,-2831,-15855,-3319,-18,6,4
3,220,62458,-2842,-15869,-3240,-19,7,4
3,221,62463,-2791,-15906,-3215,-25,5,2
3,222,62468,-2813,-15905,-3265,-26,0,3
3,223,62473,-2731,-15917,-3331,-26,-2,3
3,224,62478,-2759,-15901,-3389,-27,-2,0
3,225,62483,-2782,-15895,-3378,-28,3,1
3,226,62488,-2765,-15872,-3285,-31,5,4
3,227,62493,-2725,-15895,-3248,-30,6,3
3,228,62498,-2801,-15883,-3222,-32,2,2
3,229,62503,-2852,-15882,-3209,-31,-7,2
3,230,62508,-2850,-15837,-3206,-35,-18,2
3,231,62513,-2818,-15873,-3165,-36,-27,2
3,232,62518,-2806,-15908,-3267,-38,-33,1
3,233,62523,-2839,-15980,-3297,-39,-37,0
3,234,62528,-2841,-15956,-3325,-42,-36,0
3,235,62533,-2899,-15871,-3359,-39,-33,1
3,236,62538,-2939,-15874,-3355,-38,-34,2
3,237,62543,-2968,-15877,-3342,-44,-30,0
3,238,62548,-2919,-15881,-3389,-43,-29,1
3,239,62553,-2856,-15853,-3380,-41,-21,1
3,240,62558,-2885,-15832,-3375,-43,-6,-3
3,241,62563,-2941,-15858,-3347,-42,4,-3
3,242,62568,-2844,-15849,-3317,-46,16,-2
3,243,62573,-2773,-15852,-3293,-45,21,-1
3,244,62578,-2812,-15876,-3291,-46,24,-3
3,245,62583,-2845,-15843,-3311,-44,23,-3
3,246,62588,-2856,-15841,-3260,-43,25,-4
3,247,62593,-2809,-15833,-3248,-44,23,-2
3,248,62598,-2768,-15832,-3208,-44,17,-1
3,249,62603,-2764,-15864,-3204,-45,9,-3
3,250,62608,-2754,-15866,-3230,-42,5,-4
3,251,62613,-2826,-15901,-3216,-46,-6,-4
3,252,62618,-2850,-15876,-3253,-48,-20,-3
3,253,62623,-2829,-15868,-3290,-50,-26,-2
3,254,62628,-2747,-15809,-3316,-48,-25,0
3,255,62633,-2785,-15800,-3325,-49,-20,-1
3,256,62638,-2870,-15791,-3357,-46,-15,-3
3,257,62643,-2897,-15778,-3409,-46,-14,-4
3,258,62648,-2774,-15762,-3417,-44,-10,-3
3,259,62653,-2800,-15825,-3404,-46,3,0
3,260,62658,-2840,-15838,-3450,-42,11,-3
3,261,62663,-2819,-15784,-3410,-39,14,-5
3,262,62668,-2776,-15718,-3348,-43,16,-4
3,263,62673,-2761,-15722,-3292,-42,15,-3
3,264,62678,-2754,-15773,-3242,-39,8,-5
3,265,62683,-2800,-15780,-3165,-39,-2,-5
3,266,62688,-2827,-15786,-3210,-38,-14,-3
3,267,62693,-2784,-15751,-3275,-39,-26,-2
3,268,62698,-2759,-15723,-3334,-39,-36,-4
3,269,62703,-2759,-15804,-3341,-40,-36,-3
3,270,62708,-2796,-15805,-3382,-35,-37,-6
3,271,62713,-2849,-15769,-3333,-38,-37,-6
3,272,62718,-2842,-15774,-3293,-39,-37,-5
3,273,62723,-2824,-15785,-3318,-33,-36,-5
3,274,62728,-2839,-15748,-3411,-31,-24,-5
3,275,62733,-2914,-15777,-3433,-30,-19,-7
3,276,62738,-2980,-15807,-3357,-30,-22,-4
3,277,62743,-2942,-15790,-3276,-30,-22,-4
3,278,62748,-2955,-15792,-3278,-29,-15,-7
3,279,62753,-2925,-15812,-3354,-27,-7,-7
3,280,62758,-2948,-15840,-3432,-24,4,-7
3,281,62763,-2986,-15837,-3427,-25,13,-10
3,282,62768,-2954,-15776,-3359,-24,17,-12
3,283,62773,-2931,-15741,-3299,-23,21,-12
3,284,62778,-2919,-15757,-3336,-18,23,-12
3,285,62783,-2879,-15742,-3400,-17,23,-11
3,286,62788,-2900,-15718,-3376,-18,21,-12
3,287,62793,-2835,-15709,-3345,-14,23,-11
3,288,62798,-2773,-15691,-3313,-12,20,-10
3,289,62803,-2752,-15730,-3293,-14,15,-13
3,290,62808,-2824,-15675,-3252,-14,4,-13
3,291,62813,-2883,-15726,-3173,-12,-14,-11
3,292,62818,-2928,-15748,-3267,-14,-29,-12
3,293,62823,-2825,-15777,-3351,-13,-34,-14
3,294,62828,-2791,-15816,-3407,-11,-29,-14
3,295,62833,-2850,-15788,-3499,-10,-21,-12
3,296,62838,-2892,-15796,-3523,-10,-14,-16
3,297,62843,-2905,-15746,-3459,-7,-4,-17
3,298,62848,-2870,-15740,-3398,-4,11,-15
3,299,62853,-2874,-15751,-3369,-3,23,-16
3,300,62858,-2898,-15744,-3377,-3,29,-14
3,301,62863,-2909,-15727,-3399,-2,35,-16
3,302,62868,-2931,-15703,-3364,0,41,-16
3,303,62873,-2857,-15674,-3328,0,43,-16
3,304,62878,-2860,-15662,-3327,-1,42,-17
3,305,62883,-2911,-15647,-3322,3,42,-17
3,306,62888,-2895,-15641,-3358,1,36,-16
3,307,62893,-2864,-15673,-3395,1,30,-16
3,308,62898,-2784,-15659,-3430,3,27,-17
3,309,62903,-2735,-15645,-3415,4,30,-17
3,310,62908,-2746,-15653,-3463,0,33,-18
3,311,62913,-2760,-15608,-3421,1,34,-19
3,312,62918,-2780,-15623,-3447,4,31,-17
3,313,62923,-2741,-15595,-3421,4,28,-15
3,314,62928,-2668,-15616,-3386,3,29,-17
3,315,62933,-2694,-15676,-3311,2,29,-14
3,316,62938,-2747,-15736,-3253,2,17,-14
3,317,62943,-2743,-15784,-3248,1,10,-14
3,318,62948,-2700,-15747,-3329,0,4,-15
3,319,62953,-2719,-15768,-3369,-1,-3,-15
3,320,62958,-2847,-15792,-3298,-2,-9,-15
3,321,62963,-2766,-15748,-3347,-2,-10,-15
3,322,62968,-2654,-15696,-3367,0,-7,-17
3,323,62973,-2805,-15795,-3315,3,-9,-19
3,324,62978,-3023,-15810,-3237,-2,-16,-22
3,325,62983,-3059,-15837,-3238,-1,-34,-22
3,326,62988,-2872,-15841,-3357,-2,-44,-18
3,327,62993,-2701,-15867,-3466,-3,-35,-18
3,328,62998,-2670,-15842,-3590,-3,-22,-21
3,329,63003,-2589,-15841,-3693,-2,-7,-22
3,330,63008,-2545,-15836,-3689,-1,9,-21
3,331,63013,-2565,-15870,-3554,0,24,-22
3,332,63018,-2568,-15887,-3368,-1,30,-17
3,333,63023,-2501,-15910,-3350,2,30,-18
3,334,63028,-2496,-15917,-3391,2,24,-19
3,335,63033,-2565,-15882,-3338,2,18,-22
3,336,63038,-2610,-15863,-3262,-2,2,-23
3,337,63043,-2568,-15826,-3265,-4,-18,-20
3,338,63048,-2505,-15861,-3428,-1,-31,-19
3,339,63053,-2530,-15806,-3543,0,-40,-17
3,340,63058,-2646,-15815,-3526,-2,-44,-19
3,341,63063,-2748,-15843,-3467,-1,-53,-19
3,342,63068,-2773,-15828,-3479,-3,-61,-17
3,343,63073,-2732,-15813,-3536,-1,-63,-17
3,344,63078,-2755,-15849,-3631,0,-59,-18
3,345,63083,-2818,-15839,-3624,2,-55,-18
3,346,63088,-2853,-15839,-3614,1,-49,-20
3,347,63093,-2870,-15828,-3623,6,-39,-24
3,348,63098,-2860,-15818,-3653,8,-20,-20
3,349,63103,-2829,-15887,-3574,8,-8,-19
3,350,63108,-2874,-15889,-3501,7,1,-23
3,351,63113,-2838,-15874,-3477,8,7,-22
3,352,63118,-2805,-15845,-3513,9,13,-22
3,353,63123,-2708,-15824,-3590,11,23,-21
3,354,63128,-2724,-15890,-3534,11,32,-23
3,355,63133,-2745,-15904,-3477,11,33,-24
3,356,63138,-2734,-15930,-3387,8,28,-21
3,357,63143,-2750,-15921,-3301,10,15,-20
3,358,63148,-2755,-15941,-3290,9,4,-21
3,359,63153,-2753,-15932,-3399,12,-5,-20
3,360,63158,-2747,-15903,-3447,8,-12,-19
3,361,63163,-2755,-15849,-3381,7,-22,-23
3,362,63168,-2737,-15833,-3349,7,-34,-24
3,363,63173,-2793,-15822,-3345,6,-39,-19
3,364,63178,-2751,-15839,-3390,4,-42,-18
3,365,63183,-2769,-15830,-3430,5,-40,-23
3,366,63188,-2855,-15784,-3488,8,-35,-21
3,367,63193,-2857,-15761,-3514,9,-28,-20
3,368,63198,-2852,-15761,-3505,6,-22,-19
3,369,63203,-2841,-15751,-3463,6,-14,-17
3,370,63208,-2817,-15749,-3445,4,-11,-21
3,371,63213,-2817,-15759,-3407,4,-3,-19
3,372,63218,-2849,-15685,-3422,1,5,-14
3,373,63223,-2782,-15678,-3487,-1,16,-8
3,374,63228,-2553,-15715,-3499,-2,37,-3
3,375,63233,-2391,-15651,-3516,-2,63,1
3,376,63238,-2481,-15576,-3467,1,84,1
3,377,63243,-2594,-15511,-3465,-1,94,5
3,378,63248,-2441,-15450,-3593,-1,104,17
3,379,63253,-2017,-15498,-3612,-4,119,29
3,380,63258,-1670,-15549,-3356,-6,125,38
3,381,63263,-1603,-15525,-2844,-5,98,44
3,382,63268,-1779,-15436,-2325,-12,23,53
3,383,63273,-1711,-15339,-2109,-19,-93,69
3,384,63278,-1344,-15350,-2113,-29,-220,91
3,385,63283,-934,-15411,-1814,-38,-345,111
3,386,63288,-1123,-15480,-1453,-55,-495,123
3,387,63293,-1627,-15460,-1323,-66,-678,122
3,388,63298,-2081,-15269,-1684,-83,-865,141
3,389,63303,-1752,-15424,-2395,-103,-1069,201
3,390,63308,-1905,-15764,-2363,-115,-1109,220
3,391,63313,-2307,-15824,-2709,-120,-1163,228
3,392,63318,-2622,-15557,-3415,-123,-1203,241
3,393,63323,-2675,-15608,-3930,-125,-1186,274
3,394,63328,-2776,-15614,-4140,-119,-1119,303
3,395,63333,-2957,-15577,-3890,-117,-1045,326
3,396,63338,-3118,-15460,-3857,-116,-985,345
3,397,63343,-3220,-15214,-4029,-112,-930,362
3,398,63348,-3490,-15166,-3940,-105,-869,385
3,399,63353,-3764,-15099,-3752,-99,-822,410
3,400,63358,-3815,-14993,-3557,-97,-807,435
3,401,63363,-3846,-15021,-3742,-94,-815,456
3,402,63368,-3864,-14987,-3820,-91,-810,474
3,403,63373,-4169,-15015,-3664,-91,-784,494
3,404,63378,-4512,-14996,-3432,-88,-771,516
3,405,63383,-4530,-15009,-3556,-87,-786,542
3,406,63388,-4366,-14984,-3385,-85,-801,559
3,407,63393,-4494,-15036,-3332,-84,-820,579
3,408,63398,-4937,-15031,-3126,-82,-850,597
3,409,63403,-5064,-14971,-3292,-85,-898,621
3,410,63408,-5124,-14978,-3262,-86,-922,648
3,411,63413,-5228,-15019,-3362,-85,-935,662
3,412,63418,-5647,-15031,-3428,-80,-934,679
3,413,63423,-5955,-15046,-3817,-74,-925,693
3,414,63428,-6211,-14960,-3967,-72,-897,709
3,415,63433,-6318,-14985,-4065,-70,-843,737
3,416,63438,-6234,-14989,-4140,-61,-760,755
3,417,63443,-6256,-14970,-4191,-50,-658,772
3,418,63448,-6673,-14916,-4017,-42,-560,782
3,419,63453,-7152,-14847,-3896,-38,-497,793
3,420,63458,-7082,-14779,-3800,-36,-452,812
3,421,63463,-6667,-14927,-3587,-32,-397,833
3,422,63468,-6665,-14970,-3131,-23,-351,834
3,423,63473,-7122,-14991,-2816,-17,-356,841
3,424,63478,-7659,-14768,-2906,-22,-410,847
3,425,63483,-7616,-14747,-3325,-26,-447,871
3,426,63488,-7105,-14920,-3616,-26,-425,892
3,427,63493,-6796,-15063,-3327,-21,-369,902
3,428,63498,-7179,-15084,-2905,-22,-347,905
3,429,63503,-7742,-14906,-2845,-27,-388,905
3,430,63508,-7722,-14771,-3351,-24,-436,920
3,431,63513,-7299,-14867,-3716,-22,-422,939
3,432,63518,-7133,-15042,-3488,-19,-357,954
3,433,63523,-7317,-15083,-3187,-11,-305,957
3,434,63528,-7577,-14983,-3289,-10,-301,951
3,435,63533,-7643,-14884,-3596,-10,-297,959
3,436,63538,-7576,-14954,-3565,-8,-254,984
3,437,63543,-7449,-15084,-3334,-7,-194,1000
3,438,63548,-7460,-15184,-3239,-1,-153,1004
3,439,63553,-7598,-15151,-3341,1,-138,1006
3,440,63558,-7742,-15097,-3323,0,-118,1009
3,441,63563,-7747,-15044,-3182,2,-89,1018
3,442,63568,-7575,-15087,-3064,0,-63,1033
3,443,63573,-7362,-15173,-3075,-2,-47,1039
3,444,63578,-7455,-15161,-2986,-2,-45,1039
3,445,63583,-7649,-15046,-2885,-4,-62,1042
3,446,63588,-7807,-15008,-2854,-5,-86,1046
3,447,63593,-7800,-15029,-2873,-9,-101,1056
3,448,63598,-7717,-15036,-2970,-9,-100,1061
3,449,63603,-7566,-14961,-3013,-10,-92,1066
3,450,63608,-7705,-14847,-3148,-11,-80,1061
3,451,63613,-7956,-14761,-3312,-10,-71,1057
3,452,63618,-8045,-14611,-3363,-12,-58,1059
3,453,63623,-7955,-14565,-3234,-15,-41,1062
3,454,63628,-7936,-14490,-3061,-14,-23,1064
3,455,63633,-8159,-14596,-2859,-15,-13,1062
3,456,63638,-8395,-14522,-3052,-15,-18,1056
3,457,63643,-8300,-14432,-3251,-19,-13,1052
3,458,63648,-7980,-14423,-3583,-17,21,1050
3,459,63653,-7782,-14417,-3716,-13,87,1045
3,460,63658,-8061,-14448,-3244,-9,150,1037
3,461,63663,-8185,-14275,-3123,-15,155,1024
3,462,63668,-8101,-14284,-2939,-20,147,1012
3,463,63673,-8091,-14313,-2669,-25,141,1006
3,464,63678,-8029,-14258,-2456,-29,112,995
3,465,63683,-8110,-14163,-2738,-32,65,979
3,466,63688,-8254,-14084,-2926,-42,20,965
3,467,63693,-8234,-13998,-3032,-48,-7,952
3,468,63698,-8195,-13881,-3290,-47,-27,941
3,469,63703,-8248,-13700,-3002,-49,-42,928
3,470,63708,-8506,-13620,-2746,-48,-68,913
3,471,63713,-8846,-13650,-2663,-54,-116,889
3,472,63718,-8957,-13575,-2814,-57,-167,864
3,473,63723,-8824,-13728,-3276,-58,-181,852
3,474,63728,-8732,-13662,-3463,-61,-159,836
3,475,63733,-8530,-13875,-3495,-60,-101,827
3,476,63738,-8273,-14040,-3920,-54,-34,803
3,477,63743,-8230,-13952,-4162,-48,69,775
3,478,63748,-8309,-14070,-4137,-45,176,758
3,479,63753,-8428,-13996,-3485,-46,258,734
3,480,63758,-8357,-14165,-2828,-48,302,713
3,481,63763,-7968,-14266,-3066,-44,319,678
3,482,63768,-7758,-13861,-3183,-38,332,652
3,483,63773,-7904,-14017,-2662,-42,318,648
3,484,63778,-8012,-14073,-2465,-55,248,631
3,485,63783,-7823,-13914,-2658,-60,169,605
3,486,63788,-7524,-13970,-3144,-62,119,586
3,487,63793,-7016,-12350,-3954,-48,117,581
3,488,63798,-8103,-15184,-1938,-40,159,638
3,489,63803,-7665,-14757,-3446,-95,-9,525
3,490,63808,-7656,-13962,-2934,-125,-27,434
3,491,63813,-6963,-13537,-3379,-81,14,399
3,492,63818,-7948,-13174,-3547,-39,38,433
3,493,63823,-7945,-14333,-2181,-42,-45,453
3,494,63828,-7775,-13436,-3698,-68,-217,382
3,495,63833,-7088,-13465,-4306,-81,-171,358
3,496,63838,-7562,-13386,-4642,-68,12,336
3,497,63843,-8160,-13248,-3501,-50,157,314
3,498,63848,-8249,-13403,-2624,-58,115,298
3,499,63853,-7692,-13135,-2867,-61,-23,258
3,500,63858,-7554,-13025,-3288,-62,-84,224
3,501,63863,-8040,-13038,-3605,-50,-68,198
3,502,63868,-8529,-12897,-3784,-40,-14,165
3,503,63873,-8453,-12831,-3553,-42,15,132
3,504,63878,-8015,-12745,-3440,-48,16,103
3,505,63883,-7889,-12797,-2977,-47,20,76
3,506,63888,-8209,-12787,-2705,-38,-2,40
3,507,63893,-8608,-12734,-2927,-36,-59,3
3,508,63898,-8659,-12667,-3204,-37,-111,-34
3,509,63903,-8399,-12658,-3351,-33,-121,-66
3,510,63908,-8171,-12823,-3191,-32,-88,-96
3,511,63913,-8183,-12991,-2990,-28,-52,-125
3,512,63918,-8322,-13116,-3063,-26,-50,-158
3,513,63923,-8390,-13159,-3414,-28,-62,-195
3,514,63928,-8445,-13196,-3516,-31,-46,-229
3,515,63933,-8455,-13277,-3337,-22,-3,-257
3,516,63938,-8471,-13388,-3264,-13,47,-283
3,517,63943,-8427,-13472,-3523,-9,96,-319
3,518,63948,-8538,-13454,-3670,-9,141,-357
3,519,63953,-8653,-13357,-3501,-7,185,-393
3,520,63958,-8634,-13260,-3326,-1,228,-422
3,521,63963,-8460,-13301,-3453,8,275,-453
3,522,63968,-8457,-13330,-3541,13,316,-489
3,523,63973,-8551,-13254,-3421,15,345,-530
3,524,63978,-8501,-13220,-3499,23,372,-563
3,525,63983,-8492,-13201,-3249,25,395,-599
3,526,63988,-8430,-13203,-3122,22,406,-626
3,527,63993,-8263,-13335,-3277,31,403,-655
3,528,63998,-8315,-13327,-3074,37,399,-696
3,529,64003,-8257,-13308,-3296,41,373,-733
3,530,64008,-8214,-13370,-3229,44,377,-763
3,531,64013,-8625,-13112,-2198,44,341,-797
3,532,64018,-7525,-13478,-4636,54,301,-808
3,533,64023,-7890,-13996,-3670,69,430,-841
3,534,64028,-8263,-13078,-2692,51,420,-913
3,535,64033,-8273,-13787,-2977,53,394,-899
3,536,64038,-7452,-13670,-3725,83,417,-961
3,537,64043,-7645,-14162,-3389,74,436,-985
3,538,64048,-7838,-13786,-2930,86,464,-1035
3,539,64053,-7712,-13964,-3563,94,463,-1052
3,540,64058,-7343,-14025,-3984,100,502,-1077
3,541,64063,-7311,-14059,-3649,106,565,-1104
3,542,64068,-7364,-14205,-2994,113,581,-1130
3,543,64073,-7372,-14138,-2940,118,557,-1156
3,544,64078,-7237,-14282,-3214,120,534,-1182
3,545,64083,-7294,-14237,-3146,129,524,-1210
3,546,64088,-7156,-14393,-3044,132,508,-1227
3,547,64093,-6895,-14603,-2922,136,483,-1244
3,548,64098,-6490,-14689,-3262,138,460,-1273
3,549,64103,-6404,-14781,-3501,143,455,-1298
3,550,64108,-6594,-14770,-3304,148,471,-1323
3,551,64113,-6650,-14812,-3200,154,476,-1331
3,552,64118,-6316,-14994,-3371,159,487,-1340
3,553,64123,-5785,-15109,-3649,165,524,-1351
3,554,64128,-5935,-15091,-3582,171,577,-1366
3,555,64133,-5154,-15638,-3929,169,587,-1378
3,556,64138,-5056,-15122,-3306,185,636,-1409
3,557,64143,-4993,-15235,-3077,191,615,-1417
3,558,64148,-5552,-15661,-3332,202,602,-1404
3,559,64153,-4742,-15023,-3017,209,573,-1440
3,560,64158,-4464,-15540,-2869,197,540,-1415
3,561,64163,-4294,-15634,-2321,193,487,-1434
3,562,64168,-4529,-15405,-2499,196,384,-1445
3,563,64173,-4608,-15374,-2831,193,270,-1444
3,564,64178,-4605,-15288,-3080,187,184,-1445
3,565,64183,-4311,-15415,-3172,185,139,-1440
3,566,64188,-3942,-15437,-3694,185,132,-1432
3,567,64193,-3639,-15664,-3865,187,163,-1429
3,568,64198,-3798,-15505,-3773,193,178,-1445
3,569,64203,-4019,-15401,-3374,196,166,-1447
3,570,64208,-4008,-15426,-3324,198,119,-1434
3,571,64213,-3818,-15478,-3340,193,78,-1423
3,572,64218,-3641,-15572,-3334,189,49,-1417
3,573,64223,-3728,-15578,-3223,189,26,-1416
3,574,64228,-3778,-15536,-3296,188,-18,-1416
3,575,64233,-3760,-15543,-3400,185,-56,-1408
3,576,64238,-3498,-15550,-3571,187,-92,-1402
3,577,64243,-3455,-15560,-3543,184,-116,-1391
3,578,64248,-3572,-15696,-3511,176,-141,-1383
3,579,64253,-3758,-15589,-3532,178,-149,-1372
3,580,64258,-3583,-15837,-3776,177,-162,-1353
3,581,64263,-3412,-15750,-4001,170,-151,-1353
3,582,64268,-4196,-16212,-4057,172,-119,-1351
3,583,64273,-6427,-15208,-3315,172,-91,-1388
3,584,64278,-4460,-14700,-4404,192,-147,-1327
3,585,64283,-2855,-16298,-2810,159,-143,-1261
3,586,64288,-3864,-15970,-2126,140,-230,-1285
3,587,64293,-4342,-16254,-4563,150,-328,-1278
3,588,64298,-4115,-16534,-7465,171,-229,-1279
3,589,64303,-5175,-15808,-6053,168,1,-1319
3,590,64308,-5412,-15584,-3770,158,141,-1296
3,591,64313,-4398,-16583,-2314,186,170,-1240
3,592,64318,-1457,-17181,-4378,193,62,-1295
3,593,64323,-1768,-12309,-1240,230,100,-1407
3,594,64328,-4842,-16585,-5417,176,-43,-1193
3,595,64333,-3853,-16700,-2418,247,18,-1316
3,596,64338,-8221,-13978,-3996,170,-163,-1280
3,597,64343,-4740,-17794,-3651,148,-174,-1101
3,598,64348,-5254,-13940,-5193,204,-110,-1254
3,599,64353,4588,-23863,-20062,372,231,-1199
3,600,64358,-22403,-26575,-31717,849,2320,-1292
3,601,64380,6044,-30348,32767,382,3797,-138
3,602,64380,6044,-30348,32767,382,3797,-138
3,603,64381,6044,-30348,32767,382,3797,-138
3,604,64382,6044,-30348,32767,382,3797,-138
3,605,64383,-32768,-11775,26017,126,-2052,-746
3,606,64388,-32768,-11775,26017,126,-2052,-746
3,607,64393,-28680,-738,-15906,-166,-7211,-190
3,608,64398,13376,-7301,-32768,-293,-7598,681
3,609,64403,8207,-24689,7538,-76,-552,239
3,610,64408,-21475,-12505,-1478,54,-751,-75
3,611,64413,-19937,-11671,-16787,203,-1876,427
3,612,64418,-530,-10211,-15793,174,-1949,599
3,613,64423,12247,-15883,-9245,-47,-1143,720
3,614,64428,4485,-20577,329,-48,594,579
3,615,64433,-10169,-16536,504,186,1441,286
3,616,64438,-13322,-13860,-6397,204,939,372
3,617,64443,-3569,-14442,-8826,78,90,523
3,618,64448,3897,-16080,287,7,14,504
3,619,64453,2667,-18351,6948,80,399,405
3,620,64458,-4385,-17466,1115,217,567,288
3,621,64463,-7908,-15672,-6739,222,293,286
3,622,64468,-5507,-14913,-5705,53,-209,372
3,623,64473,-586,-16477,1326,-44,-493,425
3,624,64478,1542,-17843,4351,11,-398,363
3,625,64483,-475,-17334,-5296,105,-197,269
3,626,64488,-4670,-16932,-10249,159,94,263
3,627,64493,-6276,-14819,-5186,66,155,244
3,628,64498,-3176,-15781,123,-51,-29,359
3,629,64503,1193,-17534,274,-1,1,361
3,630,64508,786,-17065,-5282,97,292,257
3,631,64513,-3423,-16656,-5011,128,590,229
3,632,64518,-5837,-15923,-2785,54,428,233
3,633,64523,-3238,-15591,-771,4,140,252
3,634,64528,400,-16076,-1141,10,119,275
3,635,64533,865,-17031,-3340,51,343,255
3,636,64538,-2320,-16714,-3169,69,515,197
3,637,64543,-4501,-15936,-1873,36,338,168
3,638,64548,-3190,-15406,-1802,-10,23,180
3,639,64553,-546,-15656,-2925,-19,-39,202
3,640,64558,-117,-16290,-3840,17,196,199
3,641,64563,-1989,-16330,-3268,44,409,163
3,642,64568,-3479,-15735,-2815,30,344,128
3,643,64573,-2842,-15227,-3085,-3,147,121
3,644,64578,-1372,-15330,-3405,-23,100,131
3,645,64583,-1043,-15684,-3114,-6,243,137
3,646,64588,-2023,-15884,-2526,16,359,127
3,647,64593,-2886,-15745,-2800,13,279,102
3,648,64598,-2733,-15400,-3395,-10,121,80
3,649,64603,-1995,-15282,-3350,-28,62,73
3,650,64608,-1647,-15523,-2852,-22,127,77
3,651,64613,-1984,-15723,-2787,-6,196,68
3,652,64618,-2468,-15761,-3193,-2,169,48
3,653,64623,-2626,-15535,-3656,-12,79,25
3,654,64628,-2429,-15463,-3352,-26,31,17
3,655,64633,-2212,-15689,-2958,-26,53,18
3,656,64638,-2298,-15723,-3024,-16,103,10
3,657,64643,-2483,-15862,-3421,-9,129,0
3,658,64648,-2661,-15709,-3629,-15,111,-18
3,659,64653,-2639,-15874,-3061,-28,83,-25
3,660,64658,-2531,-15673,-2896,-33,59,-38
3,661,64663,-2436,-15837,-2818,-29,82,-34
3,662,64668,-2510,-16060,-3392,-23,99,-42
3,663,64673,-2654,-15952,-3305,-19,107,-66
3,664,64678,-2794,-15926,-2958,-26,81,-75
3,665,64683,-2622,-15984,-2969,-30,54,-83
3,666,64688,-2508,-16022,-3088,-30,67,-88
3,667,64693,-2541,-16064,-3194,-26,88,-92
3,668,64698,-2663,-16107,-3173,-27,90,-100
3,669,64703,-2665,-16062,-3190,-30,76,-111
3,670,64708,-2521,-16067,-3342,-30,63,-122
3,671,64713,-2421,-16055,-3232,-31,71,-127
3,672,64718,-2443,-16017,-3226,-30,77,-129
3,673,64723,-2493,-15945,-3277,-29,80,-136
3,674,64728,-2502,-15925,-3351,-29,78,-139
3,675,64733,-2458,-15945,-3365,-28,82,-147
3,676,64738,-2448,-15948,-3288,-28,100,-147
3,677,64743,-2445,-15933,-3177,-27,116,-149
3,678,64748,-2463,-15872,-3161,-28,121,-155
3,679,64753,-2462,-15906,-3342,-25,118,-157
3,680,64758,-2438,-15839,-3546,-24,125,-162
3,681,64763,-2394,-15822,-3376,-24,141,-161
3,682,64768,-2349,-15787,-3076,-25,148,-168
3,683,64773,-2336,-15772,-3236,-22,129,-175
3,684,64778,-2367,-15714,-3294,-22,120,-180
3,685,64783,-2366,-15717,-3122,-25,112,-179
3,686,64788,-2300,-15733,-2957,-27,96,-178
3,687,64793,-2318,-15714,-3040,-28,74,-182
3,688,64798,-2271,-15684,-3328,-25,59,-179
3,689,64803,-2229,-15712,-3450,-23,64,-178
3,690,64808,-2212,-15755,-3370,-26,77,-180
3,691,64813,-2201,-15732,-3257,-27,80,-176
3,692,64818,-2162,-15764,-3099,-23,78,-177
3,693,64823,-2283,-15805,-3090,-25,63,-181
3,694,64828,-2352,-15821,-3088,-27,47,-179
3,695,64833,-2372,-15820,-3132,-26,29,-179
3,696,64838,-2245,-15802,-3286,-27,19,-177
3,697,64843,-2090,-15830,-3353,-27,15,-172
3,698,64848,-2124,-16079,-3210,-21,17,-171
3,699,64853,-2302,-15976,-3300,-23,2,-182
3,700,64858,-2349,-15900,-3153,-20,-10,-179
3,701,64863,-2161,-15995,-3262,-18,-25,-170
3,702,64868,-2123,-15996,-3255,-15,-23,-165
3,703,64873,-2138,-15943,-3318,-16,-18,-163
3,704,64878,-2239,-15911,-3439,-16,-12,-162
3,705,64883,-2174,-15867,-3363,-15,-7,-157
3,706,64888,-2168,-15773,-3348,-12,-4,-154
3,707,64893,-2033,-15801,-3211,-8,-1,-148
3,708,64898,-2076,-15921,-3152,-8,-6,-145
3,709,64903,-2094,-15792,-3128,-8,-21,-145
3,710,64908,-2090,-15688,-3145,-8,-36,-140
3,711,64913,-2078,-15700,-3313,-7,-48,-136
3,712,64918,-2048,-15624,-3275,-3,-48,-132
3,713,64923,-1973,-15684,-3042,-3,-55,-124
3,714,64928,-1990,-15792,-2887,-4,-78,-121
3,715,64933,-2018,-15776,-2926,-3,-111,-119
3,716,64938,-2111,-15785,-3190,-2,-138,-116
3,717,64943,-2128,-15839,-3273,0,-154,-112
3,718,64948,-2171,-15915,-3268,-2,-161,-106
3,719,64953,-2231,-15894,-3192,0,-167,-102
3,720,64958,-2165,-15881,-3140,1,-172,-102
3,721,64963,-2261,-15903,-3210,3,-178,-100
3,722,64968,-2399,-15903,-3204,3,-186,-96
3,723,64973,-2440,-15860,-3195,3,-191,-91
3,724,64978,-2394,-15874,-3108,4,-191,-87
3,725,64983,-2353,-15853,-3090,6,-186,-84
3,726,64988,-2379,-15914,-3135,9,-175,-83
3,727,64993,-2486,-15934,-3083,12,-171,-79
3,728,64998,-2594,-15967,-3088,10,-175,-77
3,729,65003,-2539,-15958,-3058,9,-177,-73
3,730,65008,-2445,-15925,-3151,10,-170,-70
3,731,65013,-2504,-16020,-3173,17,-152,-67
3,732,65018,-2637,-16035,-3183,16,-137,-65
3,733,65023,-2804,-16047,-3073,16,-129,-66
3,734,65028,-2761,-16090,-2995,15,-124,-64
3,735,65033,-2699,-16099,-3095,18,-112,-59
3,736,65038,-2682,-16122,-3131,18,-100,-56
3,737,65043,-2778,-16098,-3145,19,-93,-58
3,738,65048,-3031,-16074,-3345,20,-92,-64
3,739,65053,-2926,-15945,-3379,24,-88,-62
3,740,65058,-2833,-15968,-3050,26,-70,-50
3,741,65063,-2722,-16119,-3043,23,-59,-47
3,742,65068,-2962,-16013,-3049,27,-54,-53
3,743,65073,-3006,-16035,-3305,27,-60,-47
3,744,65078,-2875,-15918,-3493,25,-55,-48
3,745,65083,-2583,-15844,-3301,27,-25,-44
3,746,65088,-2505,-16064,-3210,25,-7,-31
3,747,65093,-2623,-15987,-3073,28,-4,-39
3,748,65098,-2813,-15865,-3033,30,-19,-47
3,749,65103,-2741,-15823,-2911,36,-40,-40
3,750,65108,-2554,-15768,-2850,33,-56,-36
3,751,65113,-2489,-16024,-2824,33,-79,-25
3,752,65118,-2531,-15986,-3023,31,-112,-26
3,753,65123,-2636,-15953,-3031,28,-132,-26
3,754,65128,-2745,-15935,-3137,25,-134,-23
3,755,65133,-2735,-15935,-3038,25,-117,-15
3,756,65138,-2619,-16103,-3083,27,-105,-2
3,757,65143,-2700,-16074,-3353,26,-96,-8
3,758,65148,-2778,-16004,-3619,35,-62,-12
3,759,65153,-2735,-15912,-3449,38,-6,-7
3,760,65158,-2648,-15875,-3258,37,42,-4
3,761,65163,-2562,-15972,-2985,39,67,5
3,762,65168,-2566,-15963,-2953,39,66,9
3,763,65173,-2586,-15950,-2997,41,56,11
3,764,65178,-2572,-15933,-2968,41,52,13
3,765,65183,-2420,-15949,-3037,40,47,19
3,766,65188,-2366,-15949,-3014,35,52,20
3,767,65193,-2335,-15977,-2969,31,53,22
3,768,65198,-2355,-15921,-2978,33,42,23
3,769,65203,-2419,-15828,-2919,37,26,27
3,770,65208,-2374,-15802,-2999,35,15,31
3,771,65213,-2376,-15795,-3007,32,8,33
3,772,65218,-2364,-15867,-3045,33,2,36
3,773,65223,-2343,-15881,-3075,33,-6,37
3,774,65228,-2404,-15782,-3002,29,-21,39
3,775,65233,-2432,-15767,-3070,28,-33,44
3,776,65238,-2471,-15760,-3188,27,-35,45
3,777,65243,-2402,-15775,-3173,28,-33,49
3,778,65248,-2342,-15845,-3206,30,-27,51
3,779,65253,-2363,-15855,-3205,29,-17,50
3,780,65258,-2412,-15870,-3134,25,-15,51
3,781,65263,-2469,-15831,-3071,24,-18,54
3,782,65268,-2451,-15836,-3168,30,-19,59
3,783,65273,-2461,-15847,-3226,28,-15,57
3,784,65278,-2477,-15791,-3128,23,-14,57
3,785,65283,-2463,-15826,-3029,24,-18,61
3,786,65288,-2475,-15857,-3022,24,-19,58
3,787,65293,-2447,-15882,-3167,23,-18,58
3,788,65298,-2467,-15938,-3252,24,-10,62
3,789,65303,-2444,-15981,-3280,23,5,63
3,790,65308,-2407,-15967,-3188,19,20,61
3,791,65313,-2488,-15983,-2953,18,20,61
3,792,65318,-2503,-16016,-2990,19,12,61
3,793,65323,-2471,-15962,-3073,18,6,61
3,794,65328,-2379,-15967,-3073,16,3,63
3,795,65333,-2400,-15965,-2975,15,0,62
3,796,65338,-2398,-15986,-2960,13,-7,62
3,797,65343,-2365,-16038,-3090,11,-12,65
3,798,65348,-2365,-16072,-3206,10,-11,62
3,799,65353,-2402,-16044,-3141,10,-11,65
3,800,65358,-2369,-15988,-3101,9,-16,65
3,801,65363,-2349,-15980,-3137,9,-18,62
3,802,65368,-2349,-15991,-3106,6,-15,59
3,803,65373,-2351,-15936,-3121,7,-12,62
3,804,65378,-2329,-16006,-3060,8,-4,63
3,805,65383,-2320,-16008,-3109,9,2,60
3,806,65388,-2342,-16027,-3199,4,4,59
3,807,65393,-2398,-16022,-3163,4,7,60
3,808,65398,-2406,-16028,-3120,3,5,61
3,809,65403,-2337,-15996,-3051,4,8,59
3,810,65408,-2315,-16021,-3085,3,5,60
3,811,65413,-2358,-15961,-3126,3,12,58
3,812,65418,-2389,-15977,-3057,2,12,56
3,813,65423,-2351,-16049,-3079,2,2,59
3,814,65428,-2472,-15994,-2798,0,-5,58
3,815,65433,-2414,-16052,-2951,-2,-20,58
3,816,65438,-2321,-15995,-3081,-5,-28,51
3,817,65443,-2488,-15951,-3004,-2,-33,51
3,818,65448,-2397,-15991,-3086,-6,-47,51
3,819,65453,-2358,-15878,-3079,-7,-54,48
3,820,65458,-2421,-16004,-3234,-8,-59,50
3,821,65463,-2507,-15992,-3086,-10,-47,45
3,822,65468,-2527,-15991,-2979,-11,-34,48
3,823,65473,-2405,-15971,-3162,-11,-21,51
3,824,65478,-2300,-15975,-3467,-11,-1,53
3,825,65483,-2396,-15951,-3436,-9,24,51
3,826,65488,-2545,-15856,-3058,-9,42,46
3,827,65493,-2528,-15843,-2932,-11,34,46
3,828,65498,-2486,-15827,-3118,-8,24,46
3,829,65503,-2407,-15741,-3318,-9,24,43
3,830,65508,-2521,-15789,-2775,-14,4,38
3,831,65513,-2487,-15834,-2852,-15,-20,38
3,832,65518,-2536,-15898,-3153,-11,-33,39
3,833,65523,-2632,-16007,-3196,-12,-31,36
3,834,65528,-2718,-16018,-3102,-13,-25,34
3,835,65533,-2679,-15987,-3124,-18,-26,33
3,836,65538,-2652,-15951,-3237,-16,-21,30
3,837,65543,-2624,-15957,-3391,-16,-5,31
3,838,65548,-2656,-15910,-3330,-15,10,31
3,839,65553,-2673,-15852,-3199,-14,15,30
3,840,65558,-2669,-15815,-3097,-15,13,26
3,841,65563,-2692,-15788,-3072,-17,8,24
3,842,65568,-2739,-15814,-3045,-17,6,24
3,843,65573,-2678,-15890,-3073,-15,4,26
3,844,65578,-2617,-15977,-3104,-15,5,22
3,845,65583,-2573,-16037,-3116,-19,15,17
3,846,65588,-2549,-16029,-3215,-14,27,16
3,847,65593,-2592,-16065,-3263,-14,47,15
3,848,65598,-2606,-16067,-3186,-15,61,16
3,849,65603,-2545,-16021,-3074,-18,69,15
3,850,65608,-2513,-15979,-2959,-17,72,17
3,851,65613,-2527,-15958,-2904,-16,63,16
3,852,65618,-2586,-15996,-2969,-18,49,11
3,853,65623,-2552,-16035,-3048,-21,31,12
3,854,65628,-2485,-16100,-3036,-22,17,13
3,855,65633,-2414,-16121,-2986,-22,4,13
3,856,65638,-2428,-16092,-2923,-23,-9,10
3,857,65643,-2538,-16068,-2964,-23,-23,9
3,858,65648,-2595,-16039,-3060,-28,-34,7
3,859,65653,-2537,-15967,-3152,-29,-40,8
3,860,65658,-2442,-16013,-3165,-26,-39,8
3,861,65663,-2433,-16037,-3124,-27,-26,5
3,862,65668,-2522,-16053,-3120,-23,-25,5
3,863,65673,-2528,-16008,-3150,-24,-25,6
3,864,65678,-2562,-15993,-3126,-24,-24,5
3,865,65683,-2572,-16018,-3160,-25,-20,6
3,866,65688,-2545,-15972,-3161,-24,-11,6
3,867,65693,-2570,-15983,-3198,-23,-1,6
3,868,65698,-2627,-15912,-3277,-23,10,4
3,869,65703,-2591,-15865,-3278,-21,23,3
3,870,65708,-2605,-15825,-3178,-21,36,1
3,871,65713,-2637,-15881,-3127,-20,43,0
3,872,65718,-2633,-15911,-3123,-20,41,0
3,873,65723,-2563,-15843,-3131,-19,38,-3
3,874,65728,-2464,-15866,-3132,-19,39,-1
3,875,65733,-2434,-15924,-3125,-18,39,-1
3,876,65738,-2402,-15873,-3090,-18,38,-1
3,877,65743,-2423,-15872,-3012,-21,33,-2
