event_id,seq,ts_ms,ax,ay,az,gx,gy,gz
10,0,330166,590,-16750,-2523,24,242,-115
10,1,330171,616,-16695,-2386,22,239,-110
10,2,330176,605,-16624,-2313,17,224,-103
10,3,330181,561,-16539,-2290,15,198,-97
10,4,330186,540,-16439,-2306,13,177,-92
10,5,330191,524,-16405,-2279,7,169,-86
10,6,330196,489,-16336,-2273,4,161,-86
10,7,330201,308,-16349,-2371,2,145,-83
10,8,330206,-34,-16414,-2527,-3,128,-83
10,9,330211,-211,-16478,-2698,-4,110,-79
10,10,330216,-37,-16569,-2763,-6,98,-72
10,11,330221,188,-16574,-2605,-11,86,-71
10,12,330226,307,-16534,-2555,-15,73,-72
10,13,330231,376,-16469,-2688,-12,62,-74
10,14,330236,373,-16476,-2905,-13,59,-75
10,15,330241,391,-16587,-2850,-20,72,-74
10,16,330246,357,-16597,-2812,-25,76,-71
10,17,330251,432,-16616,-2792,-25,77,-68
10,18,330256,515,-16662,-2798,-24,81,-66
10,19,330261,628,-16654,-2719,-26,77,-66
10,20,330266,593,-16622,-2562,-27,59,-62
10,21,330271,464,-16695,-2435,-26,36,-59
10,22,330276,335,-16739,-2455,-28,11,-59
10,23,330281,382,-16776,-2442,-26,-10,-54
10,24,330286,521,-16815,-2474,-24,-29,-49
10,25,330291,525,-16768,-2497,-26,-52,-50
10,26,330296,446,-16760,-2716,-23,-81,-47
10,27,330301,334,-16709,-2915,-20,-104,-46
10,28,330306,418,-16661,-2989,-22,-120,-42
10,29,330311,578,-16557,-2925,-30,-119,-37
10,30,330316,722,-16478,-2830,-34,-101,-38
10,31,330321,707,-16490,-2916,-34,-68,-38
10,32,330326,669,-16486,-2973,-37,-24,-41
10,33,330331,639,-16477,-2872,-44,17,-40
10,34,330336,633,-16489,-2721,-48,48,-40
10,35,330341,635,-16450,-2658,-50,68,-42
10,36,330346,761,-16401,-2550,-55,80,-40
10,37,330351,847,-16370,-2461,-57,80,-35
10,38,330356,790,-16361,-2391,-58,73,-35
10,39,330361,706,-16314,-2445,-61,60,-34
10,40,330366,713,-16288,-2538,-61,44,-30
10,41,330371,820,-16226,-2610,-62,29,-28
10,42,330376,827,-16213,-2683,-62,16,-25
10,43,330381,809,-16205,-2692,-62,5,-26
10,44,330386,801,-16210,-2752,-63,-4,-23
10,45,330391,825,-16194,-2835,-60,-3,-22
10,46,330396,807,-16161,-2915,-63,8,-21
10,47,330401,762,-16166,-2966,-63,16,-20
10,48,330406,746,-16185,-2948,-63,20,-21
10,49,330411,792,-16176,-2993,-65,17,-22
10,50,330416,835,-16144,-2962,-63,18,-25
10,51,330421,815,-16174,-2999,-62,21,-25
10,52,330426,900,-16245,-3062,-62,23,-25
10,53,330431,1042,-16263,-3097,-60,24,-22
10,54,330436,1133,-16199,-2956,-57,25,-24
10,55,330441,1140,-16231,-2892,-56,24,-27
10,56,330446,1057,-16260,-2940,-55,20,-30
10,57,330451,1060,-16349,-3091,-55,25,-28
10,58,330456,1122,-16421,-3188,-50,33,-28
10,59,330461,1098,-16467,-3056,-48,34,-28
10,60,330466,1024,-16468,-2843,-44,20,-29
10,61,330471,1005,-16499,-2826,-42,10,-27
10,62,330476,1120,-16488,-2910,-39,13,-27
10,63,330481,1150,-16476,-2973,-36,27,-31
10,64,330486,1180,-16458,-2909,-34,30,-32
10,65,330491,1161,-16385,-2765,-32,18,-34
10,66,330496,1131,-16271,-2694,-29,4,-32
10,67,330501,1122,-16151,-2693,-27,6,-30
10,68,330506,1153,-16080,-2708,-27,13,-34
10,69,330511,1050,-16036,-2730,-27,22,-36
10,70,330516,1036,-16040,-2691,-20,17,-34
10,71,330521,1071,-16017,-2707,-20,10,-33
10,72,330526,1032,-16046,-2658,-20,5,-34
10,73,330531,1101,-16040,-2706,-15,0,-34
10,74,330536,1062,-16042,-2678,-12,-7,-36
10,75,330541,1024,-16026,-2641,-11,-21,-39
10,76,330546,1026,-16041,-2537,-9,-33,-39
10,77,330551,1030,-16040,-2537,-5,-44,-34
10,78,330556,991,-16044,-2625,-1,-56,-35
10,79,330561,948,-16060,-2614,1,-61,-37
10,80,330566,961,-16055,-2646,5,-70,-38
10,81,330571,970,-16092,-2670,7,-82,-32
10,82,330576,1108,-16172,-2610,8,-83,-33
10,83,330581,1108,-16276,-2588,10,-70,-36
10,84,330586,1144,-16331,-2506,14,-55,-32
10,85,330591,1145,-16411,-2457,13,-37,-36
10,86,330596,1118,-16459,-2465,12,-17,-38
10,87,330601,1201,-16431,-2421,13,-1,-34
10,88,330606,1126,-16398,-2118,10,11,-32
10,89,330611,1064,-16380,-2071,16,8,-28
10,90,330616,1058,-16356,-2067,16,1,-27
10,91,330621,1125,-16404,-2034,16,-8,-24
10,92,330626,1175,-16455,-2026,19,-25,-19
10,93,330631,1133,-16495,-2038,22,-48,-16
10,94,330636,1183,-16462,-1988,22,-74,-13
10,95,330641,1171,-16437,-1949,24,-104,-11
10,96,330646,1178,-16449,-2090,30,-127,-7
10,97,330651,1084,-16455,-2235,30,-134,-7
10,98,330656,1014,-16409,-2292,32,-137,-3
10,99,330661,969,-16356,-2304,30,-135,0
10,100,330666,891,-16426,-2428,32,-127,1
10,101,330671,696,-16476,-2525,35,-109,1
10,102,330676,543,-16520,-2509,33,-87,1
10,103,330681,500,-16499,-2467,33,-73,4
10,104,330686,658,-16464,-2337,33,-52,3
10,105,330691,691,-16469,-2193,34,-37,3
10,106,330696,670,-16481,-2132,33,-28,-1
10,107,330701,627,-16487,-2172,34,-26,1
10,108,330706,686,-16467,-2222,34,-29,6
10,109,330711,710,-16487,-2061,36,-40,6
10,110,330716,640,-16497,-2030,38,-62,7
10,111,330721,573,-16474,-2151,42,-83,9
10,112,330726,514,-16501,-2361,49,-97,12
10,113,330731,539,-16535,-2444,48,-107,15
10,114,330736,522,-16455,-2467,49,-118,16
10,115,330741,490,-16438,-2567,53,-125,15
10,116,330746,502,-16461,-2727,55,-122,14
10,117,330751,515,-16396,-2684,55,-112,20
10,118,330756,586,-16377,-2636,56,-95,20
10,119,330761,626,-16353,-2556,56,-75,16
10,120,330766,466,-16362,-2605,56,-53,15
10,121,330771,423,-16360,-2609,57,-35,16
10,122,330776,440,-16363,-2518,58,-22,16
10,123,330781,476,-16323,-2391,59,-17,18
10,124,330786,429,-16343,-2282,55,-22,17
10,125,330791,350,-16316,-2284,60,-37,16
10,126,330796,336,-16312,-2381,64,-58,21
10,127,330801,302,-16286,-2464,66,-76,21
10,128,330806,350,-16270,-2549,70,-95,18
10,129,330811,322,-16279,-2548,73,-109,19
10,130,330816,335,-16300,-2490,75,-125,22
10,131,330821,481,-16403,-2560,75,-134,22
10,132,330826,528,-16491,-2582,75,-125,20
10,133,330831,572,-16541,-2475,76,-119,20
10,134,330836,673,-16527,-2410,75,-119,18
10,135,330841,766,-16485,-2499,76,-116,22
10,136,330846,846,-16491,-2573,78,-107,22
10,137,330851,787,-16466,-2445,78,-106,19
10,138,330856,667,-16406,-2493,76,-109,21
10,139,330861,576,-16348,-2604,76,-106,21
10,140,330866,601,-16244,-2727,75,-88,24
10,141,330871,660,-16200,-2658,75,-67,24
10,142,330876,524,-16263,-2564,75,-53,21
10,143,330881,336,-16275,-2705,76,-47,22
10,144,330886,240,-16277,-2728,74,-36,21
10,145,330891,333,-16285,-2624,76,-24,21
10,146,330896,439,-16247,-2463,75,-20,21
10,147,330901,552,-16262,-2437,75,-19,17
10,148,330906,549,-16300,-2350,78,-21,14
10,149,330911,489,-16316,-2303,76,-34,14
10,150,330916,496,-16337,-2299,78,-45,15
10,151,330921,541,-16316,-2313,77,-48,16
10,152,330926,589,-16298,-2261,75,-50,14
10,153,330931,649,-16333,-2282,75,-56,14
10,154,330936,650,-16400,-2404,79,-60,13
10,155,330941,636,-16409,-2419,74,-63,14
10,156,330946,669,-16421,-2461,74,-66,14
10,157,330951,749,-16446,-2467,74,-63,17
10,158,330956,748,-16496,-2422,74,-57,14
10,159,330961,688,-16488,-2476,72,-49,14
10,160,330966,707,-16422,-2575,70,-40,16
10,161,330971,712,-16321,-2503,69,-24,17
10,162,330976,683,-16273,-2531,70,-26,21
10,163,330981,668,-16258,-2560,70,-24,20
10,164,330986,642,-16249,-2506,66,-15,18
10,165,330991,621,-16193,-2452,68,-5,17
10,166,330996,543,-16220,-2404,65,5,16
10,167,331001,524,-16224,-2494,62,16,15
10,168,331006,478,-16204,-2479,61,30,14
10,169,331011,456,-16147,-2349,58,41,12
10,170,331016,486,-16212,-2279,54,39,11
10,171,331021,565,-16270,-2286,56,35,14
10,172,331026,659,-16345,-2210,54,33,16
10,173,331031,714,-16382,-2130,51,25,15
10,174,331036,704,-16373,-2062,54,11,15
10,175,331041,663,-16408,-2143,56,-2,18
10,176,331046,691,-16365,-2183,54,-6,19
10,177,331051,665,-16352,-2094,50,-16,19
10,178,331056,678,-16331,-2189,52,-31,19
10,179,331061,758,-16323,-2288,49,-40,20
10,180,331066,794,-16312,-2258,46,-41,22
10,181,331071,761,-16324,-2221,45,-38,21
10,182,331076,678,-16324,-2376,43,-33,20
10,183,331081,614,-16312,-2488,43,-27,18
10,184,331086,585,-16276,-2458,41,-15,22
10,185,331091,608,-16237,-2378,38,-7,20
10,186,331096,598,-16285,-2332,38,-2,20
10,187,331101,627,-16275,-2358,34,5,19
10,188,331106,639,-16290,-2385,35,14,17
10,189,331111,637,-16264,-2306,34,18,17
10,190,331116,615,-16256,-2247,32,19,16
10,191,331121,616,-16230,-2245,32,15,15
10,192,331126,566,-16226,-2220,33,8,16
10,193,331131,569,-16304,-2243,31,1,14
10,194,331136,580,-16364,-2262,31,-12,15
10,195,331141,629,-16341,-2236,31,-28,13
10,196,331146,645,-16387,-2176,28,-38,11
10,197,331151,601,-16402,-2203,31,-48,10
10,198,331156,626,-16359,-2214,32,-52,10
10,199,331161,616,-16396,-2246,30,-52,9
10,200,331166,610,-16429,-2306,29,-50,9
10,201,331171,592,-16449,-2400,27,-49,7
10,202,331176,625,-16421,-2466,28,-43,6
10,203,331181,680,-16403,-2435,26,-37,7
10,204,331186,733,-16344,-2332,25,-31,6
10,205,331191,691,-16372,-2384,24,-22,4
10,206,331196,612,-16387,-2411,22,-7,3
10,207,331201,604,-16298,-2420,25,10,1
10,208,331206,653,-16307,-2396,19,27,-2
10,209,331211,653,-16302,-2378,19,38,-2
10,210,331216,617,-16304,-2310,20,40,-3
10,211,331221,629,-16281,-2261,19,35,-4
10,212,331226,647,-16293,-2148,20,25,-2
10,213,331231,676,-16314,-2102,21,15,-2
10,214,331236,711,-16295,-2093,17,1,-5
10,215,331241,736,-16278,-2055,20,-12,-5
10,216,331246,714,-16260,-2082,20,-25,-8
10,217,331251,706,-16219,-2110,20,-38,-5
10,218,331256,662,-16242,-2129,21,-47,-3
10,219,331261,733,-16266,-2222,21,-51,-3
10,220,331266,771,-16312,-2246,18,-49,-5
10,221,331271,691,-16304,-2207,17,-48,-8
10,222,331276,690,-16259,-2221,18,-52,-9
10,223,331281,666,-16257,-2267,15,-54,-6
10,224,331286,658,-16245,-2302,17,-41,-8
10,225,331291,647,-16230,-2310,15,-28,-12
10,226,331296,660,-16256,-2277,14,-22,-12
10,227,331301,732,-16292,-2271,13,-20,-11
10,228,331306,721,-16355,-2203,12,-17,-13
10,229,331311,697,-16413,-2088,11,-13,-15
10,230,331316,708,-16424,-2091,11,-16,-12
10,231,331321,710,-16396,-2069,7,-11,-13
10,232,331326,723,-16351,-1999,5,-9,-17
10,233,331331,663,-16406,-2016,4,-15,-16
10,234,331336,644,-16401,-2016,6,-25,-16
10,235,331341,627,-16321,-2038,2,-38,-16
10,236,331346,634,-16277,-1996,2,-48,-16
10,237,331351,660,-16300,-2105,4,-54,-18
10,238,331356,591,-16342,-2227,-1,-51,-20
10,239,331361,575,-16338,-2245,-1,-45,-19
10,240,331366,550,-16304,-2216,-2,-40,-19
10,241,331371,659,-16301,-2242,-3,-38,-17
10,242,331376,709,-16257,-2201,-5,-33,-17
10,243,331381,694,-16275,-2164,-7,-23,-20
10,244,331386,647,-16282,-2173,-8,-18,-22
10,245,331391,619,-16318,-2173,-10,-18,-23
10,246,331396,605,-16316,-2210,-9,-23,-21
10,247,331401,727,-16339,-2269,-9,-20,-21
10,248,331406,673,-16324,-2134,-11,-20,-21
10,249,331411,721,-16340,-2080,-13,-33,-20
10,250,331416,683,-16354,-2126,-9,-45,-19
10,251,331421,627,-16396,-2132,-11,-45,-18
10,252,331426,693,-16402,-2139,-15,-42,-21
10,253,331431,727,-16345,-2137,-13,-44,-20
10,254,331436,789,-16326,-2147,-13,-48,-17
10,255,331441,795,-16369,-2230,-14,-50,-21
10,256,331446,765,-16368,-2320,-13,-51,-19
10,257,331451,748,-16293,-2386,-13,-47,-16
10,258,331456,684,-16263,-2459,-14,-44,-14
10,259,331461,605,-16247,-2437,-16,-38,-17
10,260,331466,657,-16277,-2453,-16,-30,-18
10,261,331471,675,-16287,-2430,-17,-21,-16
10,262,331476,674,-16329,-2425,-15,-15,-16
10,263,331481,670,-16341,-2383,-13,-7,-19
10,264,331486,660,-16276,-2367,-16,-5,-18
10,265,331491,763,-16250,-2283,-14,-4,-16
10,266,331496,740,-16253,-2351,-13,-4,-13
10,267,331501,684,-16292,-2318,-14,-9,-16
10,268,331506,642,-16293,-2319,-15,-16,-15
10,269,331511,675,-16290,-2274,-14,-20,-11
10,270,331516,785,-16298,-2288,-10,-18,-11
10,271,331521,746,-16282,-2267,-13,-12,-13
10,272,331526,650,-16288,-2204,-15,-13,-12
10,273,331531,678,-16219,-2153,-14,-16,-12
10,274,331536,732,-16206,-2250,-15,-17,-10
10,275,331541,664,-16263,-2226,-16,-15,-10
10,276,331546,643,-16292,-2136,-15,-17,-10
10,277,331551,712,-16282,-2113,-15,-20,-9
10,278,331556,804,-16267,-2170,-18,-24,-7
10,279,331561,798,-16258,-2168,-17,-22,-7
10,280,331566,702,-16269,-2176,-19,-25,-8
10,281,331571,631,-16284,-2152,-18,-35,-6
10,282,331576,686,-16263,-2199,-15,-40,-3
10,283,331581,729,-16239,-2211,-16,-46,-2
10,284,331586,647,-16272,-2241,-15,-49,0
10,285,331591,666,-16263,-2349,-17,-60,-2
10,286,331596,615,-16204,-2355,-15,-68,-2
10,287,331601,618,-16217,-2318,-13,-68,0
10,288,331606,681,-16303,-2297,-19,-56,-3
10,289,331611,738,-16309,-2359,-18,-37,-3
10,290,331616,807,-16304,-2450,-19,-11,-3
10,291,331621,749,-16307,-2409,-20,13,-6
10,292,331626,708,-16281,-2281,-22,29,-5
10,293,331631,665,-16239,-2233,-23,33,-3
10,294,331636,616,-16286,-2237,-24,36,-4
10,295,331641,634,-16291,-2246,-24,37,2
10,296,331646,685,-16289,-2172,-26,33,0
10,297,331651,793,-16332,-2122,-23,22,-1
10,298,331656,786,-16367,-2076,-25,10,0
10,299,331661,684,-16404,-2106,-24,2,2
10,300,331666,646,-16350,-2166,-23,-5,2
10,301,331671,693,-16329,-2168,-19,-10,4
10,302,331676,692,-16289,-2126,-22,-10,4
10,303,331681,696,-16248,-2182,-23,-10,2
10,304,331686,627,-16223,-2188,-24,-16,3
10,305,331691,620,-16254,-2238,-22,-26,5
10,306,331696,618,-16275,-2247,-21,-28,9
10,307,331701,623,-16295,-2273,-20,-27,7
10,308,331706,591,-16306,-2343,-21,-30,3
10,309,331711,594,-16326,-2379,-19,-33,5
10,310,331716,639,-16310,-2323,-22,-33,5
10,311,331721,686,-16270,-2320,-19,-33,8
10,312,331726,649,-16282,-2386,-19,-28,7
10,313,331731,575,-16285,-2401,-18,-20,6
10,314,331736,582,-16266,-2412,-19,-7,5
10,315,331741,578,-16254,-2338,-21,0,4
10,316,331746,609,-16276,-2361,-20,8,8
10,317,331751,644,-16326,-2289,-19,17,7
10,318,331756,595,-16351,-2212,-17,17,7
10,319,331761,587,-16314,-2207,-18,14,6
10,320,331766,607,-16280,-2239,-16,11,8
10,321,331771,666,-16252,-2225,-19,9,8
10,322,331776,648,-16215,-2167,-18,2,7
10,323,331781,635,-16232,-2237,-14,-16,12
10,324,331786,611,-16224,-2288,-12,-25,9
10,325,331791,549,-16193,-2281,-12,-34,10
10,326,331796,570,-16195,-2304,-11,-37,11
10,327,331801,516,-16230,-2404,-9,-37,11
10,328,331806,479,-16268,-2446,-9,-33,10
10,329,331811,527,-16315,-2385,-9,-24,9
10,330,331816,582,-16300,-2355,-9,-17,9
10,331,331821,617,-16337,-2327,-9,-13,8
10,332,331826,621,-16287,-2392,-9,-7,8
10,333,331831,622,-16306,-2328,-11,3,9
10,334,331836,640,-16310,-2286,-7,8,9
10,335,331841,650,-16280,-2310,-10,11,12
10,336,331846,659,-16272,-2368,-7,18,13
10,337,331851,741,-16260,-2321,-11,25,10
10,338,331856,742,-16248,-2210,-11,24,13
10,339,331861,703,-16282,-2294,-5,19,13
10,340,331866,685,-16263,-2274,-5,18,12
10,341,331871,682,-16253,-2262,-5,20,15
10,342,331876,730,-16269,-2208,-5,14,17
10,343,331881,717,-16272,-2228,-3,5,17
10,344,331886,710,-16274,-2222,-4,2,17
10,345,331891,688,-16303,-2256,-5,-3,16
10,346,331896,729,-16311,-2236,-4,-5,19
10,347,331901,762,-16325,-2248,-2,-3,20
10,348,331906,745,-16346,-2264,-5,2,19
10,349,331911,716,-16335,-2292,-5,8,18
10,350,331916,677,-16364,-2307,-5,16,18
10,351,331921,657,-16281,-2274,-5,20,21
10,352,331926,642,-16230,-2234,-6,27,22
10,353,331931,666,-16225,-2201,-3,24,22
10,354,331936,665,-16212,-2237,-4,24,21
10,355,331941,643,-16262,-2257,-5,24,20
10,356,331946,632,-16222,-2256,-2,22,21
10,357,331951,639,-16208,-2235,-4,17,18
10,358,331956,630,-16267,-2228,-5,13,22
10,359,331961,569,-16269,-2238,-4,13,22
10,360,331966,542,-16282,-2258,0,9,22
10,361,331971,551,-16300,-2263,-4,8,20
10,362,331976,570,-16307,-2302,-2,9,20
10,363,331981,575,-16306,-2242,-1,9,19
10,364,331986,577,-16276,-2242,-3,9,19
10,365,331991,522,-16292,-2256,-2,6,19
10,366,331996,532,-16283,-2263,-2,8,19
10,367,332001,530,-16271,-2281,-1,9,18
10,368,332006,528,-16248,-2263,-2,11,18
10,369,332011,523,-16268,-2251,-1,9,15
10,370,332016,501,-16264,-2255,0,10,13
10,371,332021,495,-16253,-2247,1,8,14
10,372,332026,486,-16287,-2274,4,1,17
10,373,332031,474,-16276,-2265,6,-3,13
10,374,332036,514,-16274,-2226,3,-10,14
10,375,332041,532,-16225,-2205,3,-14,13
10,376,332046,553,-16242,-2229,7,-16,14
10,377,332051,568,-16208,-2286,6,-17,11
10,378,332056,516,-16246,-2299,6,-14,13
10,379,332061,499,-16250,-2312,7,-9,12
10,380,332066,455,-16260,-2310,3,-1,11
10,381,332071,513,-16277,-2323,3,13,7
10,382,332076,475,-16276,-2358,2,20,5
10,383,332081,462,-16247,-2329,2,26,4
10,384,332086,357,-16239,-2365,3,35,3
10,385,332091,259,-16288,-2372,3,44,0
10,386,332096,215,-16314,-2369,2,54,-1
10,387,332101,150,-16316,-2425,1,59,0
10,388,332106,104,-16340,-2433,4,58,-3
10,389,332111,105,-16382,-2304,2,55,-3
10,390,332116,134,-16338,-2240,3,50,-2
10,391,332121,149,-16326,-2269,2,43,-4
10,392,332126,72,-16348,-2315,3,39,-6
10,393,332131,-3,-16378,-2389,6,40,-6
10,394,332136,-225,-16353,-2476,5,41,-8
10,395,332141,-335,-16372,-2568,4,38,-4
10,396,332146,-323,-16270,-2449,3,38,-1
10,397,332151,-255,-16225,-2463,4,47,1
10,398,332156,-211,-16164,-2636,5,60,0
10,399,332161,-337,-16260,-2926,5,89,2
10,400,332166,-180,-16419,-2864,0,128,5
10,401,332171,242,-16444,-2422,-6,162,13
10,402,332176,510,-16490,-2076,-7,188,19
10,403,332181,184,-16608,-2072,-10,213,17
10,404,332186,-252,-16629,-2021,-11,225,23
10,405,332191,-342,-16618,-1794,-13,222,40
10,406,332196,-218,-16549,-1499,-14,204,55
10,407,332201,-193,-16524,-1219,-15,176,64
10,408,332206,-340,-16465,-1048,-10,134,77
10,409,332211,-579,-16498,-1073,-9,80,93
10,410,332216,-661,-16426,-1285,-7,22,111
10,411,332221,-746,-16360,-1401,-4,-33,125
10,412,332226,-784,-16197,-1299,0,-99,143
10,413,332231,-766,-15976,-1310,4,-168,164
10,414,332236,-928,-15916,-1657,10,-231,180
10,415,332241,-1234,-15940,-1909,12,-276,193
10,416,332246,-1435,-15921,-2074,12,-308,210
10,417,332251,-1424,-15751,-2400,18,-322,232
10,418,332256,-1417,-15545,-2724,19,-305,247
10,419,332261,-1493,-15148,-3090,18,-262,260
10,420,332266,-1912,-15567,-4088,21,-195,270
10,421,332271,-2387,-15834,-3387,17,-69,280
10,422,332276,-2099,-15777,-3090,12,26,303
10,423,332281,-1747,-15794,-3389,13,141,310
10,424,332286,-1668,-15903,-3648,13,280,318
10,425,332291,-1664,-16005,-2913,4,395,335
10,426,332296,-1694,-16024,-2274,4,423,351
10,427,332301,-1775,-16099,-2450,13,412,373
10,428,332306,-1893,-16250,-2627,15,438,397
10,429,332311,-2159,-16332,-1959,14,476,412
10,430,332316,-1984,-16324,-1326,22,455,437
10,431,332321,-1516,-16349,-1465,34,387,470
10,432,332326,-1368,-16337,-1917,41,347,488
10,433,332331,-1871,-16636,-2518,48,321,504
10,434,332336,-2065,-16662,-1936,51,300,523
10,435,332341,-1606,-16577,-1593,57,237,561
10,436,332346,-1306,-16412,-1748,71,194,578
10,437,332351,-1484,-16418,-2131,79,181,593
10,438,332356,-1981,-16321,-2261,82,156,613
10,439,332361,-2098,-16263,-2247,87,117,636
10,440,332366,-1926,-16213,-2243,93,100,658
10,441,332371,-1866,-16268,-2275,102,119,675
10,442,332376,-1991,-16332,-2178,109,152,689
10,443,332381,-2035,-16403,-2188,112,166,705
10,444,332386,-1924,-16434,-2189,116,171,723
10,445,332391,-1975,-16363,-2036,121,181,736
10,446,332396,-2073,-16432,-1867,124,184,751
10,447,332401,-2195,-16413,-1855,132,175,769
10,448,332406,-2109,-16436,-1959,141,155,786
10,449,332411,-1965,-16412,-1849,147,134,799
10,450,332416,-1987,-16418,-1719,153,106,811
10,451,332421,-2135,-16492,-1753,161,72,822
10,452,332426,-2176,-16512,-1870,170,42,834
10,453,332431,-2176,-16495,-1841,175,34,847
10,454,332436,-2049,-16633,-1792,187,33,863
10,455,332441,-2098,-16640,-1905,191,39,868
10,456,332446,-2185,-16556,-1880,198,50,871
10,457,332451,-2330,-16476,-1878,201,55,878
10,458,332456,-2226,-16411,-1945,204,67,885
10,459,332461,-2116,-16358,-1911,207,84,888
10,460,332466,-2081,-16380,-1835,210,99,890
10,461,332471,-2197,-16422,-1761,211,111,888
10,462,332476,-2270,-16462,-1854,216,118,891
10,463,332481,-2157,-16404,-1914,217,133,892
10,464,332486,-2004,-16331,-1774,217,157,893
10,465,332491,-2030,-16348,-1619,218,177,890
10,466,332496,-2201,-16406,-1618,221,184,888
10,467,332501,-2253,-16532,-1605,221,200,888
10,468,332506,-2182,-16618,-1550,222,224,884
10,469,332511,-2114,-16609,-1303,220,238,879
10,470,332516,-2133,-16629,-1166,219,233,874
10,471,332521,-2221,-16683,-1138,221,211,872
10,472,332526,-2238,-16695,-1143,224,181,867
10,473,332531,-2180,-16670,-1140,229,152,863
10,474,332536,-2091,-16648,-1147,231,125,858
10,475,332541,-2078,-16575,-1198,230,106,851
10,476,332546,-1987,-16487,-1356,236,89,843
10,477,332551,-1973,-16417,-1464,236,81,834
10,478,332556,-1891,-16410,-1509,232,88,823
10,479,332561,-1865,-16385,-1553,231,100,816
10,480,332566,-1874,-16344,-1562,231,120,803
10,481,332571,-1883,-16351,-1550,225,146,791
10,482,332576,-1875,-16325,-1497,222,175,781
10,483,332581,-1813,-16282,-1380,221,202,772
10,484,332586,-1921,-16302,-1301,217,223,759
10,485,332591,-1997,-16343,-1326,217,236,746
10,486,332596,-1951,-16317,-1325,213,245,731
10,487,332601,-1925,-16239,-1209,208,248,722
10,488,332606,-1917,-16180,-1010,206,240,709
10,489,332611,-1976,-16103,-795,203,228,694
10,490,332616,-2033,-16070,-681,200,210,681
10,491,332621,-1910,-16146,-1145,203,185,665
10,492,332626,-1705,-16244,-1207,209,168,650
10,493,332631,-1760,-16249,-1152,202,139,636
10,494,332636,-2024,-16174,-1021,199,106,617
10,495,332641,-2080,-16178,-1128,200,84,600
10,496,332646,-1961,-16262,-1329,196,93,584
10,497,332651,-1674,-16223,-1355,190,122,565
10,498,332656,-1646,-16190,-1271,188,131,540
10,499,332661,-1686,-16125,-1403,186,119,518
10,500,332666,-1667,-16092,-1587,183,117,502
10,501,332671,-1495,-16104,-1768,178,128,484
10,502,332676,-1461,-16135,-1708,173,143,461
10,503,332681,-1599,-16147,-1707,168,149,437
10,504,332686,-1736,-16138,-1904,170,152,418
10,505,332691,-1770,-16056,-1955,163,174,397
10,506,332696,-1747,-15929,-1772,157,195,375
10,507,332701,-1681,-15894,-1689,155,202,355
10,508,332706,-1709,-15976,-1618,152,199,330
10,509,332711,-1744,-16026,-1433,149,183,306
10,510,332716,-1841,-16018,-1238,146,166,280
10,511,332721,-1891,-16015,-1295,143,153,255
10,512,332726,-1764,-16040,-1346,136,152,231
10,513,332731,-1775,-16102,-1320,127,159,202
10,514,332736,-1754,-16162,-1219,122,148,174
10,515,332741,-1710,-16237,-1359,120,127,149
10,516,332746,-1551,-16298,-1504,113,109,123
10,517,332751,-1364,-16346,-1378,106,100,97
10,518,332756,-1336,-16384,-1291,102,84,70
10,519,332761,-1289,-16515,-1438,98,62,42
10,520,332766,-1280,-16549,-1573,91,47,14
10,521,332771,-1227,-16436,-1581,86,37,-11
10,522,332776,-1229,-16311,-1623,83,25,-36
10,523,332781,-1313,-16211,-1723,76,7,-63
10,524,332786,-1326,-16230,-1794,69,-4,-87
10,525,332791,-1174,-16209,-1754,62,-6,-116
10,526,332796,-1044,-16141,-1705,58,-7,-143
10,527,332801,-1152,-16101,-1581,50,-17,-201
10,528,332806,-1223,-16098,-1568,43,-30,-227
10,529,332811,-1160,-16070,-1512,34,-37,-250
10,530,332816,-1111,-16099,-1556,25,-37,-280
10,531,332821,-1190,-16136,-1475,21,-42,-307
10,532,332826,-1141,-16226,-1402,15,-51,-331
10,533,332831,-1039,-16263,-1317,5,-66,-357
10,534,332836,-926,-16334,-1297,1,-90,-386
10,535,332841,-879,-16437,-1426,-7,-114,-412
10,536,332846,-849,-16414,-1558,-11,-138,-436
10,537,332851,-840,-16329,-1684,-18,-168,-463
10,538,332856,-852,-16355,-1769,-25,-194,-489
10,539,332861,-909,-16391,-1755,-33,-209,-512
10,540,332866,-813,-16377,-1754,-41,-206,-540
10,541,332871,-781,-16347,-1761,-47,-191,-567
10,542,332876,-752,-16348,-1719,-56,-173,-594
10,543,332881,-745,-16352,-1773,-64,-164,-620
10,544,332886,-725,-16336,-1754,-70,-161,-643
10,545,332891,-669,-16301,-1761,-75,-158,-666
10,546,332896,-580,-16313,-1744,-83,-161,-690
10,547,332901,-555,-16361,-1686,-91,-170,-714
10,548,332906,-594,-16376,-1583,-99,-188,-737
10,549,332911,-609,-16347,-1580,-104,-208,-757
10,550,332916,-611,-16331,-1654,-106,-224,-779
10,551,332921,-472,-16376,-1783,-112,-238,-799
10,552,332926,-552,-16414,-1836,-117,-255,-821
10,553,332931,-653,-16391,-1855,-120,-280,-842
10,554,332936,-562,-16363,-2036,-126,-291,-865
10,555,332941,-334,-16408,-2078,-135,-280,-882
10,556,332946,-176,-16449,-2062,-141,-254,-907
10,557,332951,-158,-16514,-2089,-149,-236,-928
10,558,332956,-193,-16522,-2182,-153,-224,-947
10,559,332961,-22,-16451,-2080,-159,-213,-963
10,560,332966,111,-16436,-1929,-167,-197,-981
10,561,332971,170,-16558,-1973,-177,-181,-1002
10,562,332976,169,-16746,-2087,-179,-168,-1021
10,563,332981,262,-16848,-2215,-184,-160,-1034
10,564,332986,428,-16874,-2154,-194,-152,-1053
10,565,332991,435,-16803,-2010,-197,-156,-1069
10,566,332996,343,-16770,-2009,-202,-163,-1086
10,567,333001,255,-16829,-2246,-206,-160,-1099
10,568,333006,368,-16902,-2228,-211,-145,-1114
10,569,333011,441,-16999,-1983,-218,-127,-1132
10,570,333016,354,-17097,-1791,-224,-112,-1150
10,571,333021,119,-17220,-1996,-231,-97,-1168
10,572,333026,-57,-17409,-2222,-237,-69,-1183
10,573,333031,-25,-17474,-2114,-244,-39,-1196
10,574,333036,353,-17518,-1861,-254,-27,-1214
10,575,333041,626,-17554,-1564,-260,-30,-1232
10,576,333046,806,-17590,-1426,-261,-42,-1250
10,577,333051,756,-17603,-1522,-266,-51,-1263
10,578,333056,695,-17617,-1679,-275,-60,-1276
10,579,333061,570,-17587,-1783,-282,-73,-1295
10,580,333066,670,-17610,-1904,-287,-87,-1310
10,581,333071,753,-17547,-1837,-294,-96,-1324
10,582,333076,831,-17467,-1811,-300,-97,-1338
10,583,333081,714,-17301,-1797,-305,-83,-1357
10,584,333086,421,-17316,-2018,-312,-58,-1374
10,585,333091,166,-17477,-2259,-322,-13,-1390
10,586,333096,-19,-17577,-2535,-334,48,-1412
10,587,333101,-137,-17684,-2455,-341,98,-1430
10,588,333106,-75,-17722,-2111,-345,123,-1449
10,589,333111,85,-17847,-1871,-352,127,-1465
10,590,333116,256,-17987,-1855,-354,129,-1482
10,591,333121,302,-18161,-1916,-354,127,-1503
10,592,333126,298,-18227,-1828,-354,105,-1518
10,593,333131,287,-18315,-1672,-354,51,-1531
10,594,333136,354,-18405,-1637,-352,-20,-1542
10,595,333141,586,-18507,-1649,-349,-82,-1553
10,596,333146,770,-18463,-1504,-352,-139,-1567
10,597,333151,755,-18261,-1412,-351,-203,-1579
10,598,333156,-1079,-16763,-1326,-350,-270,-1587
10,599,333161,5902,-14041,-9004,-292,-197,-1713
10,600,333166,-17044,409,7274,-455,555,-1588
10,601,333171,10794,-16628,2121,-447,1594,-979
10,602,333176,-1060,-18909,13899,-382,1269,-1876
10,603,333181,-7662,-22454,8137,-242,-881,-1531
10,604,333186,-6998,-13781,-10642,-88,-2471,-878
10,605,333191,15301,-19037,-17342,-233,-1224,-956
10,606,333196,-1701,-15659,2418,-451,842,-1536
10,607,333201,-4464,-18944,9604,-347,373,-1479
10,608,333206,-2369,-18330,-1693,-234,-1192,-1172
10,609,333211,5497,-17030,-11529,-219,-1351,-1160
10,610,333216,3953,-18261,-5767,-355,-182,-1372
10,611,333221,-4204,-17111,3966,-380,351,-1456
10,612,333226,-1200,-18385,910,-302,-287,-1275
10,613,333231,2417,-17186,-6334,-289,-777,-1222
10,614,333236,3688,-17330,-4924,-329,-487,-1302
10,615,333241,-366,-17392,622,-350,-207,-1356
10,616,333246,-1079,-17346,90,-295,-468,-1294
10,617,333251,1462,-17544,-4162,-276,-744,-1227
10,618,333256,2244,-16910,-3988,-307,-660,-1257
10,619,333261,1397,-16905,-933,-321,-558,-1274
10,620,333266,460,-17024,-1099,-300,-691,-1243
10,621,333271,1056,-17024,-3398,-280,-798,-1207
10,622,333276,1448,-16822,-3957,-301,-700,-1202
10,623,333281,1008,-16559,-2258,-318,-559,-1204
10,624,333286,791,-16507,-1736,-308,-564,-1181
10,625,333291,1149,-16477,-3169,-303,-599,-1157
10,626,333296,1533,-16402,-3250,-311,-510,-1143
10,627,333301,1402,-16236,-2088,-321,-419,-1133
10,628,333306,1304,-16233,-1780,-316,-442,-1102
10,629,333311,1238,-16147,-2532,-304,-487,-1075
10,630,333316,1179,-15941,-2598,-304,-456,-1057
10,631,333321,1128,-15715,-1981,-303,-437,-1029
10,632,333326,1272,-15633,-1852,-294,-489,-997
10,633,333331,1586,-15708,-2389,-285,-560,-963
10,634,333336,1783,-15705,-2688,-279,-578,-937
10,635,333341,1828,-15637,-2427,-277,-570,-914
10,636,333346,1728,-15593,-2306,-270,-603,-883
10,637,333351,1639,-15516,-2639,-259,-648,-850
10,638,333356,1761,-15508,-3059,-253,-651,-819
10,639,333361,1916,-15464,-3135,-247,-623,-788
10,640,333366,1931,-15487,-2922,-242,-603,-757
10,641,333371,1909,-15489,-3048,-231,-611,-728
10,642,333376,2038,-15529,-3226,-225,-602,-694
10,643,333381,2310,-15442,-3478,-220,-564,-666
10,644,333386,2260,-15459,-3252,-215,-508,-634
10,645,333391,2264,-15455,-3205,-205,-472,-608
10,646,333396,2369,-15511,-3462,-195,-452,-574
10,647,333401,2503,-15334,-3389,-187,-409,-545
10,648,333406,2512,-15163,-3283,-180,-365,-517
10,649,333411,2239,-15026,-3383,-169,-347,-487
10,650,333416,2001,-14935,-3483,-158,-331,-456
10,651,333421,2083,-14900,-3634,-146,-316,-418
10,652,333426,2468,-14834,-3383,-132,-289,-388
10,653,333431,2806,-14853,-3180,-124,-270,-365
10,654,333436,2796,-14856,-3254,-114,-269,-339
10,655,333441,2556,-14758,-3361,-106,-258,-319
10,656,333446,2578,-14699,-3603,-96,-240,-291
10,657,333451,2958,-14651,-3668,-87,-201,-263
10,658,333456,3278,-14682,-3519,-81,-158,-241
10,659,333461,3432,-14799,-3458,-69,-129,-218
10,660,333466,3532,-14886,-3494,-57,-111,-199
10,661,333471,3600,-14872,-3519,-53,-79,-174
10,662,333476,3621,-14842,-3461,-48,-30,-157
10,663,333481,3663,-14806,-3364,-41,24,-136
10,664,333486,3833,-14734,-3423,-35,57,-114
10,665,333491,3861,-14618,-3275,-31,78,-95
10,666,333496,3763,-14600,-3191,-21,79,-77
10,667,333501,3762,-14627,-3312,-8,66,-56
10,668,333506,4089,-14632,-3507,0,59,-33
10,669,333511,4349,-14680,-3492,8,63,-20
10,670,333516,4230,-14675,-3451,16,53,-4
10,671,333521,4077,-14683,-3582,29,28,15
10,672,333526,4188,-14663,-3843,35,17,34
10,673,333531,4416,-14664,-3905,38,39,50
10,674,333536,4300,-14612,-3712,57,86,65
10,675,333541,4306,-14634,-3881,64,83,82
10,676,333546,4410,-14630,-3726,65,104,94
10,677,333551,4549,-14611,-3404,67,135,102
10,678,333556,4648,-14610,-3327,78,155,110
10,679,333561,4687,-14603,-3478,85,150,121
10,680,333566,4836,-14585,-3339,89,133,131
10,681,333571,4936,-14596,-3101,98,96,142
10,682,333576,4865,-14744,-3091,106,50,152
10,683,333581,4933,-14806,-3319,113,10,159
10,684,333586,5142,-14954,-3332,120,-5,174
10,685,333591,5275,-14972,-3275,128,-21,177
10,686,333596,5132,-14971,-3332,134,-45,183
10,687,333601,5020,-14978,-3635,139,-65,190
10,688,333606,4998,-14933,-3811,143,-66,199
10,689,333611,4959,-14914,-3648,144,-55,204
10,690,333616,4933,-14981,-3731,147,-49,209
10,691,333621,5025,-15041,-3944,151,-39,210
10,692,333626,5109,-15040,-4008,153,-19,213
10,693,333631,5107,-15056,-3918,155,-2,218
10,694,333636,4982,-15106,-3744,155,22,217
10,695,333641,4987,-15139,-3884,157,47,221
10,696,333646,5126,-15158,-3922,158,85,222
10,697,333651,5264,-15270,-3804,157,123,221
10,698,333656,5316,-15406,-3642,159,148,223
10,699,333661,5431,-15329,-3544,159,161,224
10,700,333666,5374,-15257,-3502,154,176,225
10,701,333671,5171,-15199,-3468,154,188,223
10,702,333676,5065,-15221,-3452,154,190,228
10,703,333681,5092,-15272,-3383,153,182,230
10,704,333686,5310,-15378,-3314,154,183,232
10,705,333691,5482,-15425,-3279,152,184,231
10,706,333696,5548,-15400,-3296,151,180,230
10,707,333701,5440,-15415,-3429,150,170,228
10,708,333706,5316,-15356,-3432,146,157,226
10,709,333711,5138,-15263,-3471,145,158,225
10,710,333716,5115,-15247,-3524,147,163,228
10,711,333721,5188,-15261,-3561,142,177,228
10,712,333726,5261,-15330,-3567,141,187,223
10,713,333731,5348,-15392,-3491,138,189,219
10,714,333736,5507,-15416,-3452,134,188,217
10,715,333741,5602,-15407,-3449,128,185,213
10,716,333746,5516,-15364,-3507,128,191,206
10,717,333751,5275,-15333,-3467,126,193,199
10,718,333756,5072,-15261,-3508,123,183,201
10,719,333761,5044,-15206,-3571,123,177,202
10,720,333766,5072,-15239,-3551,119,179,195
10,721,333771,5203,-15291,-3540,116,172,191
10,722,333776,5341,-15339,-3529,115,155,187
10,723,333781,5347,-15440,-3502,114,141,184
10,724,333786,5331,-15447,-3505,111,126,178
10,725,333791,5419,-15384,-3483,108,118,174
10,726,333796,5499,-15391,-3628,105,120,168
10,727,333801,5462,-15355,-3583,103,117,167
10,728,333806,5366,-15343,-3457,98,106,162
10,729,333811,5285,-15307,-3452,94,92,159
10,730,333816,5245,-15356,-3536,93,91,156
10,731,333821,5278,-15415,-3512,90,104,150
10,732,333826,5357,-15409,-3400,83,114,145
10,733,333831,5282,-15407,-3197,78,105,138
10,734,333836,5326,-15418,-3339,78,87,135
10,735,333841,5335,-15370,-3508,73,83,131
10,736,333846,5288,-15303,-3352,67,84,124
10,737,333851,5252,-15400,-3391,67,65,123
10,738,333856,5302,-15487,-3589,69,44,122
10,739,333861,5411,-15489,-3662,65,43,115
10,740,333866,5309,-15444,-3469,56,47,108
10,741,333871,5114,-15392,-3375,51,38,105
10,742,333876,5034,-15412,-3580,50,30,104
10,743,333881,5136,-15459,-3719,46,36,96
10,744,333886,5167,-15471,-3544,41,57,92
10,745,333891,5165,-15486,-3387,38,63,87
10,746,333896,5087,-15481,-3464,34,54,83
10,747,333901,5009,-15432,-3494,23,60,71
10,748,333906,4983,-15479,-3469,18,62,68
10,749,333911,5090,-15481,-3582,18,52,65
10,750,333916,5136,-15517,-3572,16,51,63
10,751,333921,5101,-15601,-3488,10,59,59
10,752,333926,4995,-15551,-3367,4,65,52
10,753,333931,5013,-15472,-3480,1,63,48
10,754,333936,4991,-15437,-3607,-2,71,46
10,755,333941,5084,-15469,-3582,-4,82,44
10,756,333946,5138,-15513,-3443,-9,87,41
10,757,333951,5131,-15565,-3444,-11,84,38
10,758,333956,5116,-15571,-3473,-13,83,36
10,759,333961,5091,-15525,-3466,-21,86,32
10,760,333966,5083,-15447,-3393,-24,90,29
10,761,333971,4996,-15367,-3307,-24,84,30
10,762,333976,4933,-15357,-3275,-27,74,29
10,763,333981,4904,-15366,-3361,-27,66,26
10,764,333986,4999,-15394,-3407,-28,63,26
10,765,333991,5072,-15381,-3345,-33,61,21
10,766,333996,4947,-15285,-3278,-34,45,20
10,767,334001,4796,-15269,-3373,-31,27,23
10,768,334006,4794,-15282,-3495,-33,24,22
10,769,334011,4900,-15294,-3536,-42,36,20
10,770,334016,4831,-15258,-3327,-43,38,19
10,771,334021,4860,-15333,-3368,-43,23,19
10,772,334026,4893,-15318,-3430,-44,15,18
10,773,334031,4829,-15306,-3466,-46,19,15
10,774,334036,4797,-15343,-3375,-47,21,16
10,775,334041,4729,-15357,-3390,-48,15,18
10,776,334046,4784,-15378,-3475,-47,5,21
10,777,334051,4880,-15419,-3343,-49,3,17
10,778,334056,4886,-15457,-3186,-49,0,19
10,779,334061,4913,-15466,-3195,-50,-9,20
10,780,334066,4833,-15437,-3185,-48,-21,20
10,781,334071,4690,-15408,-3171,-49,-29,22
10,782,334076,4607,-15384,-3224,-50,-38,24
10,783,334081,4639,-15417,-3282,-49,-44,23
10,784,334086,4717,-15409,-3250,-49,-49,26
10,785,334091,4721,-15430,-3231,-52,-57,27
10,786,334096,4605,-15445,-3218,-52,-64,27
10,787,334101,4635,-15471,-3336,-52,-70,30
10,788,334106,4632,-15489,-3440,-51,-60,31
10,789,334111,4599,-15470,-3405,-50,-53,32
10,790,334116,4594,-15524,-3382,-50,-54,32
10,791,334121,4642,-15505,-3451,-54,-55,34
10,792,334126,4575,-15495,-3377,-52,-43,33
10,793,334131,4488,-15516,-3305,-52,-31,31
10,794,334136,4474,-15543,-3374,-54,-20,36
10,795,334141,4595,-15637,-3358,-52,-13,37
10,796,334146,4660,-15620,-3271,-52,-2,35
10,797,334151,4515,-15540,-3229,-52,-1,30
10,798,334156,4425,-15516,-3292,-50,-6,34
10,799,334161,4528,-15457,-3325,-51,-7,37
10,800,334166,4631,-15425,-3227,-51,-5,36
10,801,334171,4557,-15437,-3138,-49,-12,35
10,802,334176,4522,-15500,-3202,-46,-20,38
10,803,334181,4572,-15489,-3359,-48,-17,39
10,804,334186,4648,-15473,-3239,-47,-7,35
10,805,334191,4630,-15436,-3051,-48,-3,35
10,806,334196,4589,-15461,-3068,-45,-18,41
10,807,334201,4634,-15458,-3134,-47,-21,38
10,808,334206,4676,-15488,-3138,-49,-12,37
10,809,334211,4685,-15535,-3067,-50,-10,36
10,810,334216,4691,-15504,-3154,-51,-14,36
10,811,334221,4560,-15465,-3278,-48,-12,37
10,812,334226,4478,-15431,-3376,-48,-2,32
10,813,334231,4443,-15359,-3334,-47,7,32
10,814,334236,4433,-15323,-3355,-49,13,33
10,815,334241,4451,-15401,-3399,-52,30,31
10,816,334246,4520,-15456,-3452,-53,57,27
10,817,334251,4563,-15487,-3347,-55,86,23
10,818,334256,4516,-15422,-3214,-56,106,21
10,819,334261,4458,-15399,-3186,-56,116,14
10,820,334266,4566,-15438,-3038,-56,121,14
10,821,334271,4677,-15488,-2958,-54,108,18
10,822,334276,4692,-15505,-2924,-53,85,16
10,823,334281,4623,-15605,-3071,-54,63,12
10,824,334286,4692,-15589,-3194,-51,51,15
10,825,334291,4736,-15563,-3197,-48,43,15
10,826,334296,4773,-15509,-3131,-51,34,9
10,827,334301,4765,-15468,-3160,-50,24,8
10,828,334306,4721,-15478,-3358,-48,23,10
10,829,334311,4669,-15486,-3402,-50,38,7
10,830,334316,4617,-15506,-3302,-52,54,8
10,831,334321,4661,-15453,-3230,-52,61,8
10,832,334326,4717,-15449,-3248,-50,62,3
10,833,334331,4640,-15430,-3188,-51,62,0
10,834,334336,4628,-15398,-3144,-47,55,-1
10,835,334341,4610,-15360,-3107,-47,39,0
10,836,334346,4528,-15382,-3248,-43,19,0
10,837,334351,4574,-15354,-3371,-38,-2,1
10,838,334356,4588,-15289,-3432,-40,-15,-1
10,839,334361,4667,-15360,-3355,-35,-28,-3
10,840,334366,4672,-15454,-3359,-35,-34,-3
10,841,334371,4709,-15523,-3383,-35,-30,-7
10,842,334376,4802,-15526,-3426,-36,-12,-10
10,843,334381,4812,-15430,-3440,-35,9,-14
10,844,334386,4713,-15391,-3427,-37,25,-18
10,845,334391,4599,-15351,-3427,-37,33,-19
10,846,334396,4591,-15344,-3440,-38,39,-17
10,847,334401,4613,-15306,-3385,-36,46,-20
10,848,334406,4682,-15345,-3366,-35,47,-24
10,849,334411,4712,-15378,-3463,-33,46,-24
10,850,334416,4658,-15406,-3427,-33,46,-25
10,851,334421,4613,-15390,-3325,-35,41,-25
10,852,334426,4591,-15354,-3329,-34,33,-27
10,853,334431,4659,-15382,-3453,-28,28,-28
10,854,334436,4763,-15420,-3532,-29,31,-30
10,855,334441,4850,-15385,-3498,-27,31,-31
10,856,334446,4777,-15371,-3327,-28,27,-36
10,857,334451,4687,-15364,-3257,-27,17,-38
10,858,334456,4644,-15378,-3428,-24,18,-35
10,859,334461,4683,-15383,-3425,-24,36,-37
10,860,334466,4756,-15336,-3292,-26,46,-41
10,861,334471,4717,-15282,-3260,-23,34,-41
10,862,334476,4707,-15304,-3267,-23,13,-42
10,863,334481,4677,-15268,-3337,-23,-5,-43
10,864,334486,4730,-15301,-3345,-20,-17,-45
10,865,334491,4740,-15350,-3342,-15,-30,-45
10,866,334496,4704,-15369,-3439,-16,-44,-47
10,867,334501,4695,-15325,-3522,-13,-54,-49
10,868,334506,4701,-15337,-3616,-13,-46,-48
10,869,334511,4729,-15410,-3604,-14,-36,-48
10,870,334516,4834,-15500,-3565,-18,-22,-52
10,871,334521,4856,-15514,-3573,-18,2,-55
10,872,334526,4836,-15482,-3482,-20,21,-57
10,873,334531,4769,-15456,-3433,-20,37,-58
10,874,334536,4677,-15396,-3368,-20,46,-57
10,875,334541,4671,-15397,-3388,-22,54,-60
10,876,334546,4720,-15382,-3322,-19,56,-57
10,877,334551,4735,-15384,-3213,-22,51,-58
10,878,334556,4760,-15382,-3182,-22,40,-58
10,879,334561,4685,-15418,-3184,-19,23,-61
10,880,334566,4694,-15372,-3326,-17,8,-62
10,881,334571,4632,-15353,-3420,-18,-3,-60
10,882,334576,4595,-15374,-3421,-19,-15,-59
10,883,334581,4571,-15412,-3402,-17,-28,-58
10,884,334586,4604,-15427,-3485,-16,-35,-60
10,885,334591,4628,-15432,-3624,-16,-26,-62
10,886,334596,4595,-15421,-3707,-15,-14,-61
10,887,334601,4619,-15379,-3689,-16,-9,-60
10,888,334606,4763,-15384,-3713,-17,-10,-60
10,889,334611,4797,-15401,-3718,-17,-6,-61
10,890,334616,4823,-15401,-3683,-16,5,-62
10,891,334621,4803,-15417,-3637,-15,22,-63
10,892,334626,4800,-15429,-3656,-16,37,-63
10,893,334631,4770,-15396,-3566,-19,64,-62
10,894,334636,4776,-15303,-3438,-19,70,-60
10,895,334641,4714,-15285,-3383,-19,65,-60
10,896,334646,4689,-15312,-3391,-18,58,-59
10,897,334651,4734,-15342,-3370,-15,49,-53
10,898,334656,4808,-15370,-3329,-16,39,-52
10,899,334661,4850,-15395,-3321,-15,28,-54
10,900,334666,4880,-15405,-3414,-12,15,-50
10,901,334671,4804,-15366,-3421,-13,-3,-47
10,902,334676,4743,-15330,-3432,-15,-21,-44
10,903,334681,4681,-15355,-3605,-10,-35,-40
10,904,334686,4619,-15372,-3695,-10,-38,-42
10,905,334691,4607,-15334,-3714,-10,-33,-38
10,906,334696,4613,-15313,-3717,-11,-27,-38
10,907,334701,4607,-15318,-3828,-10,-14,-37
10,908,334706,4653,-15277,-3864,-12,0,-39
10,909,334711,4710,-15280,-3760,-13,8,-40
10,910,334716,4719,-15306,-3673,-15,12,-36
10,911,334721,4677,-15363,-3617,-10,15,-33
10,912,334726,4695,-15359,-3590,-13,18,-36
10,913,334731,4726,-15378,-3619,-14,28,-33
10,914,334736,4738,-15371,-3564,-16,39,-33
10,915,334741,4706,-15315,-3459,-14,42,-32
10,916,334746,4659,-15311,-3390,-15,39,-31
10,917,334751,4640,-15281,-3368,-17,31,-30
10,918,334756,4703,-15296,-3359,-20,24,-28
10,919,334761,4679,-15284,-3317,-18,18,-26
10,920,334766,4657,-15322,-3329,-17,2,-24
10,921,334771,4657,-15368,-3447,-16,-16,-20
10,922,334776,4745,-15384,-3598,-16,-30,-18
10,923,334781,4770,-15373,-3586,-17,-33,-18
10,924,334786,4708,-15371,-3498,-15,-38,-19
10,925,334791,4686,-15359,-3560,-16,-42,-19
10,926,334796,4694,-15338,-3756,-15,-37,-18
10,927,334801,4653,-15311,-3790,-14,-25,-16
10,928,334806,4678,-15332,-3732,-16,-22,-16
10,929,334811,4781,-15319,-3770,-16,-36,-15
10,930,334816,4767,-15364,-3815,-15,-48,-13
10,931,334821,4768,-15363,-3827,-15,-52,-12
10,932,334826,4745,-15399,-3855,-13,-49,-11
10,933,334831,4809,-15398,-3841,-11,-42,-10
10,934,334836,4786,-15350,-3839,-16,-22,-11
10,935,334841,4757,-15311,-3704,-19,3,-14
10,936,334846,4689,-15267,-3613,-18,28,-15
10,937,334851,4747,-15241,-3536,-20,49,-15
10,938,334856,4853,-15271,-3494,-21,67,-14
10,939,334861,4856,-15285,-3359,-21,77,-14
10,940,334866,4853,-15268,-3199,-25,73,-15
10,941,334871,4820,-15205,-3213,-26,54,-11
10,942,334876,4873,-15184,-3217,-25,31,-5
10,943,334881,4896,-15238,-3280,-22,7,-6
10,944,334886,4931,-15292,-3335,-24,-16,-4
10,945,334891,4978,-15316,-3365,-23,-41,-5
10,946,334896,4918,-15325,-3495,-20,-65,-3
10,947,334901,4886,-15362,-3592,-20,-69,-1
10,948,334906,4845,-15330,-3688,-23,-59,1
10,949,334911,4799,-15306,-3748,-24,-44,0
10,950,334916,4677,-15248,-3789,-27,-33,-1
10,951,334921,4739,-15219,-3755,-27,-25,-2
10,952,334926,4777,-15253,-3633,-24,-17,-1
10,953,334931,4823,-15305,-3591,-26,-15,-4
10,954,334936,4826,-15315,-3649,-26,-20,-5
10,955,334941,4823,-15304,-3726,-22,-29,-2
10,956,334946,4745,-15275,-3656,-21,-40,-1
10,957,334951,4757,-15274,-3631,-21,-50,-1
10,958,334956,4770,-15296,-3767,-18,-54,-2
10,959,334961,4771,-15347,-3749,-17,-49,1
10,960,334966,4847,-15421,-3637,-17,-45,0
10,961,334971,4877,-15418,-3677,-18,-44,-1
10,962,334976,4864,-15367,-3737,-18,-37,-2
10,963,334981,4868,-15349,-3733,-20,-21,-1
10,964,334986,4792,-15309,-3590,-21,-6,-4
10,965,334991,4706,-15271,-3583,-22,0,-2
10,966,334996,4751,-15323,-3530,-21,2,-3
10,967,335001,4778,-15401,-3486,-19,4,-4
10,968,335006,4815,-15415,-3452,-20,-5,-5
10,969,335011,4838,-15393,-3496,-17,-19,-3
10,970,335016,4803,-15373,-3597,-17,-31,-2
10,971,335021,4781,-15419,-3579,-17,-40,-2
10,972,335026,4756,-15438,-3663,-16,-43,0
10,973,335031,4811,-15436,-3785,-16,-43,-3
10,974,335036,4833,-15427,-3798,-14,-34,-6
10,975,335041,4825,-15402,-3711,-14,-24,-4
10,976,335046,4762,-15365,-3677,-19,-15,-8
10,977,335051,4665,-15398,-3734,-17,-1,-8
10,978,335056,4693,-15414,-3672,-18,25,-7
10,979,335061,4764,-15366,-3567,-21,40,-10
10,980,335066,4834,-15316,-3512,-19,41,-12
10,981,335071,4832,-15330,-3502,-17,34,-14
10,982,335076,4843,-15365,-3472,-16,28,-13
10,983,335081,4920,-15358,-3461,-17,21,-10
10,984,335086,4910,-15316,-3480,-17,7,-11
10,985,335091,4784,-15278,-3543,-16,-5,-11
10,986,335096,4737,-15233,-3619,-12,-11,-9
10,987,335101,4737,-15208,-3629,-12,-4,-11
10,988,335106,4781,-15225,-3658,-16,8,-13
10,989,335111,4738,-15230,-3623,-15,18,-16
10,990,335116,4717,-15225,-3646,-13,30,-16
10,991,335121,4760,-15200,-3611,-15,46,-17
10,992,335126,4841,-15211,-3522,-18,55,-17
10,993,335131,4902,-15208,-3478,-17,54,-18
10,994,335136,4876,-15191,-3583,-14,47,-21
10,995,335141,4855,-15228,-3635,-15,34,-22
10,996,335146,4883,-15247,-3616,-13,20,-18
10,997,335151,4895,-15243,-3550,-11,10,-18
10,998,335156,4847,-15231,-3537,-10,2,-18
10,999,335161,4846,-15238,-3597,-6,-5,-17
