event_id,seq,ts_ms,ax,ay,az,gx,gy,gz
2,0,122766,-19,-16569,1312,-7,-12,-13
2,1,117771,991,-16377,1144,-27,15,37
2,2,117776,954,-16318,1219,-23,17,39
2,3,117781,935,-16323,1266,-24,15,39
2,4,117786,899,-16385,1256,-25,13,38
2,5,117791,839,-16398,1350,-24,14,39
2,6,117796,763,-16395,1337,-25,11,42
2,7,117801,720,-16363,1348,-24,7,41
2,8,117806,788,-16333,1487,-22,-1,43
2,9,117811,789,-16302,1567,-24,-12,44
2,10,117816,699,-16253,1573,-24,-25,46
2,11,117821,619,-16228,1566,-22,-41,47
2,12,117826,526,-16227,1557,-23,-54,45
2,13,117831,496,-16232,1576,-23,-67,46
2,14,117836,539,-16251,1671,-24,-85,50
2,15,117841,529,-16286,1625,-21,-104,48
2,16,117846,458,-16463,1597,-22,-125,51
2,17,117851,431,-16537,1470,-20,-152,51
2,18,117856,385,-16499,1476,-20,-177,50
2,19,117861,456,-16583,1549,-19,-208,54
2,20,117866,601,-16658,1610,-17,-242,54
2,21,117871,544,-16671,1551,-14,-276,53
2,22,117876,498,-16814,1359,-10,-302,54
2,23,117881,422,-16875,1266,-10,-314,55
2,24,117886,468,-16874,1210,-10,-329,57
2,25,117891,594,-16800,1158,-11,-336,55
2,26,117896,601,-16714,1058,-9,-334,55
2,27,117901,514,-16619,957,-9,-318,56
2,28,117906,478,-16550,888,-12,-284,51
2,29,117911,574,-16511,896,-13,-244,53
2,30,117916,629,-16486,877,-17,-202,52
2,31,117921,617,-16433,828,-18,-156,47
2,32,117926,620,-16387,824,-21,-106,44
2,33,117931,516,-16334,791,-24,-57,45
2,34,117936,476,-16306,835,-28,-14,41
2,35,117941,478,-16277,1020,-34,38,37
2,36,117946,530,-16331,1165,-33,80,38
2,37,117951,491,-16314,1173,-37,114,32
2,38,117956,369,-16405,1195,-41,140,29
2,39,117961,205,-16552,1238,-39,158,29
2,40,117966,252,-16624,1373,-38,148,28
2,41,117971,306,-16580,1588,-39,122,27
2,42,117976,231,-16514,1831,-37,78,26
2,43,117981,164,-16514,1701,-33,24,25
2,44,117986,173,-16492,1722,-32,-6,26
2,45,117991,193,-16519,1740,-33,-36,31
2,46,117996,264,-16495,1869,-33,-64,31
2,47,118001,310,-16488,1702,-31,-106,31
2,48,118006,273,-16463,1545,-31,-135,28
2,49,118011,202,-16473,1403,-30,-142,26
2,50,118016,165,-16427,1291,-33,-129,24
2,51,118021,224,-16393,1207,-35,-104,21
2,52,118026,322,-16337,999,-37,-77,19
2,53,118031,327,-16367,906,-40,-49,15
2,54,118036,341,-16316,801,-41,-20,13
2,55,118041,305,-16339,768,-42,19,10
2,56,118046,357,-16383,792,-48,62,9
2,57,118051,412,-16364,880,-50,103,7
2,58,118056,491,-16360,972,-50,135,4
2,59,118061,585,-16475,1028,-54,165,0
2,60,118066,602,-16415,1095,-57,191,0
2,61,118071,644,-16432,1120,-59,210,1
2,62,118076,641,-16474,1072,-56,223,-1
2,63,118081,587,-16524,1061,-56,221,3
2,64,118086,660,-16574,1196,-59,213,4
2,65,118091,728,-16583,1303,-61,195,0
2,66,118096,679,-16691,1247,-53,170,3
2,67,118101,536,-16590,1181,-49,148,0
2,68,118106,500,-16603,1263,-48,118,8
2,69,118111,541,-16668,1346,-49,87,11
2,70,118116,544,-16625,1376,-46,53,6
2,71,118121,483,-16597,1257,-42,15,10
2,72,118126,372,-16595,1128,-41,-12,15
2,73,118131,325,-16544,1126,-43,-33,15
2,74,118136,423,-16537,1153,-37,-52,17
2,75,118141,530,-16509,1098,-37,-68,15
2,76,118146,551,-16515,976,-35,-81,16
2,77,118151,472,-16519,1021,-35,-84,15
2,78,118156,498,-16450,993,-37,-80,15
2,79,118161,539,-16439,956,-34,-69,15
2,80,118166,554,-16468,820,-34,-49,18
2,81,118171,508,-16505,880,-38,-26,16
2,82,118176,533,-16498,834,-41,-6,14
2,83,118181,531,-16502,834,-40,7,13
2,84,118186,577,-16513,821,-39,27,14
2,85,118191,512,-16575,884,-39,47,13
2,86,118196,379,-16545,957,-40,64,11
2,87,118201,270,-16543,938,-39,75,12
2,88,118206,233,-16580,907,-38,80,12
2,89,118211,247,-16529,1057,-39,81,12
2,90,118216,143,-16490,1272,-42,69,12
2,91,118221,239,-16454,1206,-37,46,9
2,92,118226,228,-16472,1289,-35,24,11
2,93,118231,242,-16470,1322,-33,-5,12
2,94,118236,181,-16422,1454,-30,-33,11
2,95,118241,138,-16365,1437,-29,-69,15
2,96,118246,230,-16356,1225,-25,-99,15
2,97,118251,358,-16328,1148,-24,-115,17
2,98,118256,430,-16331,1184,-24,-131,16
2,99,118261,408,-16359,1156,-23,-153,14
2,100,118266,433,-16365,1024,-22,-167,17
2,101,118271,458,-16381,874,-21,-159,16
2,102,118276,462,-16385,794,-22,-137,15
2,103,118281,468,-16423,775,-19,-113,16
2,104,118286,502,-16426,678,-23,-88,15
2,105,118291,491,-16419,609,-26,-60,14
2,106,118296,403,-16424,637,-26,-29,13
2,107,118301,367,-16454,684,-27,11,10
2,108,118306,325,-16439,774,-28,45,9
2,109,118311,278,-16488,824,-30,74,6
2,110,118316,218,-16529,889,-29,94,7
2,111,118321,186,-16496,1023,-28,105,6
2,112,118326,158,-16526,1158,-28,103,4
2,113,118331,165,-16485,1323,-25,57,4
2,114,118336,125,-16471,1374,-23,26,3
2,115,118341,159,-16446,1457,-20,-7,7
2,116,118346,202,-16362,1511,-17,-51,7
2,117,118351,178,-16324,1466,-17,-90,7
2,118,118356,249,-16302,1374,-14,-125,9
2,119,118361,267,-16331,1272,-11,-147,8
2,120,118366,240,-16361,1141,-11,-164,9
2,121,118371,245,-16288,1119,-13,-170,6
2,122,118376,231,-16278,1011,-10,-165,6
2,123,118381,267,-16297,878,-11,-147,5
2,124,118386,326,-16304,829,-12,-118,4
2,125,118391,357,-16317,801,-14,-87,2
2,126,118396,438,-16315,802,-12,-65,0
2,127,118401,502,-16335,867,-13,-44,2
2,128,118406,556,-16339,935,-14,-22,0
2,129,118411,577,-16376,964,-16,-3,-3
2,130,118416,572,-16426,1003,-14,8,-1
2,131,118421,548,-16432,1072,-14,15,-2
2,132,118426,547,-16440,1143,-13,10,0
2,133,118431,513,-16503,1119,-16,6,-1
2,134,118436,437,-16496,1107,-13,-4,2
2,135,118441,406,-16522,1071,-10,-10,3
2,136,118446,390,-16554,1056,-9,-14,0
2,137,118451,342,-16501,1092,-8,-22,2
2,138,118456,319,-16482,1080,-9,-28,1
2,139,118461,356,-16499,1013,-8,-28,3
2,140,118466,325,-16497,1016,-10,-20,1
2,141,118471,285,-16504,1034,-10,-13,1
2,142,118476,279,-16567,996,-7,-8,-2
2,143,118481,248,-16529,905,-6,7,-2
2,144,118486,256,-16546,945,-7,18,-3
2,145,118491,263,-16560,976,-8,25,-6
2,146,118496,324,-16535,963,-9,26,-6
2,147,118501,338,-16536,995,-7,22,-8
2,148,118506,372,-16524,998,-2,21,-8
2,149,118511,418,-16566,975,-3,15,-5
2,150,118516,469,-16602,1060,-3,4,-4
2,151,118521,486,-16546,1102,2,-14,-4
2,152,118526,512,-16552,1048,7,-29,-5
2,153,118531,502,-16575,951,5,-41,-3
2,154,118536,477,-16582,965,4,-50,-4
2,155,118541,504,-16590,901,9,-60,-2
2,156,118546,526,-16585,897,12,-68,-1
2,157,118551,496,-16585,927,14,-74,2
2,158,118556,445,-16610,906,12,-72,1
2,159,118561,434,-16619,853,13,-67,0
2,160,118566,427,-16585,846,14,-55,0
2,161,118571,417,-16539,854,12,-42,-4
2,162,118576,410,-16537,840,13,-30,-3
2,163,118581,376,-16540,897,16,-12,-1
2,164,118586,370,-16477,957,15,5,-4
2,165,118591,413,-16450,943,13,24,-6
2,166,118596,443,-16420,946,14,35,-4
2,167,118601,449,-16429,1018,12,40,-6
2,168,118606,463,-16455,1096,13,42,-6
2,169,118611,393,-16456,1116,15,37,-6
2,170,118616,401,-16461,1161,16,35,-7
2,171,118621,310,-16461,1193,17,31,-7
2,172,118626,213,-16467,1140,14,28,-7
2,173,118631,129,-16518,1083,16,20,-8
2,174,118636,97,-16486,1120,16,14,-9
2,175,118641,94,-16488,1184,16,7,-12
2,176,118646,91,-16511,1226,19,-4,-14
2,177,118651,49,-16499,1180,21,-18,-14
2,178,118656,24,-16504,1158,22,-29,-14
2,179,118661,36,-16453,1133,21,-36,-14
2,180,118666,68,-16384,1134,22,-45,-17
2,181,118671,113,-16384,1165,20,-54,-17
2,182,118676,176,-16387,1167,22,-61,-18
2,183,118681,243,-16372,1079,23,-65,-19
2,184,118686,292,-16367,1074,22,-67,-19
2,185,118691,329,-16383,1081,23,-65,-22
2,186,118696,460,-16461,957,20,-55,-22
2,187,118701,475,-16481,982,23,-46,-22
2,188,118706,465,-16507,949,22,-38,-25
2,189,118711,468,-16538,944,21,-26,-26
2,190,118716,481,-16570,908,19,-10,-25
2,191,118721,488,-16587,892,20,5,-23
2,192,118726,476,-16602,876,22,18,-24
2,193,118731,388,-16622,924,23,23,-26
2,194,118736,343,-16707,936,25,22,-27
2,195,118741,363,-16708,979,24,20,-27
2,196,118746,374,-16715,1118,23,13,-25
2,197,118751,418,-16712,1182,25,-1,-25
2,198,118756,408,-16643,1194,26,-12,-28
2,199,118761,356,-16630,1205,27,-28,-28
2,200,118766,351,-16608,1198,28,-41,-24
2,201,118771,393,-16597,1192,28,-54,-25
2,202,118776,488,-16574,1082,29,-73,-22
2,203,118781,501,-16572,1088,32,-82,-23
2,204,118786,527,-16493,1090,34,-86,-25
2,205,118791,537,-16503,1032,33,-86,-23
2,206,118796,562,-16497,990,33,-88,-21
2,207,118801,618,-16455,884,33,-81,-20
2,208,118806,644,-16403,895,34,-69,-20
2,209,118811,612,-16428,909,30,-56,-19
2,210,118816,563,-16412,874,31,-40,-20
2,211,118821,576,-16487,847,30,-21,-19
2,212,118826,516,-16480,813,29,5,-18
2,213,118831,515,-16508,834,29,30,-20
2,214,118836,451,-16499,917,27,47,-21
2,215,118841,434,-16498,997,28,63,-24
2,216,118846,391,-16563,1016,26,73,-24
2,217,118851,365,-16588,1062,25,81,-23
2,218,118856,382,-16548,1155,27,81,-22
2,219,118861,364,-16583,1287,27,69,-24
2,220,118866,357,-16552,1284,28,52,-24
2,221,118871,290,-16532,1286,28,32,-25
2,222,118876,282,-16502,1326,31,13,-22
2,223,118881,255,-16523,1354,31,-9,-24
2,224,118886,268,-16472,1337,29,-33,-24
2,225,118891,254,-16458,1362,32,-56,-24
2,226,118896,286,-16428,1344,34,-73,-19
2,227,118901,283,-16391,1288,34,-82,-20
2,228,118906,328,-16388,1218,31,-94,-23
2,229,118911,352,-16379,1150,35,-101,-21
2,230,118916,376,-16429,1118,34,-102,-22
2,231,118921,365,-16354,1112,32,-97,-21
2,232,118926,378,-16385,1007,32,-85,-20
2,233,118931,430,-16391,963,29,-74,-23
2,234,118936,480,-16417,939,27,-57,-24
2,235,118941,525,-16429,932,27,-41,-23
2,236,118946,572,-16411,925,28,-27,-21
2,237,118951,601,-16476,858,25,-14,-23
2,238,118956,638,-16443,913,25,2,-25
2,239,118961,576,-16460,893,24,15,-25
2,240,118966,506,-16497,942,25,19,-21
2,241,118971,509,-16498,996,25,24,-22
2,242,118976,513,-16449,1040,24,32,-21
2,243,118981,460,-16476,1144,23,40,-20
2,244,118986,423,-16475,1240,25,40,-22
2,245,118991,456,-16434,1257,24,33,-21
2,246,118996,441,-16453,1269,24,25,-20
2,247,119001,495,-16382,1285,23,17,-18
2,248,119006,493,-16375,1312,24,9,-20
2,249,119011,491,-16369,1300,24,-6,-22
2,250,119016,502,-16339,1267,25,-22,-17
2,251,119021,474,-16380,1181,23,-29,-16
2,252,119026,424,-16424,1129,24,-31,-19
2,253,119031,437,-16402,1069,24,-35,-17
2,254,119036,484,-16395,1078,24,-31,-14
2,255,119041,555,-16414,1099,21,-28,-14
2,256,119046,535,-16422,1072,23,-20,-15
2,257,119051,506,-16438,981,21,-7,-18
2,258,119056,445,-16527,926,18,2,-19
2,259,119061,446,-16445,1023,20,23,-18
2,260,119066,484,-16470,1133,20,33,-17
2,261,119071,464,-16454,1241,17,40,-18
2,262,119076,421,-16472,1196,18,39,-16
2,263,119081,460,-16463,1189,17,37,-18
2,264,119086,490,-16500,1244,14,34,-18
2,265,119091,525,-16512,1293,16,23,-17
2,266,119096,509,-16485,1373,14,6,-15
2,267,119101,489,-16500,1260,15,-12,-16
2,268,119106,469,-16472,1188,17,-17,-14
2,269,119111,466,-16443,1164,17,-23,-12
2,270,119116,485,-16448,1231,19,-35,-11
2,271,119121,479,-16465,1164,17,-49,-9
2,272,119126,481,-16489,1040,18,-56,-9
2,273,119131,472,-16506,1055,18,-53,-9
2,274,119136,511,-16498,1113,19,-54,-11
2,275,119141,513,-16519,1049,18,-51,-11
2,276,119146,510,-16516,983,20,-42,-11
2,277,119151,575,-16534,987,16,-29,-11
2,278,119156,546,-16540,1075,14,-21,-9
2,279,119161,560,-16493,1153,13,-12,-12
2,280,119166,516,-16462,1088,13,4,-17
2,281,119171,488,-16466,1028,12,24,-18
2,282,119176,499,-16480,1041,11,43,-16
2,283,119181,518,-16402,1132,8,53,-19
2,284,119186,527,-16430,1250,9,50,-18
2,285,119191,534,-16416,1221,9,48,-17
2,286,119196,441,-16422,1280,6,51,-20
2,287,119201,420,-16383,1249,4,50,-18
2,288,119206,461,-16388,1227,6,46,-16
2,289,119211,520,-16360,1316,3,39,-13
2,290,119216,537,-16370,1396,7,25,-14
2,291,119221,525,-16388,1377,9,10,-15
2,292,119226,493,-16356,1392,6,-3,-15
2,293,119231,546,-16350,1402,5,-12,-15
2,294,119236,553,-16330,1335,5,-18,-10
2,295,119241,588,-16334,1309,6,-22,-13
2,296,119246,600,-16330,1238,5,-24,-15
2,297,119251,535,-16354,1171,4,-24,-13
2,298,119256,483,-16384,1139,4,-22,-13
2,299,119261,460,-16406,1095,3,-16,-14
2,300,119266,434,-16415,1044,2,-10,-13
2,301,119271,457,-16421,1015,0,-1,-15
2,302,119276,428,-16441,1061,-2,12,-18
2,303,119281,471,-16453,1096,-1,21,-16
2,304,119286,468,-16461,1127,-2,27,-16
2,305,119291,489,-16456,1203,-1,34,-17
2,306,119296,455,-16459,1234,-1,39,-17
2,307,119301,467,-16441,1259,-1,40,-16
2,308,119306,490,-16449,1285,-6,39,-16
2,309,119311,437,-16461,1248,-3,33,-17
2,310,119316,474,-16463,1294,-3,26,-17
2,311,119321,447,-16442,1324,-5,16,-15
2,312,119326,409,-16474,1249,-4,3,-15
2,313,119331,417,-16447,1245,-4,-7,-18
2,314,119336,441,-16424,1205,-3,-12,-19
2,315,119341,439,-16447,1237,-4,-19,-15
2,316,119346,479,-16373,1268,-5,-27,-15
2,317,119351,460,-16374,1307,-4,-35,-15
2,318,119356,437,-16418,1268,-2,-37,-18
2,319,119361,434,-16388,1210,-5,-35,-19
2,320,119366,492,-16374,1176,-7,-32,-15
2,321,119371,553,-16386,1198,-7,-29,-14
2,322,119376,541,-16369,1152,-5,-33,-14
2,323,119381,545,-16369,1201,-4,-34,-16
2,324,119386,540,-16371,1164,-6,-24,-16
2,325,119391,539,-16398,1140,-7,-19,-16
2,326,119396,527,-16395,1175,-9,-13,-18
2,327,119401,560,-16412,1119,-8,-5,-18
2,328,119406,577,-16412,1091,-8,3,-16
2,329,119411,567,-16392,1144,-9,5,-16
2,330,119416,509,-16416,1253,-13,2,-15
2,331,119421,539,-16431,1192,-10,1,-18
2,332,119426,509,-16435,1161,-11,5,-15
2,333,119431,486,-16442,1185,-10,7,-17
2,334,119436,521,-16439,1235,-9,0,-15
2,335,119441,554,-16435,1275,-10,-8,-17
2,336,119446,537,-16461,1279,-10,-18,-18
2,337,119451,564,-16472,1284,-9,-22,-16
2,338,119456,535,-16442,1235,-9,-26,-18
2,339,119461,501,-16442,1177,-8,-32,-15
2,340,119466,518,-16453,1165,-9,-42,-15
2,341,119471,542,-16409,1182,-9,-44,-18
2,342,119476,526,-16415,1148,-9,-39,-16
2,343,119481,527,-16396,1211,-8,-39,-17
2,344,119486,578,-16382,1133,-9,-34,-13
2,345,119491,578,-16355,1054,-11,-26,-15
2,346,119496,590,-16326,1021,-10,-16,-16
2,347,119501,685,-16293,1039,-9,-12,-16
2,348,119506,750,-16323,1059,-8,-12,-14
2,349,119511,760,-16314,1071,-9,-10,-15
2,350,119516,766,-16382,1027,-10,-2,-13
2,351,119521,742,-16402,1032,-10,8,-13
2,352,119526,771,-16375,1010,-9,16,-10
2,353,119531,756,-16358,1048,-9,22,-13
2,354,119536,708,-16390,1115,-12,32,-14
2,355,119541,643,-16408,1108,-10,38,-11
2,356,119546,595,-16421,1086,-14,45,-15
2,357,119551,545,-16455,1042,-13,55,-14
2,358,119556,570,-16409,1149,-13,61,-14
2,359,119561,511,-16412,1244,-12,58,-11
2,360,119566,489,-16417,1276,-11,51,-9
2,361,119571,527,-16379,1268,-10,45,-11
2,362,119576,469,-16411,1366,-10,36,-9
2,363,119581,483,-16426,1414,-9,24,-10
2,364,119586,472,-16418,1425,-16,9,-11
2,365,119591,490,-16393,1422,-13,-11,-10
2,366,119596,452,-16380,1363,-12,-29,-9
2,367,119601,431,-16396,1331,-9,-48,-6
2,368,119606,497,-16399,1366,-10,-65,-5
2,369,119611,479,-16382,1340,-11,-78,-9
2,370,119616,494,-16375,1169,-9,-84,-11
2,371,119621,534,-16427,1110,-8,-79,-10
2,372,119626,562,-16459,1058,-9,-73,-8
2,373,119631,582,-16455,1081,-12,-70,-7
2,374,119636,646,-16482,1049,-14,-59,-11
2,375,119641,657,-16535,969,-14,-38,-15
2,376,119646,638,-16580,919,-9,-22,-13
2,377,119651,634,-16624,901,-11,-10,-11
2,378,119656,667,-16623,923,-14,-1,-9
2,379,119661,657,-16629,899,-11,8,-12
2,380,119666,581,-16610,942,-11,17,-12
2,381,119671,557,-16620,997,-14,30,-12
2,382,119676,589,-16600,1116,-10,38,-12
2,383,119681,578,-16532,1163,-11,38,-11
2,384,119686,539,-16571,1210,-11,44,-10
2,385,119691,516,-16582,1259,-13,45,-12
2,386,119696,512,-16509,1267,-13,36,-12
2,387,119701,503,-16510,1301,-13,25,-11
2,388,119706,528,-16455,1303,-13,13,-11
2,389,119711,499,-16458,1318,-12,1,-12
2,390,119716,500,-16448,1346,-9,-12,-10
2,391,119721,518,-16430,1280,-9,-22,-8
2,392,119726,532,-16453,1190,-10,-34,-9
2,393,119731,531,-16426,1178,-10,-40,-10
2,394,119736,543,-16441,1136,-8,-48,-7
2,395,119741,550,-16461,1110,-9,-52,-8
2,396,119746,536,-16439,1115,-9,-46,-9
2,397,119751,499,-16469,1068,-10,-40,-7
2,398,119756,528,-16448,1039,-9,-31,-7
2,399,119761,560,-16420,1033,-9,-20,-9
2,400,119766,575,-16468,1054,-10,-9,-12
2,401,119771,552,-16465,1075,-10,-3,-10
2,402,119776,560,-16465,1080,-12,6,-9
2,403,119781,571,-16507,1027,-14,16,-8
2,404,119786,627,-16553,1006,-12,23,-8
2,405,119791,565,-16586,1004,-8,27,-7
2,406,119796,503,-16619,931,-12,32,-10
2,407,119801,426,-16591,953,-12,36,-11
2,408,119806,417,-16625,1009,-12,38,-10
2,409,119811,440,-16628,1008,-9,42,-11
2,410,119816,426,-16606,1060,-7,44,-9
2,411,119821,431,-16595,1097,-10,43,-8
2,412,119826,440,-16570,1145,-7,36,-10
2,413,119831,461,-16540,1111,-5,25,-8
2,414,119836,456,-16592,1039,-6,20,-9
2,415,119841,450,-16577,975,-3,16,-6
2,416,119846,394,-16583,861,-4,13,-6
2,417,119851,418,-16546,895,-3,9,-7
2,418,119856,534,-16481,1023,-4,11,-5
2,419,119861,595,-16363,1105,-5,11,-5
2,420,119866,572,-16344,1072,-2,19,-3
2,421,119871,496,-16325,1028,-1,26,-2
2,422,119876,509,-16321,1037,1,24,0
2,423,119881,565,-16356,1111,0,10,2
2,424,119886,553,-16449,1028,3,-14,6
2,425,119891,448,-16538,763,9,-41,10
2,426,119896,535,-16576,667,11,-60,15
2,427,119901,629,-16670,879,13,-78,20
2,428,119906,434,-16910,910,20,-103,24
2,429,119911,113,-17202,495,29,-124,21
2,430,119916,-108,-17251,42,34,-127,24
2,431,119921,-90,-17292,204,36,-122,31
2,432,119926,154,-17156,756,36,-137,36
2,433,119931,471,-16909,1268,40,-160,37
2,434,119936,525,-16687,1518,44,-159,41
2,435,119941,480,-16565,1734,42,-133,46
2,436,119946,617,-16460,1952,42,-110,52
2,437,119951,771,-16463,2005,42,-107,60
2,438,119956,847,-16521,1752,43,-127,70
2,439,119961,745,-16668,1552,52,-153,79
2,440,119966,641,-16608,1474,51,-186,80
2,441,119971,410,-16543,1603,49,-228,91
2,442,119976,422,-16426,1551,53,-259,98
2,443,119981,363,-16332,1441,57,-251,108
2,444,119986,355,-16360,1329,63,-216,119
2,445,119991,306,-16334,1303,61,-175,125
2,446,119996,91,-16278,1135,61,-152,134
2,447,120001,-48,-16213,1074,62,-132,142
2,448,120006,-123,-16039,1038,63,-104,146
2,449,120011,-42,-15983,1102,66,-71,158
2,450,120016,132,-15819,1306,71,-42,166
2,451,120021,253,-15835,1451,74,-41,177
2,452,120026,428,-15822,1508,78,-64,188
2,453,120031,478,-15771,1638,82,-86,202
2,454,120036,371,-15757,1684,86,-103,214
2,455,120041,206,-15732,1476,90,-113,227
2,456,120046,115,-15791,1281,103,-100,241
2,457,120051,198,-15845,1090,100,-74,252
2,458,120056,272,-15844,1214,96,-37,264
2,459,120061,356,-15830,1267,96,1,274
2,460,120066,156,-15892,1188,95,54,284
2,461,120071,-102,-15941,878,92,127,298
2,462,120076,-203,-16153,947,90,214,312
2,463,120081,18,-16117,1147,84,295,320
2,464,120086,114,-16204,1463,83,352,337
2,465,120091,69,-16216,1609,80,376,346
2,466,120096,-208,-16379,1525,84,382,356
2,467,120101,-494,-16560,1480,87,382,374
2,468,120106,-505,-16574,1642,84,382,389
2,469,120111,-385,-16482,1779,86,354,405
2,470,120116,-354,-16402,1908,87,314,419
2,471,120121,-611,-16407,1709,88,272,434
2,472,120126,-1014,-16459,1543,91,243,450
2,473,120131,-1165,-16515,1548,92,219,469
2,474,120136,-815,-16444,1710,91,187,490
2,475,120141,-330,-16360,1942,91,143,507
2,476,120146,-365,-16289,2049,97,80,515
2,477,120151,-738,-16339,1792,98,13,528
2,478,120156,-986,-16376,1364,99,-28,548
2,479,120161,-604,-16385,1164,94,7,581
2,480,120166,-548,-16373,1103,89,47,589
2,481,120171,-808,-16337,862,81,88,595
2,482,120176,-1029,-16274,529,74,144,610
2,483,120181,-1037,-16285,471,66,227,625
2,484,120186,-930,-16340,622,59,311,636
2,485,120191,-785,-16398,792,53,380,646
2,486,120196,-768,-16390,955,50,427,655
2,487,120201,-903,-16291,1088,38,455,660
2,488,120206,-1013,-16210,1231,33,472,670
2,489,120211,-937,-16135,1466,29,480,686
2,490,120216,-977,-16259,1529,24,472,702
2,491,120221,-1043,-16310,1424,22,456,706
2,492,120226,-1197,-16265,1443,21,431,709
2,493,120231,-1487,-16181,1506,12,394,715
2,494,120236,-1770,-16088,1663,6,367,719
2,495,120241,-1935,-16006,1679,5,348,728
2,496,120246,-1979,-15899,1725,-2,331,729
2,497,120251,-2075,-15900,1830,-7,305,732
2,498,120256,-2194,-15915,1932,-10,256,733
2,499,120261,-2546,-15941,2029,-14,196,732
2,500,120266,-2903,-15989,1993,-15,135,732
2,501,120271,-2913,-16017,2079,-14,72,734
2,502,120276,-2584,-16017,2290,-13,-10,735
2,503,120281,-2276,-16014,2483,-14,-115,731
2,504,120286,-2330,-16120,2322,-9,-226,719
2,505,120291,-2603,-16215,1755,-10,-309,713
2,506,120296,-2682,-16379,1270,-9,-338,705
2,507,120301,-2491,-16534,1012,-11,-328,697
2,508,120306,-2338,-16622,1065,-17,-296,686
2,509,120311,-2367,-16550,1070,-21,-266,665
2,510,120316,-2602,-16543,1007,-21,-242,654
2,511,120321,-2599,-16404,1102,-24,-218,641
2,512,120326,-2261,-16267,1360,-27,-204,627
2,513,120331,-1925,-16155,1679,-29,-203,617
2,514,120336,-1866,-16171,1738,-31,-215,603
2,515,120341,-2069,-16122,1586,-32,-232,582
2,516,120346,-2161,-16116,1486,-35,-236,569
2,517,120351,-1870,-16066,1475,-41,-226,558
2,518,120356,-1567,-16088,1547,-44,-204,537
2,519,120361,-1674,-16310,1497,-43,-184,513
2,520,120366,-2031,-16501,1263,-48,-169,492
2,521,120371,-2261,-16593,1174,-51,-144,472
2,522,120376,-2151,-16563,1265,-55,-108,454
2,523,120381,-2081,-16516,1378,-60,-77,431
2,524,120386,-2097,-16553,1546,-62,-61,403
2,525,120391,-2234,-16628,1707,-66,-69,378
2,526,120396,-2162,-16627,1873,-64,-94,354
2,527,120401,-1903,-16571,1954,-61,-122,331
2,528,120406,-1936,-16589,1803,-63,-145,304
2,529,120411,-2176,-16599,1651,-64,-166,274
2,530,120416,-2181,-16641,1354,-64,-196,248
2,531,120421,-1885,-16577,1295,-66,-205,222
2,532,120426,-1893,-16679,1257,-67,-200,187
2,533,120431,-2185,-16844,1121,-65,-186,148
2,534,120436,-2282,-16922,1008,-69,-163,113
2,535,120441,-2183,-16867,1092,-73,-137,81
2,536,120446,-2002,-16801,1281,-73,-124,52
2,537,120451,-1883,-16734,1436,-68,-142,18
2,538,120456,-1761,-16713,1359,-65,-177,-18
2,539,120461,-1658,-16687,1284,-64,-211,-50
2,540,120466,-1437,-16611,1266,-63,-234,-83
2,541,120471,-1289,-16487,1225,-63,-248,-115
2,542,120476,-1353,-16465,881,-62,-249,-150
2,543,120481,-1394,-16388,677,-64,-225,-187
2,544,120486,-1315,-16431,743,-66,-183,-218
2,545,120491,-1074,-16308,886,-71,-136,-258
2,546,120496,-1108,-16411,988,-74,-90,-294
2,547,120501,-1152,-16481,908,-76,-55,-332
2,548,120506,-1203,-16420,962,-78,-30,-370
2,549,120511,-1105,-16387,1167,-82,-25,-400
2,550,120516,-854,-16377,1262,-78,-35,-435
2,551,120521,-601,-16393,1172,-77,-43,-469
2,552,120526,-1161,-16359,1155,-83,-39,-544
2,553,120531,-1380,-16280,1055,-81,-50,-576
2,554,120536,-1191,-16188,1083,-82,-55,-603
2,555,120541,-769,-16152,1303,-88,-53,-636
2,556,120546,-663,-16249,1461,-85,-70,-672
2,557,120551,-862,-16285,1291,-82,-101,-707
2,558,120556,-1104,-16232,935,-80,-126,-735
2,559,120561,-1158,-16313,828,-87,-118,-760
2,560,120566,-1082,-16293,896,-93,-92,-797
2,561,120571,-1115,-16343,1027,-92,-62,-829
2,562,120576,-1072,-16409,1037,-93,-49,-854
2,563,120581,-812,-16419,1168,-95,-53,-886
2,564,120586,-543,-16462,1402,-95,-69,-912
2,565,120591,-489,-16557,1649,-97,-94,-947
2,566,120596,-640,-16470,1623,-94,-132,-972
2,567,120601,-771,-16465,1134,-92,-165,-995
2,568,120606,-593,-16386,975,-95,-176,-1015
2,569,120611,-335,-16380,1149,-101,-168,-1033
2,570,120616,-193,-16377,1352,-105,-162,-1062
2,571,120621,-344,-16412,1036,-107,-154,-1087
2,572,120626,-450,-16354,623,-110,-127,-1107
2,573,120631,-136,-16214,564,-114,-91,-1126
2,574,120636,170,-16248,959,-118,-69,-1137
2,575,120641,188,-16364,983,-124,-67,-1157
2,576,120646,218,-16421,784,-123,-49,-1176
2,577,120651,331,-16500,699,-124,-11,-1191
2,578,120656,379,-16514,976,-128,12,-1200
2,579,120661,281,-16392,1073,-129,-7,-1215
2,580,120666,318,-16468,892,-127,-39,-1223
2,581,120671,572,-16570,678,-126,-44,-1230
2,582,120676,845,-16537,839,-131,-33,-1239
2,583,120681,744,-16822,1123,-132,-33,-1248
2,584,120686,550,-16886,839,-132,-58,-1258
2,585,120691,721,-16997,363,-132,-58,-1259
2,586,120696,1016,-17006,472,-138,-29,-1266
2,587,120701,938,-17157,892,-142,-9,-1273
2,588,120706,715,-17230,789,-141,-10,-1282
2,589,120711,693,-17237,400,-142,4,-1285
2,590,120716,856,-17146,395,-146,35,-1281
2,591,120721,1086,-17120,880,-152,66,-1286
2,592,120726,1077,-17159,924,-155,62,-1294
2,593,120731,932,-17177,644,-155,57,-1298
2,594,120736,882,-17244,392,-159,75,-1301
2,595,120741,956,-17253,547,-163,106,-1300
2,596,120746,1157,-17281,785,-167,136,-1303
2,597,120751,939,-15975,402,-170,151,-1310
2,598,120756,-4500,-14778,-8623,-112,290,-1268
2,599,120761,-8366,-25027,-32768,49,2261,-1833
2,600,120766,-32263,-15774,-7352,-1125,11080,-1629
2,601,120771,-10075,-8942,32098,-891,19385,-134
2,602,120776,24815,-4215,32767,-436,19594,-206
2,603,120781,27860,-22397,32243,180,11036,-361
2,604,120786,-11463,-20455,26540,467,192,-863
2,605,120791,-32768,-16535,27980,758,-8729,132
2,606,120796,-20001,-303,6133,890,-15053,855
2,607,120801,19851,-19667,-32768,700,-11035,2206
2,608,120806,30697,-26176,-25721,350,281,750
2,609,120811,9447,-22499,14956,-402,3833,-425
2,610,120816,-31573,-9128,32767,-270,998,-830
2,611,120821,-26432,-7669,12515,1014,-10531,1035
2,612,120826,18279,-22939,-32768,1335,-13786,2278
2,613,120831,9176,-21254,-32597,420,-4422,721
2,614,120836,-3987,-19050,-7326,19,359,-111
2,615,120841,-18519,-14076,29097,6,1146,-155
2,616,120846,-6916,-17132,-10447,273,-2329,496
2,617,120851,8351,-16770,-30869,333,-1736,485
2,618,120856,8712,-17786,-13452,12,1250,223
2,619,120861,-2140,-15976,17549,-110,3115,-50
2,620,120866,-5155,-15349,17336,61,2033,43
2,621,120871,1158,-16315,-4921,190,558,277
2,622,120876,7100,-16718,-8323,76,708,282
2,623,120881,5820,-14903,9168,-60,1148,120
2,624,120886,-437,-15418,18091,38,481,143
2,625,120891,-282,-16872,-9162,229,-1033,300
2,626,120896,1939,-16160,-3325,100,-362,284
2,627,120901,2132,-15634,8904,45,-187,215
2,628,120906,644,-16044,6473,124,-791,187
2,629,120911,-208,-16846,-3718,183,-1067,191
2,630,120916,-921,-16872,-5973,128,-573,203
2,631,120921,-15,-15902,1269,56,-54,193
2,632,120926,1567,-15693,5813,68,-139,192
2,633,120931,2255,-16289,1735,110,-464,171
2,634,120936,994,-16515,-2352,104,-416,132
2,635,120941,-680,-16188,-156,67,-152,130
2,636,120946,-472,-15724,3593,50,-141,154
2,637,120951,1535,-15827,2678,80,-367,169
2,638,120956,2813,-16594,-294,94,-418,154
2,639,120961,1793,-16837,-65,72,-260,116
2,640,120966,357,-16603,1853,51,-211,113
2,641,120971,368,-16291,2021,61,-307,134
2,642,120976,1869,-16402,-419,76,-333,151
2,643,120981,2732,-16657,-852,61,-135,136
2,644,120986,1999,-16728,926,34,32,107
2,645,120991,971,-16505,1782,34,4,99
2,646,120996,801,-16497,580,46,-64,116
2,647,121001,1525,-16482,-425,41,23,123
2,648,121006,1882,-16404,720,24,181,113
2,649,121011,1673,-16341,2025,20,185,106
2,650,121016,1170,-16246,1678,27,56,106
2,651,121021,830,-16175,837,30,-10,114
2,652,121026,762,-16296,689,26,39,117
2,653,121031,1088,-16161,1569,17,112,108
2,654,121036,1164,-16362,1787,13,101,108
2,655,121041,928,-16437,1306,13,40,102
2,656,121046,555,-16448,1122,11,17,95
2,657,121051,453,-16352,1274,8,35,91
2,658,121056,604,-16236,1633,4,56,92
2,659,121061,919,-16340,1605,3,42,89
2,660,121066,1066,-16371,1448,2,12,80
2,661,121071,969,-16367,1435,-3,-14,78
2,662,121076,866,-16415,1653,-6,-31,78
2,663,121081,924,-16440,1491,-7,-33,76
2,664,121086,1196,-16361,1207,-10,-10,69
2,665,121091,1218,-16493,1128,-15,10,69
2,666,121096,1250,-16352,1249,-17,8,60
2,667,121101,1074,-16424,1330,-20,-7,65
2,668,121106,1062,-16437,1206,-22,-9,62
2,669,121111,1246,-16453,1219,-24,18,59
2,670,121116,1336,-16469,1187,-31,45,57
2,671,121121,1256,-16491,1382,-34,52,52
2,672,121126,1118,-16504,1370,-34,32,48
2,673,121131,1048,-16533,1290,-37,19,51
2,674,121136,1027,-16489,1261,-37,28,46
2,675,121141,1049,-16491,1321,-40,46,44
2,676,121146,971,-16512,1378,-43,49,41
2,677,121151,880,-16563,1308,-42,33,35
2,678,121156,727,-16518,1214,-44,23,29
2,679,121161,535,-16535,1162,-47,36,25
2,680,121166,442,-16544,1210,-47,56,23
2,681,121171,582,-16594,1296,-50,73,20
2,682,121176,765,-16570,1375,-54,79,16
2,683,121181,784,-16560,1392,-53,75,9
2,684,121186,637,-16562,1327,-56,77,3
2,685,121191,462,-16606,1213,-57,85,-3
2,686,121196,540,-16630,1254,-59,100,-5
2,687,121201,745,-16608,1280,-63,124,-9
2,688,121206,877,-16552,1359,-63,138,-16
2,689,121211,764,-16615,1332,-63,138,-20
2,690,121216,602,-16575,1275,-64,139,-23
2,691,121221,498,-16575,1252,-65,142,-27
2,692,121226,519,-16545,1241,-65,152,-27
2,693,121231,581,-16592,1389,-68,164,-32
2,694,121236,550,-16585,1488,-66,153,-37
2,695,121241,429,-16546,1579,-63,130,-41
2,696,121246,374,-16515,1564,-61,95,-39
2,697,121251,477,-16424,1528,-58,64,-42
2,698,121256,750,-16436,1452,-56,36,-44
2,699,121261,728,-16412,1308,-54,25,-45
2,700,121266,525,-16371,1092,-55,24,-48
2,701,121271,447,-16373,931,-56,45,-50
2,702,121276,515,-16393,898,-59,98,-54
2,703,121281,769,-16397,941,-61,152,-55
2,704,121286,857,-16423,1109,-65,202,-60
2,705,121291,810,-16408,1139,-65,223,-65
2,706,121296,754,-16336,1204,-62,239,-67
2,707,121301,737,-16312,1159,-63,249,-64
2,708,121306,847,-16307,1218,-62,257,-62
2,709,121311,870,-16325,1443,-59,252,-61
2,710,121316,857,-16186,1537,-59,223,-60
2,711,121321,744,-16200,1704,-57,198,-57
2,712,121326,632,-16178,1632,-50,161,-53
2,713,121331,699,-16170,1467,-45,120,-52
2,714,121336,737,-16089,1539,-46,95,-50
2,715,121341,647,-16074,1566,-43,67,-48
2,716,121346,635,-16043,1560,-40,37,-44
2,717,121351,557,-16082,1310,-37,15,-40
2,718,121356,625,-16110,1091,-36,9,-40
2,719,121361,547,-16094,1121,-38,22,-42
2,720,121366,622,-16112,1174,-37,29,-39
2,721,121371,658,-16150,1183,-36,40,-37
2,722,121376,725,-16176,954,-34,51,-40
2,723,121381,641,-16239,967,-34,78,-35
2,724,121386,590,-16257,927,-32,112,-40
2,725,121391,480,-16144,890,-34,147,-38
2,726,121396,469,-16602,995,-31,177,-15
2,727,121401,538,-16062,841,-40,190,-43
2,728,121406,815,-16639,1446,-28,223,-33
2,729,121411,568,-16286,1382,-33,222,-45
2,730,121416,446,-16613,1419,-29,210,-31
2,731,121421,490,-16487,1180,-27,168,-29
2,732,121426,516,-16495,1611,-24,152,-27
2,733,121431,595,-16641,1706,-17,126,-24
2,734,121436,515,-16581,1798,-16,92,-23
2,735,121441,479,-16574,1610,-15,42,-20
2,736,121446,379,-16479,1588,-9,-8,-14
2,737,121451,451,-16447,1639,-6,-54,-11
2,738,121456,451,-16427,1561,-3,-88,-11
2,739,121461,380,-16489,1312,1,-102,-10
2,740,121466,319,-16468,1082,2,-99,-12
2,741,121471,317,-16485,1068,1,-91,-10
2,742,121476,472,-16451,998,-1,-72,-5
2,743,121481,573,-16457,1080,-2,-44,-5
2,744,121486,665,-16472,1060,1,-19,-9
2,745,121491,542,-16471,1046,-3,12,-9
2,746,121496,522,-16430,1077,-4,39,-9
2,747,121501,555,-16409,1208,-4,58,-10
2,748,121506,637,-16552,1322,0,67,-4
2,749,121511,618,-16481,1340,-3,74,-11
2,750,121516,510,-16564,1368,-2,78,-5
2,751,121521,452,-16611,1336,-2,68,-6
2,752,121526,431,-16570,1460,-2,55,-6
2,753,121531,382,-16627,1476,2,33,0
2,754,121536,457,-16608,1557,4,16,3
2,755,121541,450,-16623,1510,9,0,2
2,756,121546,411,-16616,1467,10,-15,2
2,757,121551,377,-16574,1443,9,-36,6
2,758,121556,367,-16556,1430,9,-49,9
2,759,121561,375,-16514,1275,11,-53,7
2,760,121566,418,-16495,1232,12,-42,7
2,761,121571,456,-16508,1238,9,-31,6
2,762,121576,449,-16572,1256,8,-26,11
2,763,121581,472,-16597,1208,11,-23,10
2,764,121586,549,-16683,1183,11,-18,10
2,765,121591,588,-16659,1219,12,-19,11
2,766,121596,657,-16577,1319,16,-24,13
2,767,121601,712,-16564,1286,16,-26,14
2,768,121606,716,-16553,1356,13,-21,15
2,769,121611,715,-16519,1305,14,-19,16
2,770,121616,685,-16486,1174,14,-15,21
2,771,121621,612,-16490,1181,12,5,21
2,772,121626,663,-16526,1212,13,12,25
2,773,121631,682,-16499,1194,11,20,24
2,774,121636,684,-16586,1162,11,33,27
2,775,121641,629,-16654,1174,12,45,27
2,776,121646,547,-16634,1195,13,51,28
2,777,121651,558,-16673,1233,13,53,30
2,778,121656,591,-16521,1349,13,47,29
2,779,121661,685,-16506,1505,14,28,36
2,780,121666,630,-16476,1546,17,7,37
2,781,121671,667,-16465,1481,15,-18,40
2,782,121676,635,-16489,1377,21,-39,47
2,783,121681,525,-16507,1321,21,-45,46
2,784,121686,470,-16503,1271,19,-54,42
2,785,121691,449,-16532,1237,19,-55,44
2,786,121696,467,-16506,1189,18,-48,45
2,787,121701,446,-16494,1279,19,-39,50
2,788,121706,454,-16421,1353,20,-33,48
2,789,121711,439,-16442,1377,20,-35,47
2,790,121716,470,-16459,1309,19,-36,47
2,791,121721,553,-16468,1285,18,-36,50
2,792,121726,617,-16420,1303,20,-36,51
2,793,121731,658,-16398,1271,23,-38,52
2,794,121736,622,-16368,1210,19,-42,53
2,795,121741,654,-16385,1174,19,-37,53
2,796,121746,666,-16395,1155,21,-24,56
2,797,121751,647,-16360,1139,17,-11,55
2,798,121756,640,-16402,1173,17,2,58
2,799,121761,632,-16450,1176,18,10,59
2,800,121766,558,-16453,1167,17,19,59
2,801,121771,560,-16440,1254,15,27,60
2,802,121776,526,-16540,1292,17,33,60
2,803,121781,461,-16572,1273,18,33,58
2,804,121786,437,-16582,1255,17,31,60
2,805,121791,406,-16566,1344,19,21,63
2,806,121796,451,-16526,1461,21,3,62
2,807,121801,545,-16496,1522,19,-19,63
2,808,121806,532,-16519,1513,21,-39,65
2,809,121811,489,-16496,1397,24,-56,68
2,810,121816,470,-16500,1275,24,-63,68
2,811,121821,477,-16462,1267,25,-69,70
2,812,121826,469,-16443,1324,22,-64,69
2,813,121831,458,-16478,1266,25,-60,69
2,814,121836,486,-16452,1218,24,-48,69
2,815,121841,528,-16402,1218,20,-32,64
2,816,121846,460,-16337,1223,20,-19,65
2,817,121851,440,-16310,1239,22,-8,66
2,818,121856,511,-16288,1272,17,4,63
2,819,121861,525,-16343,1350,18,14,65
2,820,121866,561,-16331,1381,16,17,64
2,821,121871,518,-16311,1392,18,16,60
2,822,121876,515,-16236,1347,18,15,64
2,823,121881,513,-16182,1354,17,13,63
2,824,121886,457,-16221,1381,19,15,63
2,825,121891,342,-16256,1295,20,15,64
2,826,121896,288,-16319,1209,19,20,62
2,827,121901,287,-16350,1249,20,27,60
2,828,121906,271,-16371,1427,17,23,59
2,829,121911,250,-16384,1477,17,10,56
2,830,121916,277,-16421,1444,21,-7,57
2,831,121921,359,-16479,1413,23,-25,56
2,832,121926,344,-16516,1393,21,-42,56
2,833,121931,307,-16472,1410,24,-66,58
2,834,121936,280,-16467,1330,23,-82,56
2,835,121941,306,-16483,1240,26,-86,59
2,836,121946,355,-16473,1221,26,-77,56
2,837,121951,377,-16437,1173,23,-68,52
2,838,121956,354,-16470,1109,25,-63,52
2,839,121961,439,-16493,1048,24,-51,49
2,840,121966,519,-16479,1080,24,-35,51
2,841,121971,543,-16423,1161,24,-19,49
2,842,121976,474,-16451,1104,23,-1,44
2,843,121981,375,-16472,933,20,24,42
2,844,121986,420,-16521,1088,16,82,40
2,845,121991,458,-16513,1264,19,93,39
2,846,121996,444,-16515,1332,17,92,39
2,847,122001,432,-16535,1359,17,89,35
2,848,122006,350,-16532,1408,18,83,34
2,849,122011,250,-16601,1430,18,69,35
2,850,122016,219,-16630,1375,20,50,34
2,851,122021,234,-16657,1344,21,34,35
2,852,122026,208,-16614,1386,24,11,38
2,853,122031,233,-16529,1518,23,-16,34
2,854,122036,255,-16467,1522,24,-41,31
2,855,122041,262,-16466,1467,26,-56,33
2,856,122046,205,-16432,1443,25,-65,33
2,857,122051,239,-16418,1415,26,-76,30
2,858,122056,257,-16404,1424,26,-84,28
2,859,122061,247,-16397,1308,22,-82,26
2,860,122066,192,-16425,1292,19,-74,27
2,861,122071,170,-16416,1318,20,-59,24
2,862,122076,259,-16406,1309,21,-52,18
2,863,122081,280,-16443,1326,18,-46,18
2,864,122086,227,-16417,1318,18,-41,15
2,865,122091,250,-16413,1264,19,-36,17
2,866,122096,338,-16409,1208,18,-34,17
2,867,122101,372,-16355,1268,15,-32,17
2,868,122106,376,-16353,1346,14,-33,18
2,869,122111,332,-16388,1305,14,-27,12
2,870,122116,280,-16370,1285,12,-12,12
2,871,122121,265,-16338,1238,11,4,12
2,872,122126,277,-16354,1297,7,13,8
2,873,122131,310,-16371,1364,9,16,6
2,874,122136,348,-16388,1458,10,18,9
2,875,122141,309,-16379,1523,6,18,7
2,876,122146,220,-16399,1583,4,14,5
2,877,122151,216,-16391,1538,6,5,7
2,878,122156,177,-16401,1463,4,1,8
2,879,122161,136,-16374,1482,2,-3,5
2,880,122166,154,-16328,1542,0,-7,4
2,881,122171,123,-16317,1563,-1,-15,3
2,882,122176,56,-16355,1521,0,-22,3
2,883,122181,29,-16335,1527,1,-27,1
2,884,122186,17,-16265,1518,2,-34,2
2,885,122191,50,-16256,1517,-3,-46,2
2,886,122196,95,-16222,1536,-3,-58,0
2,887,122201,115,-16237,1495,-2,-67,-3
2,888,122206,103,-16212,1450,-3,-75,-3
2,889,122211,91,-16220,1372,-4,-76,-4
2,890,122216,197,-16194,1319,-2,-66,-5
2,891,122221,237,-16201,1224,-6,-50,-5
2,892,122226,232,-16154,1183,-10,-38,-5
2,893,122231,262,-16167,1203,-10,-20,-9
2,894,122236,354,-16212,1199,-11,-3,-10
2,895,122241,450,-16242,1174,-10,17,-9
2,896,122246,442,-16273,1257,-14,32,-11
2,897,122251,403,-16294,1212,-14,38,-8
2,898,122256,434,-16310,1170,-12,38,-6
2,899,122261,435,-16375,1240,-14,40,-9
2,900,122266,432,-16461,1241,-14,42,-8
2,901,122271,364,-16481,1242,-13,37,-8
2,902,122276,356,-16489,1216,-11,29,-6
2,903,122281,350,-16511,1203,-9,24,-4
2,904,122286,324,-16479,1269,-11,20,-2
2,905,122291,330,-16479,1322,-9,11,-3
2,906,122296,389,-16511,1317,-9,-2,-2
2,907,122301,394,-16492,1307,-9,-11,-1
2,908,122306,358,-16509,1308,-11,-11,1
2,909,122311,323,-16564,1254,-12,-13,1
2,910,122316,291,-16598,1229,-10,-10,2
2,911,122321,269,-16627,1165,-9,-2,2
2,912,122326,257,-16640,1186,-9,10,3
2,913,122331,305,-16622,1224,-12,19,1
2,914,122336,286,-16579,1301,-12,24,1
2,915,122341,292,-16543,1369,-14,24,1
2,916,122346,339,-16519,1388,-13,25,1
2,917,122351,357,-16467,1423,-12,21,4
2,918,122356,267,-16498,1435,-15,7,6
2,919,122361,211,-16655,1222,-14,4,4
2,920,122366,153,-16728,1091,-11,1,5
2,921,122371,148,-16741,1149,-12,0,7
2,922,122376,225,-16740,1337,-15,-14,3
2,923,122381,232,-16690,1453,-15,-37,7
2,924,122386,242,-16637,1397,-9,-49,7
2,925,122391,262,-16614,1343,-11,-51,7
2,926,122396,266,-16519,1371,-11,-58,6
2,927,122401,232,-16452,1397,-12,-68,8
2,928,122406,297,-16411,1359,-9,-69,9
2,929,122411,298,-16341,1341,-12,-59,9
2,930,122416,312,-16264,1340,-13,-44,10
2,931,122421,306,-16242,1384,-14,-29,7
2,932,122426,260,-16243,1480,-20,-13,10
2,933,122431,198,-16268,1449,-21,3,8
2,934,122436,135,-16324,1377,-22,23,4
2,935,122441,72,-16471,1175,-26,46,3
2,936,122446,33,-16588,1097,-24,62,0
2,937,122451,-25,-16671,1120,-24,64,1
2,938,122456,3,-16695,1290,-24,58,2
2,939,122461,75,-16665,1443,-24,47,2
2,940,122466,161,-16609,1538,-25,31,2
2,941,122471,108,-16623,1486,-21,12,1
2,942,122476,118,-16541,1382,-21,-4,0
2,943,122481,117,-16557,1390,-19,-27,2
2,944,122486,125,-16613,1387,-21,-51,6
2,945,122491,112,-16637,1268,-18,-60,2
2,946,122496,106,-16635,1147,-16,-58,-1
2,947,122501,112,-16601,1102,-18,-50,0
2,948,122506,183,-16586,1090,-19,-44,0
2,949,122511,239,-16576,1116,-17,-42,1
2,950,122516,303,-16589,1147,-18,-40,1
2,951,122521,319,-16547,1175,-19,-33,-1
2,952,122526,325,-16521,1127,-16,-28,1
2,953,122531,274,-16506,1128,-19,-20,0
2,954,122536,259,-16530,1130,-15,-14,0
2,955,122541,324,-16522,1176,-16,-3,1
2,956,122546,399,-16482,1267,-16,2,2
2,957,122551,378,-16417,1305,-17,7,0
2,958,122556,316,-16420,1277,-18,9,-2
2,959,122561,256,-16456,1227,-18,9,-3
2,960,122566,271,-16449,1223,-16,9,2
2,961,122571,248,-16389,1286,-15,6,3
2,962,122576,235,-16366,1276,-14,3,3
2,963,122581,275,-16378,1318,-13,-1,2
2,964,122586,302,-16351,1352,-13,-3,2
2,965,122591,256,-16337,1291,-13,-8,5
2,966,122596,268,-16293,1226,-10,-14,3
2,967,122601,277,-16290,1162,-10,-22,4
2,968,122606,239,-16245,1122,-9,-23,5
2,969,122611,258,-16220,1107,-8,-25,6
2,970,122616,193,-16234,1123,-11,-22,4
2,971,122621,177,-16252,1133,-9,-17,2
2,972,122626,208,-16288,1171,-8,-7,1
2,973,122631,252,-16321,1232,-7,3,1
2,974,122636,274,-16296,1293,-6,5,5
2,975,122641,282,-16312,1364,-9,6,2
2,976,122646,299,-16357,1353,-7,8,0
2,977,122651,296,-16398,1362,-6,8,2
2,978,122656,295,-16341,1362,-8,8,3
2,979,122661,294,-16347,1369,-7,6,2
2,980,122666,318,-16317,1317,-10,11,2
2,981,122671,295,-16322,1297,-9,13,1
2,982,122676,269,-16331,1271,-8,15,0
2,983,122681,296,-16390,1320,-9,16,3
2,984,122686,219,-16453,1354,-9,16,1
2,985,122691,175,-16457,1319,-12,19,-1
2,986,122696,152,-16462,1280,-11,26,-1
2,987,122701,70,-16522,1324,-9,31,-2
2,988,122706,53,-16499,1374,-10,27,0
2,989,122711,82,-16521,1375,-11,22,-3
2,990,122716,100,-16491,1337,-10,19,-4
2,991,122721,2,-16520,1382,-8,10,-7
2,992,122726,5,-16539,1407,-5,-1,-4
2,993,122731,29,-16556,1364,-9,-8,-5
2,994,122736,46,-16576,1340,-11,-11,-8
2,995,122741,26,-16610,1332,-8,-12,-10
2,996,122746,-8,-16640,1329,-6,-13,-10
2,997,122751,17,-16615,1317,-9,-18,-12
2,998,122756,9,-16646,1298,-9,-16,-12
2,999,122761,39,-16600,1269,-6,-13,-12
