event_id,seq,ts_ms,ax,ay,az,gx,gy,gz
5,0,346081,-2134,-15845,-3828,3,23,7
5,1,346086,-2049,-15849,-3820,5,20,7
5,2,346091,-1897,-15873,-3786,3,5,7
5,3,346096,-1861,-15885,-3899,3,-13,9
5,4,346101,-2056,-16009,-3983,4,-21,5
5,5,346106,-2204,-15978,-4140,5,-10,0
5,6,346111,-2213,-15842,-4008,1,16,-3
5,7,346116,-2110,-15876,-3878,1,37,-3
5,8,346121,-2012,-15883,-3831,5,52,0
5,9,346126,-1993,-15860,-4042,7,64,-3
5,10,346131,-2070,-15832,-4018,5,86,-6
5,11,346136,-2128,-15758,-3831,4,98,-8
5,12,346141,-2117,-15759,-3536,3,89,-5
5,13,346146,-2024,-15775,-3352,3,60,-3
5,14,346151,-1965,-15838,-3380,2,23,0
5,15,346156,-1792,-15885,-3466,1,-4,2
5,16,346161,-1666,-15964,-3647,4,-14,2
5,17,346166,-1707,-15988,-3733,2,-14,2
5,18,346171,-1731,-15974,-3718,2,-16,3
5,19,346176,-1790,-15901,-3819,2,-19,1
5,20,346181,-1903,-15892,-3915,3,-15,-1
5,21,346186,-1861,-15915,-3917,0,-3,1
5,22,346191,-1766,-15927,-3807,2,2,2
5,23,346196,-1808,-15980,-3759,1,-1,-1
5,24,346201,-1942,-15916,-3824,-2,-7,-4
5,25,346206,-2033,-15776,-3826,-3,-8,-2
5,26,346211,-2125,-15790,-3808,0,-4,-4
5,27,346216,-2077,-15810,-3718,-1,-4,0
5,28,346221,-1786,-15811,-3713,1,-5,1
5,29,346226,-1692,-15825,-3747,2,-3,-1
5,30,346231,-1852,-15854,-3682,2,-3,-5
5,31,346236,-1878,-15754,-3688,-1,-4,-3
5,32,346241,-1753,-15799,-3732,-1,-4,-1
5,33,346246,-1638,-15809,-3637,0,8,-3
5,34,346251,-1685,-15780,-3571,0,12,-2
5,35,346256,-1805,-15820,-3505,-1,6,-5
5,36,346261,-1895,-15849,-3499,-2,-7,-4
5,37,346266,-1922,-15748,-3593,-3,-19,-1
5,38,346271,-1883,-15705,-3603,0,-23,-3
5,39,346276,-1868,-15769,-3573,-3,-25,-2
5,40,346281,-1842,-15863,-3621,-6,-29,2
5,41,346286,-1912,-15951,-3726,-3,-40,3
5,42,346291,-1807,-16001,-3810,-5,-46,6
5,43,346296,-1749,-15995,-3770,-9,-40,5
5,44,346301,-1794,-15986,-3750,-7,-23,-1
5,45,346306,-1793,-15903,-3743,-5,-6,2
5,46,346311,-1818,-15852,-3748,-8,3,3
5,47,346316,-1709,-15873,-3788,-6,-13,6
5,48,346321,-1585,-15825,-3827,-6,-28,6
5,49,346326,-1628,-15847,-3903,-8,-34,4
5,50,346331,-1650,-15834,-3946,-7,-29,2
5,51,346336,-1682,-15880,-3793,-7,-18,0
5,52,346341,-1729,-15869,-3753,-5,-18,3
5,53,346346,-1755,-15862,-3675,-2,-22,1
5,54,346351,-1764,-15798,-3674,-2,-28,0
5,55,346356,-1860,-15758,-3810,-5,-33,0
5,56,346361,-1898,-15735,-3811,-6,-36,5
5,57,346366,-1868,-15801,-3802,-6,-45,8
5,58,346371,-1868,-15863,-3885,-3,-54,5
5,59,346376,-1913,-15869,-4025,-6,-51,2
5,60,346381,-1951,-15841,-4041,-5,-36,5
5,61,346386,-1993,-15862,-3941,-3,-17,6
5,62,346391,-1992,-15820,-3850,-4,-5,3
5,63,346396,-1954,-15822,-3941,-3,-8,4
5,64,346401,-1904,-15848,-3941,-2,-4,4
5,65,346406,-1835,-15820,-3894,-6,8,4
5,66,346411,-1774,-15861,-3888,-2,11,3
5,67,346416,-1812,-15881,-3942,-1,8,2
5,68,346421,-1851,-15843,-3882,-1,8,2
5,69,346426,-1876,-15777,-3740,-1,5,0
5,70,346431,-1860,-15809,-3742,0,-3,3
5,71,346436,-1795,-15852,-3822,0,-13,7
5,72,346441,-1757,-15884,-3945,0,-22,5
5,73,346446,-1784,-15927,-3899,-4,-31,5
5,74,346451,-1776,-15902,-3837,-4,-34,6
5,75,346456,-1822,-15857,-3859,-4,-23,3
5,76,346461,-1877,-15891,-3895,1,-3,4
5,77,346466,-1928,-15841,-3816,1,11,4
5,78,346471,-1948,-15820,-3771,0,6,6
5,79,346476,-1959,-15870,-3795,-1,-10,5
5,80,346481,-1951,-15891,-3842,2,-22,8
5,81,346486,-1902,-15900,-3937,1,-16,9
5,82,346491,-1866,-15868,-3870,0,-9,8
5,83,346496,-1869,-15879,-3830,1,-6,5
5,84,346501,-1892,-15883,-3903,1,-8,5
5,85,346506,-1943,-15844,-3892,2,-7,4
5,86,346511,-1993,-15871,-3743,-1,-4,5
5,87,346516,-2031,-15830,-3662,2,-6,3
5,88,346521,-1921,-15827,-3775,2,-11,4
5,89,346526,-1749,-15841,-3900,4,-9,7
5,90,346531,-1733,-15841,-3916,5,-2,4
5,91,346536,-1841,-15897,-3813,2,-2,3
5,92,346541,-1921,-15883,-3910,2,-3,3
5,93,346546,-1933,-15880,-3951,3,5,5
5,94,346551,-1923,-15791,-3924,-2,16,5
5,95,346556,-1917,-15844,-3911,2,24,6
5,96,346561,-1894,-15891,-3803,2,26,6
5,97,346566,-1889,-15848,-3752,1,21,7
5,98,346571,-1858,-15853,-3826,4,19,8
5,99,346576,-1842,-15895,-3942,3,28,7
5,100,346581,-1852,-15909,-3865,5,36,8
5,101,346586,-1907,-15899,-3773,4,30,5
5,102,346591,-1871,-15827,-3664,5,13,5
5,103,346596,-1864,-15767,-3717,5,-4,2
5,104,346601,-1870,-15860,-3861,6,-9,4
5,105,346606,-1936,-15871,-3857,1,-15,4
5,106,346611,-1948,-15849,-3834,0,-25,2
5,107,346616,-1989,-15819,-3707,1,-26,2
5,108,346621,-1874,-15862,-3712,1,-19,5
5,109,346626,-1842,-15843,-3670,3,-5,6
5,110,346631,-1898,-15894,-3619,5,13,2
5,111,346636,-1999,-15849,-3670,0,15,2
5,112,346641,-1997,-15808,-3707,2,2,5
5,113,346646,-1958,-15797,-3704,1,-7,1
5,114,346651,-1961,-15748,-3727,0,-11,4
5,115,346656,-1948,-15784,-3739,0,-4,4
5,116,346661,-1992,-15803,-3694,0,0,2
5,117,346666,-1952,-15824,-3776,4,-9,4
5,118,346671,-1884,-15854,-3841,1,-18,6
5,119,346676,-2044,-15866,-3678,-2,-26,4
5,120,346681,-2072,-15800,-3627,0,-31,7
5,121,346686,-2068,-15809,-3666,0,-36,8
5,122,346691,-1963,-15865,-3715,1,-39,8
5,123,346696,-1933,-15889,-3720,0,-40,10
5,124,346701,-1897,-15905,-3790,-1,-52,8
5,125,346706,-1945,-15946,-3766,-2,-52,6
5,126,346711,-2008,-15984,-3798,-3,-47,9
5,127,346716,-1839,-15867,-3951,-2,-33,11
5,128,346721,-1762,-15847,-3999,1,-8,7
5,129,346726,-1846,-15908,-3978,1,8,4
5,130,346731,-1918,-15858,-3811,-1,1,2
5,131,346736,-1912,-15761,-3764,-2,-11,4
5,132,346741,-1950,-15752,-3887,1,-17,4
5,133,346746,-1915,-15770,-3931,1,-12,1
5,134,346751,-1885,-15724,-3889,1,-10,2
5,135,346756,-1767,-15744,-3964,0,-16,4
5,136,346761,-1718,-15864,-4038,3,-21,5
5,137,346766,-1822,-15858,-4040,3,-17,1
5,138,346771,-1904,-15874,-3966,5,-7,-2
5,139,346776,-2031,-15813,-3782,5,-1,-4
5,140,346781,-2065,-15783,-3750,5,-3,0
5,141,346786,-2032,-15833,-3730,4,-14,0
5,142,346791,-2038,-15830,-3792,5,-28,-3
5,143,346796,-1990,-15854,-3832,4,-30,2
5,144,346801,-2035,-15880,-3776,7,-22,1
5,145,346806,-1994,-15891,-3737,8,-16,3
5,146,346811,-1944,-15898,-3750,6,-18,5
5,147,346816,-1857,-15833,-3798,3,-25,3
5,148,346821,-1815,-15872,-3853,6,-33,6
5,149,346826,-1842,-15863,-3906,7,-38,8
5,150,346831,-1886,-15933,-3903,4,-37,6
5,151,346836,-1977,-15903,-3865,4,-37,3
5,152,346841,-2035,-15907,-3850,5,-39,5
5,153,346846,-2092,-15908,-3964,4,-38,6
5,154,346851,-1930,-15874,-4050,6,-36,6
5,155,346856,-1845,-15851,-4045,8,-31,5
5,156,346861,-1981,-15808,-4044,7,-23,0
5,157,346866,-2162,-15764,-4066,10,-21,1
5,158,346871,-2240,-15718,-4019,10,-16,0
5,159,346876,-2157,-15707,-3892,11,-5,2
5,160,346881,-2020,-15779,-3689,10,5,3
5,161,346886,-1862,-15876,-3630,15,5,4
5,162,346891,-1943,-15905,-3690,15,2,1
5,163,346896,-2046,-15876,-3699,12,-6,0
5,164,346901,-2074,-15866,-3694,11,-12,-1
5,165,346906,-2050,-15876,-3621,9,-11,-1
5,166,346911,-2084,-15856,-3504,7,-15,-2
5,167,346916,-2009,-15833,-3438,4,-25,0
5,168,346921,-1999,-15871,-3569,9,-30,4
5,169,346926,-1964,-15869,-3694,10,-24,5
5,170,346931,-1895,-15860,-3758,9,-7,5
5,171,346936,-1973,-15887,-3796,6,7,4
5,172,346941,-1928,-15844,-3758,5,8,7
5,173,346946,-1908,-15831,-3681,4,-2,6
5,174,346951,-1948,-15883,-3759,6,-18,4
5,175,346956,-1923,-15891,-3923,6,-18,4
5,176,346961,-1922,-15869,-4045,8,-6,3
5,177,346966,-2033,-15840,-3961,4,5,-1
5,178,346971,-2040,-15807,-3846,5,8,-3
5,179,346976,-2025,-15805,-3785,5,2,-3
5,180,346981,-2052,-15870,-3779,8,-3,-7
5,181,346986,-2054,-15836,-3747,7,5,-8
5,182,346991,-2042,-15765,-3703,7,10,-9
5,183,346996,-2066,-15761,-3704,9,7,-11
5,184,347001,-2106,-15805,-3639,6,-4,-11
5,185,347006,-2149,-15851,-3603,5,-17,-9
5,186,347011,-2133,-15877,-3573,5,-21,-8
5,187,347016,-1996,-15860,-3622,4,-11,-7
5,188,347021,-1969,-15903,-3614,5,5,-6
5,189,347026,-2046,-15866,-3598,6,8,-5
5,190,347031,-1994,-15840,-3760,6,-6,-2
5,191,347036,-1953,-15858,-3882,4,-12,0
5,192,347041,-1929,-15859,-4009,5,-10,-1
5,193,347046,-1852,-15869,-4009,5,6,-1
5,194,347051,-1809,-15828,-3778,2,-4,-2
5,195,347056,-1755,-15781,-3675,1,-17,0
5,196,347061,-1889,-15792,-3633,1,-15,-7
5,197,347066,-1967,-15815,-3670,6,-8,-12
5,198,347071,-2010,-15830,-3584,9,-3,-11
5,199,347076,-2027,-15802,-3583,6,-13,-9
5,200,347081,-1949,-15720,-3758,5,-28,-9
5,201,347086,-1887,-15744,-3768,3,-27,-10
5,202,347091,-2028,-15817,-3647,3,-23,-9
5,203,347096,-2080,-15874,-3625,4,-22,-6
5,204,347101,-2014,-15817,-3697,3,-25,-7
5,205,347106,-2000,-15861,-3780,4,-27,-6
5,206,347111,-2047,-15808,-3749,4,-23,-4
5,207,347116,-1986,-15805,-3883,3,-21,-1
5,208,347121,-1856,-15858,-4034,5,-16,0
5,209,347126,-1843,-15900,-4043,5,-8,-2
5,210,347131,-1937,-16028,-3916,3,-8,-2
5,211,347136,-1966,-16027,-3810,3,-13,-2
5,212,347141,-1914,-15821,-3797,-2,-12,-5
5,213,347146,-1957,-15848,-3717,4,-2,-3
5,214,347151,-2001,-15827,-3652,7,2,-3
5,215,347156,-1920,-15808,-3777,7,-9,-1
5,216,347161,-1887,-15824,-3785,8,-17,-4
5,217,347166,-1835,-15844,-3781,6,-26,-3
5,218,347171,-1863,-15809,-3772,7,-18,-7
5,219,347176,-1935,-15775,-3754,6,-12,-6
5,220,347181,-1967,-15713,-3702,7,-14,-6
5,221,347186,-1972,-15685,-3671,6,-18,-7
5,222,347191,-2030,-15729,-3736,1,-29,-5
5,223,347196,-2021,-15775,-3792,1,-34,0
5,224,347201,-1939,-15852,-3767,4,-30,-2
5,225,347206,-1910,-15935,-3632,6,-24,-2
5,226,347211,-1892,-15960,-3581,1,-21,-3
5,227,347216,-1897,-15994,-3630,5,-21,-2
5,228,347221,-1892,-15949,-3664,6,-28,-1
5,229,347226,-1912,-15918,-3727,8,-32,1
5,230,347231,-1849,-15906,-3767,5,-31,1
5,231,347236,-1852,-15913,-3814,1,-21,0
5,232,347241,-1884,-15810,-3803,4,-7,3
5,233,347246,-2022,-15834,-3841,5,3,0
5,234,347251,-2000,-15838,-3789,5,6,-1
5,235,347256,-1868,-15854,-3672,0,-5,1
5,236,347261,-1827,-15841,-3660,-1,-19,-2
5,237,347266,-1849,-15806,-3733,1,-24,-4
5,238,347271,-2006,-15831,-3905,2,-16,-5
5,239,347276,-2033,-15798,-3898,2,-13,-3
5,240,347281,-1982,-15806,-3778,2,-16,1
5,241,347286,-1865,-15811,-3728,2,-13,-3
5,242,347291,-1899,-15786,-3868,3,-10,-4
5,243,347296,-2009,-15799,-3826,5,5,-6
5,244,347301,-2056,-15811,-3647,2,7,-5
5,245,347306,-1999,-15833,-3582,0,-3,-3
5,246,347311,-1920,-15866,-3697,-1,-8,-3
5,247,347316,-1896,-15919,-3713,1,-3,-5
5,248,347321,-1945,-15949,-3689,2,4,-4
5,249,347326,-1953,-16003,-3793,1,-4,-2
5,250,347331,-1983,-15941,-3885,2,-13,1
5,251,347336,-1995,-15890,-3880,2,-19,3
5,252,347341,-2033,-15875,-3874,3,-14,3
5,253,347346,-1983,-15906,-3905,1,0,3
5,254,347351,-1896,-15872,-3933,6,1,5
5,255,347356,-1851,-15856,-3907,5,-6,4
5,256,347361,-1829,-15830,-3932,5,-21,2
5,257,347366,-1809,-15817,-3979,7,-31,1
5,258,347371,-1843,-15778,-3928,4,-36,-2
5,259,347376,-1968,-15771,-3852,7,-33,-3
5,260,347381,-2023,-15823,-3772,8,-33,-2
5,261,347386,-2000,-15819,-3829,8,-35,-2
5,262,347391,-1964,-15817,-3871,7,-24,-2
5,263,347396,-1974,-15822,-3855,10,-14,-3
5,264,347401,-2050,-15812,-3797,8,-8,-4
5,265,347406,-2065,-15848,-3781,7,-6,-5
5,266,347411,-2162,-15908,-3688,7,2,-1
5,267,347416,-2119,-15886,-3729,8,12,-2
5,268,347421,-2079,-15904,-3788,10,15,0
5,269,347426,-2028,-15891,-3792,9,12,1
5,270,347431,-2005,-15848,-3772,9,9,1
5,271,347436,-1963,-15823,-3687,8,5,0
5,272,347441,-1960,-15825,-3743,8,6,-4
5,273,347446,-1860,-15844,-3793,9,10,-1
5,274,347451,-1833,-15856,-3718,8,12,-2
5,275,347456,-1876,-15836,-3649,10,1,1
5,276,347461,-1935,-15787,-3646,8,-16,0
5,277,347466,-1928,-15830,-3639,4,-27,-4
5,278,347471,-1952,-15836,-3711,5,-28,-1
5,279,347476,-2006,-15824,-3792,7,-17,-3
5,280,347481,-1999,-15806,-3657,5,-2,-5
5,281,347486,-2130,-15837,-3547,3,2,-6
5,282,347491,-2200,-15866,-3544,4,-8,-4
5,283,347496,-2134,-15840,-3625,5,-21,-2
5,284,347501,-2123,-15875,-3671,5,-22,-2
5,285,347506,-2090,-15899,-3713,3,-14,-4
5,286,347511,-1963,-15889,-3752,5,-8,-2
5,287,347516,-1896,-15934,-3750,4,-6,0
5,288,347521,-1952,-15851,-3659,3,-3,-2
5,289,347526,-2038,-15876,-3703,6,3,-3
5,290,347531,-2088,-15900,-3731,7,6,-3
5,291,347536,-1948,-15909,-3624,5,6,-3
5,292,347541,-1849,-15886,-3549,2,-1,-4
5,293,347546,-1884,-15894,-3625,3,-8,-4
5,294,347551,-1989,-15882,-3726,3,-8,-6
5,295,347556,-1993,-15836,-3748,0,-2,-5
5,296,347561,-2004,-15828,-3760,-1,1,-7
5,297,347566,-2042,-15803,-3762,1,2,-5
5,298,347571,-2081,-15773,-3767,1,-4,0
5,299,347576,-2088,-15775,-3895,1,-9,-3
5,300,347581,-2019,-15802,-3813,2,-13,-2
5,301,347586,-2004,-15901,-3756,0,-18,-2
5,302,347591,-1930,-15855,-3810,3,-23,-5
5,303,347596,-2013,-15825,-3786,3,-17,-6
5,304,347601,-2095,-15814,-3700,3,-15,-8
5,305,347606,-2087,-15873,-3713,5,-21,-7
5,306,347611,-2069,-15902,-3760,5,-20,-6
5,307,347616,-2054,-15889,-3735,3,-17,-5
5,308,347621,-2015,-15873,-3731,3,-13,-6
5,309,347626,-1986,-15871,-3689,2,-12,-6
5,310,347631,-1966,-15877,-3700,5,-3,-5
5,311,347636,-1990,-15846,-3819,5,5,-8
5,312,347641,-2111,-15859,-3867,6,9,-11
5,313,347646,-2091,-15859,-3833,3,4,-7
5,314,347651,-1952,-15858,-3845,1,-5,-3
5,315,347656,-1856,-15884,-3860,1,-6,-5
5,316,347661,-1948,-15831,-3766,3,-2,-5
5,317,347666,-1965,-15799,-3695,5,3,-4
5,318,347671,-1926,-15851,-3728,6,0,-1
5,319,347676,-1889,-15848,-3770,4,-7,-2
5,320,347681,-1932,-15831,-3684,3,-10,-7
5,321,347686,-1982,-15803,-3608,3,-14,-10
5,322,347691,-1951,-15826,-3575,0,-15,-7
5,323,347696,-2016,-15884,-3633,1,-13,-5
5,324,347701,-1991,-15902,-3521,1,-10,-6
5,325,347706,-1955,-15854,-3475,1,-10,-4
5,326,347711,-1928,-15865,-3610,5,-11,-4
5,327,347716,-1933,-15870,-3826,5,-9,-5
5,328,347721,-1944,-15926,-3911,3,-7,-5
5,329,347726,-2005,-15906,-3839,-1,-7,-3
5,330,347731,-2100,-15886,-3753,-1,-18,-4
5,331,347736,-2156,-15855,-3698,1,-19,-5
5,332,347741,-2099,-15836,-3775,2,-12,-1
5,333,347746,-2045,-15816,-3738,4,-6,1
5,334,347751,-2041,-15825,-3733,3,-8,3
5,335,347756,-1981,-15870,-3842,3,-20,4
5,336,347761,-1901,-15831,-3869,2,-29,4
5,337,347766,-1895,-15882,-3690,0,-24,4
5,338,347771,-2021,-15863,-3499,0,-17,1
5,339,347776,-2091,-15858,-3579,3,-19,0
5,340,347781,-2102,-15851,-3711,0,-17,0
5,341,347786,-2071,-15824,-3710,1,-15,0
5,342,347791,-2108,-15764,-3631,2,-16,1
5,343,347796,-2083,-15820,-3741,1,-28,4
5,344,347801,-2075,-15892,-4002,0,-38,5
5,345,347806,-2076,-15921,-4105,1,-41,6
5,346,347811,-2002,-15928,-4089,3,-32,4
5,347,347816,-1989,-15953,-4052,2,-18,3
5,348,347821,-2077,-15981,-4023,0,-3,0
5,349,347826,-2339,-15957,-3960,2,5,-3
5,350,347831,-2568,-15855,-3697,1,5,1
5,351,347836,-2523,-15704,-3519,-1,-3,7
5,352,347841,-2355,-15633,-3414,3,-11,16
5,353,347846,-2331,-15686,-3451,8,-28,22
5,354,347851,-2451,-15755,-3208,9,-67,26
5,355,347856,-2733,-15768,-3118,6,-123,29
5,356,347861,-2841,-15741,-3531,9,-174,35
5,357,347866,-2688,-15752,-3848,12,-178,45
5,358,347871,-2505,-15813,-3570,11,-148,49
5,359,347876,-2467,-15796,-3268,11,-137,54
5,360,347881,-2634,-15835,-3431,13,-146,56
5,361,347886,-2833,-15810,-3853,17,-139,57
5,362,347891,-2926,-15681,-3951,15,-97,63
5,363,347896,-2925,-15568,-3898,16,-44,68
5,364,347901,-2969,-15544,-3836,17,-11,70
5,365,347906,-3046,-15634,-3892,20,0,72
5,366,347911,-3081,-15621,-3954,20,7,79
5,367,347916,-3058,-15515,-3923,19,28,83
5,368,347921,-3081,-15443,-3758,22,54,92
5,369,347926,-3092,-15531,-3611,25,63,96
5,370,347931,-2988,-15641,-3448,27,60,103
5,371,347936,-3051,-15651,-3349,27,52,106
5,372,347941,-3080,-15478,-3308,30,47,113
5,373,347946,-3269,-15417,-3426,31,48,120
5,374,347951,-3397,-15480,-3392,30,36,130
5,375,347956,-3177,-15552,-3397,31,-3,142
5,376,347961,-2944,-15694,-3356,32,-40,151
5,377,347966,-2961,-15839,-3334,34,-67,160
5,378,347971,-3119,-15890,-3567,34,-71,161
5,379,347976,-3295,-15866,-3655,34,-41,161
5,380,347981,-3454,-15779,-3349,34,-8,169
5,381,347986,-3323,-15696,-3184,30,3,176
5,382,347991,-3027,-15767,-3492,34,0,180
5,383,347996,-2862,-15841,-3791,36,-4,185
5,384,348001,-2857,-15819,-3591,32,-20,192
5,385,348006,-3041,-15793,-3579,30,-47,193
5,386,348011,-3291,-15691,-3932,34,-50,193
5,387,348016,-3575,-15581,-4276,38,-4,194
5,388,348021,-3819,-15500,-4027,38,63,197
5,389,348026,-3746,-15509,-3612,40,100,205
5,390,348031,-3325,-15519,-3762,42,94,212
5,391,348036,-3097,-15602,-3891,42,65,215
5,392,348041,-3189,-15650,-3424,42,26,217
5,393,348046,-3419,-15715,-2982,42,-28,225
5,394,348051,-3578,-15807,-3359,48,-65,231
5,395,348056,-3592,-15784,-3829,50,-47,230
5,396,348061,-3591,-15655,-3926,49,8,232
5,397,348066,-3530,-15697,-3656,46,41,233
5,398,348071,-3384,-15877,-3380,41,25,235
5,399,348076,-3298,-15844,-3428,43,9,238
5,400,348081,-3506,-15685,-3646,45,35,233
5,401,348086,-3787,-15579,-3495,44,92,232
5,402,348091,-3892,-15557,-2871,40,126,234
5,403,348096,-3720,-15601,-2665,40,107,237
5,404,348101,-3529,-15640,-2938,37,71,238
5,405,348106,-3569,-15573,-2863,35,44,239
5,406,348111,-3728,-15459,-2620,32,9,244
5,407,348116,-3814,-15434,-2884,32,-36,253
5,408,348121,-3896,-15550,-3590,38,-60,255
5,409,348126,-4000,-15622,-3911,33,-63,259
5,410,348131,-3943,-15620,-3733,28,-58,265
5,411,348136,-3726,-15621,-3395,30,-54,267
5,412,348141,-3649,-15729,-3359,36,-52,267
5,413,348146,-3660,-15991,-3638,41,-30,270
5,414,348151,-3640,-15892,-3331,38,-28,271
5,415,348156,-3724,-15878,-3297,38,-42,271
5,416,348161,-3840,-15964,-3771,43,-49,277
5,417,348166,-3869,-15998,-4082,45,-27,277
5,418,348171,-3830,-15952,-3889,44,3,281
5,419,348176,-3839,-15793,-3423,43,5,285
5,420,348181,-3923,-15748,-3353,47,-7,287
5,421,348186,-3935,-15792,-3600,55,-7,291
5,422,348191,-3839,-15792,-3568,56,12,298
5,423,348196,-3792,-15751,-3104,56,9,304
5,424,348201,-3757,-15754,-2990,60,-36,308
5,425,348206,-3789,-15799,-3360,65,-86,315
5,426,348211,-3780,-15747,-3706,64,-100,318
5,427,348216,-3786,-15569,-3477,65,-78,321
5,428,348221,-3824,-15658,-3163,67,-59,326
5,429,348226,-3763,-15855,-3318,69,-50,328
5,430,348231,-3729,-15891,-3389,70,-20,326
5,431,348236,-3779,-15818,-3052,69,20,325
5,432,348241,-3818,-15777,-2798,72,42,328
5,433,348246,-3811,-15758,-3029,74,34,333
5,434,348251,-3794,-15771,-3302,71,14,334
5,435,348256,-3773,-15780,-3090,69,-19,337
5,436,348261,-3778,-15695,-2831,68,-59,339
5,437,348266,-3826,-15686,-2976,68,-76,339
5,438,348271,-3864,-15746,-3408,75,-57,340
5,439,348276,-3760,-15743,-3570,78,-12,343
5,440,348281,-3728,-15729,-3361,77,17,342
5,441,348286,-3791,-15714,-3362,75,14,343
5,442,348291,-3768,-15774,-3666,77,1,349
5,443,348296,-3707,-15867,-3953,80,14,347
5,444,348301,-3742,-15797,-3761,77,50,344
5,445,348306,-3801,-15767,-3491,77,65,344
5,446,348311,-3841,-15778,-3565,84,58,343
5,447,348316,-3693,-15838,-3740,82,65,340
5,448,348321,-3490,-15880,-3625,84,78,343
5,449,348326,-3427,-15953,-3278,85,77,345
5,450,348331,-3526,-16053,-3086,84,55,342
5,451,348336,-3568,-16107,-3151,84,25,340
5,452,348341,-3525,-16146,-3347,85,7,337
5,453,348346,-3452,-16054,-3344,84,8,337
5,454,348351,-3546,-15990,-3230,83,-4,335
5,455,348356,-3727,-16022,-3350,84,-36,334
5,456,348361,-3758,-15902,-3663,78,-67,332
5,457,348366,-3746,-15691,-3533,73,-74,328
5,458,348371,-3811,-15679,-3250,76,-67,327
5,459,348376,-3788,-15776,-3364,83,-59,325
5,460,348381,-3693,-15802,-3495,78,-43,322
5,461,348386,-3649,-15737,-3398,72,-28,317
5,462,348391,-3665,-15742,-3080,68,-23,314
5,463,348396,-3763,-15872,-2799,64,-41,307
5,464,348401,-3719,-15907,-2867,63,-59,305
5,465,348406,-3539,-15903,-3070,63,-51,302
5,466,348411,-3472,-15888,-3049,57,-30,299
5,467,348416,-3559,-15991,-3199,54,-16,295
5,468,348421,-3530,-16090,-3409,50,-13,289
5,469,348426,-3438,-15942,-3467,43,-7,285
5,470,348431,-3453,-15805,-3378,39,0,282
5,471,348436,-3598,-15724,-3229,38,-3,275
5,472,348441,-3576,-15705,-3205,38,-19,273
5,473,348446,-3597,-15715,-3177,39,-34,268
5,474,348451,-3510,-15624,-3511,40,-41,263
5,475,348456,-3416,-15515,-3814,38,-36,259
5,476,348461,-3374,-15496,-3573,37,-38,261
5,477,348466,-3448,-15510,-3378,35,-62,256
5,478,348471,-3530,-15549,-3715,38,-82,250
5,479,348476,-3558,-15489,-4184,41,-55,243
5,480,348481,-3505,-15454,-4198,39,7,241
5,481,348486,-3508,-15449,-3656,36,47,237
5,482,348491,-3445,-15563,-3260,33,32,233
5,483,348496,-3358,-15652,-3392,35,2,226
5,484,348501,-3175,-15774,-3711,39,15,219
5,485,348506,-3202,-15745,-3495,40,56,209
5,486,348511,-3392,-15541,-3174,41,14,202
5,487,348516,-3258,-15480,-3407,38,-45,200
5,488,348521,-3129,-15454,-3617,36,-68,200
5,489,348526,-3017,-15444,-3677,39,-58,193
5,490,348531,-3033,-15499,-3794,42,-36,186
5,491,348536,-3186,-15528,-3985,42,-23,178
5,492,348541,-3106,-15455,-3861,41,-12,172
5,493,348546,-3064,-15397,-3699,37,-5,162
5,494,348551,-3096,-15378,-3612,39,7,156
5,495,348556,-2925,-15416,-3723,40,13,152
5,496,348561,-2873,-15457,-3778,41,20,144
5,497,348566,-2978,-15531,-3708,37,32,136
5,498,348571,-2950,-15571,-3602,37,37,128
5,499,348576,-2879,-15639,-3519,34,51,119
5,500,348581,-2865,-15770,-3344,30,71,108
5,501,348586,-2835,-15758,-3247,27,79,102
5,502,348591,-2806,-15605,-3195,29,78,92
5,503,348596,-2767,-15558,-3136,26,66,84
5,504,348601,-2834,-15578,-3192,22,48,76
5,505,348606,-2823,-15578,-3308,20,31,70
5,506,348611,-2666,-15601,-3467,17,15,63
5,507,348616,-2561,-15662,-3374,14,-1,54
5,508,348621,-2694,-15650,-3209,10,-27,41
5,509,348626,-2820,-15695,-3547,7,-51,32
5,510,348631,-2787,-15707,-3991,5,-40,20
5,511,348636,-2798,-15611,-3963,-1,-7,8
5,512,348641,-2852,-15628,-3685,-2,10,1
5,513,348646,-2745,-15671,-3528,-7,1,-7
5,514,348651,-2598,-15729,-3660,-7,-7,-19
5,515,348656,-2500,-15737,-3666,-8,16,-34
5,516,348661,-2636,-15782,-3566,-8,48,-48
5,517,348666,-2773,-15755,-3411,-14,58,-60
5,518,348671,-2814,-15735,-3349,-17,40,-71
5,519,348676,-2648,-15859,-3398,-20,16,-81
5,520,348681,-2626,-15992,-3577,-25,11,-93
5,521,348686,-2598,-15975,-3599,-26,16,-108
5,522,348691,-2686,-15857,-3504,-30,11,-118
5,523,348696,-2743,-15803,-3688,-34,0,-132
5,524,348701,-2813,-15770,-4005,-34,2,-146
5,525,348706,-2835,-15793,-3956,-38,21,-154
5,526,348711,-2813,-15781,-3656,-41,32,-163
5,527,348716,-2793,-15806,-3492,-41,26,-175
5,528,348721,-2759,-15795,-3609,-42,5,-188
5,529,348726,-2833,-15784,-3829,-40,-9,-199
5,530,348731,-2935,-15801,-3826,-43,-19,-211
5,531,348736,-2876,-15797,-3670,-45,-26,-219
5,532,348741,-2724,-15873,-3703,-44,-36,-229
5,533,348746,-2596,-15968,-3885,-47,-30,-240
5,534,348751,-2700,-15940,-3790,-47,0,-254
5,535,348756,-2890,-15865,-3548,-47,19,-269
5,536,348761,-2903,-15750,-3588,-50,19,-278
5,537,348766,-2900,-15716,-3805,-48,15,-288
5,538,348771,-2910,-15749,-3779,-50,14,-299
5,539,348776,-2943,-15726,-3461,-53,-4,-306
5,540,348781,-2985,-15733,-3335,-52,-41,-314
5,541,348786,-2850,-15715,-3516,-51,-76,-321
5,542,348791,-2724,-15695,-3658,-53,-83,-326
5,543,348796,-2706,-15640,-3647,-51,-82,-335
5,544,348801,-2809,-15628,-3639,-52,-94,-344
5,545,348806,-2883,-15681,-3839,-53,-106,-350
5,546,348811,-2835,-15757,-4124,-52,-100,-361
5,547,348816,-2786,-15808,-4071,-52,-53,-375
5,548,348821,-2817,-15769,-3630,-56,-6,-383
5,549,348826,-2900,-15664,-3216,-56,9,-388
5,550,348831,-2930,-15624,-3164,-51,-2,-394
5,551,348836,-2808,-15701,-3294,-53,-8,-398
5,552,348841,-2706,-15849,-3186,-58,-13,-407
5,553,348846,-2494,-15872,-3015,-57,-35,-405
5,554,348851,-2422,-15871,-3040,-59,-75,-410
5,555,348856,-2568,-15975,-3329,-60,-110,-418
5,556,348861,-2726,-15992,-3576,-61,-108,-419
5,557,348866,-2675,-15918,-3572,-61,-76,-423
5,558,348871,-2658,-15922,-3611,-64,-36,-428
5,559,348876,-2727,-15956,-3859,-64,0,-434
5,560,348881,-3235,-15622,-3567,-67,21,-445
5,561,348886,-3075,-15511,-3661,-65,13,-447
5,562,348891,-2870,-15460,-3588,-61,14,-444
5,563,348896,-2859,-15565,-3415,-61,10,-451
5,564,348901,-2874,-15606,-3387,-59,-12,-454
5,565,348906,-2922,-15555,-3518,-59,-26,-453
5,566,348911,-2971,-15571,-3604,-58,-10,-457
5,567,348916,-2993,-15605,-3435,-59,25,-463
5,568,348921,-2995,-15654,-3146,-56,52,-466
5,569,348926,-2856,-15713,-2994,-55,46,-465
5,570,348931,-2727,-15781,-2961,-58,17,-465
5,571,348936,-2778,-15770,-2802,-62,-15,-464
5,572,348941,-2834,-15777,-2647,-58,-46,-466
5,573,348946,-2788,-15848,-2830,-57,-70,-463
5,574,348951,-2789,-15918,-3110,-53,-78,-462
5,575,348956,-2790,-15925,-3178,-54,-84,-470
5,576,348961,-3126,-15693,-2986,-57,-93,-474
5,577,348966,-3393,-15516,-3064,-56,-103,-477
5,578,348971,-3343,-15414,-3419,-55,-91,-474
5,579,348976,-3344,-15373,-3509,-54,-58,-471
5,580,348981,-3448,-15232,-3194,-51,-40,-474
5,581,348986,-3353,-15138,-3271,-47,-56,-474
5,582,348991,-3159,-15156,-3481,-43,-57,-472
5,583,348996,-3176,-15015,-3410,-38,-20,-476
5,584,349001,-3263,-14692,-3288,-31,20,-476
5,585,349006,-3146,-14330,-3009,-26,33,-472
5,586,349011,-3041,-13940,-2605,-21,-2,-468
5,587,349016,-3018,-13675,-2344,-16,-75,-460
5,588,349021,-3079,-13390,-2420,-9,-152,-452
5,589,349026,-3121,-13215,-2664,1,-204,-442
5,590,349031,-3198,-13087,-2591,6,-226,-435
5,591,349036,-3261,-13013,-2303,8,-242,-428
5,592,349041,-3243,-13013,-1917,14,-270,-420
5,593,349046,-3085,-13010,-1796,20,-298,-412
5,594,349051,-2960,-12852,-2024,24,-319,-403
5,595,349056,-2797,-12838,-2467,33,-335,-395
5,596,349061,-3092,-12906,-2685,36,-354,-392
5,597,349066,-3712,-12839,-2647,40,-377,-391
5,598,349071,-4318,-12780,-3271,52,-371,-391
5,599,349076,-5095,-19343,-3313,69,-283,-396
5,600,349081,-6446,-32768,3859,124,-119,-510
5,601,349086,4005,-11687,-15815,148,139,-549
5,602,349091,-22481,2515,-17647,-93,1515,-248
5,603,349096,-32768,-16402,7489,-325,1679,-125
5,604,349101,-17637,-12021,8917,-210,-171,416
5,605,349106,5783,-17348,-10155,-56,-769,576
5,606,349111,5600,-16747,-8849,-120,867,260
5,607,349116,-3413,-16394,1821,-174,1623,204
5,608,349121,-6842,-16427,4814,-187,597,281
5,609,349126,-4199,-16296,-3818,-131,-738,363
5,610,349131,-2464,-17604,-9139,-141,-605,328
5,611,349136,-4385,-17391,-5513,-210,383,194
5,612,349141,-6014,-17345,-907,-188,749,156
5,613,349146,-5455,-17772,-2857,-150,281,186
5,614,349151,-3892,-18351,-7859,-125,-174,192
5,615,349156,-4142,-18844,-7641,-115,-38,146
5,616,349161,-5414,-18623,-4500,-105,244,93
5,617,349166,-5803,-18617,-3752,-59,249,88
5,618,349171,-5338,-18763,-5001,-25,127,88
5,619,349176,-4640,-18580,-5570,-12,116,66
5,620,349181,-4683,-18482,-4663,7,187,38
5,621,349186,-5254,-18351,-3203,29,236,9
5,622,349191,-5297,-17936,-2346,52,177,1
5,623,349196,-4592,-17210,-2716,72,40,2
5,624,349201,-4082,-16750,-2895,87,-66,2
5,625,349206,-3980,-16548,-2631,94,-150,-6
5,626,349211,-3977,-16373,-2222,105,-232,-8
5,627,349216,-3938,-16192,-2727,122,-327,-8
5,628,349221,-3885,-16004,-3231,129,-343,-13
5,629,349226,-3631,-15967,-3145,132,-306,-16
5,630,349231,-3303,-15930,-3136,133,-289,-24
5,631,349236,-3245,-16017,-2888,136,-268,-32
5,632,349241,-3263,-16081,-3154,132,-241,-43
5,633,349246,-3733,-15639,-3116,133,-84,-61
5,634,349251,-3611,-15413,-3229,130,-62,-60
5,635,349256,-3284,-15393,-2658,125,-46,-57
5,636,349261,-3004,-15307,-2197,124,-70,-55
5,637,349266,-2799,-15220,-2074,125,-86,-52
5,638,349271,-2780,-15007,-2305,128,-74,-49
5,639,349276,-2671,-15004,-2694,128,-45,-44
5,640,349281,-2578,-15068,-2444,119,-24,-38
5,641,349286,-2457,-15104,-1936,108,-63,-29
5,642,349291,-2347,-15155,-2004,102,-142,-20
5,643,349296,-2233,-15171,-2907,98,-194,-11
5,644,349301,-2305,-15175,-3515,94,-170,-4
5,645,349306,-2340,-15294,-3575,83,-138,3
5,646,349311,-2237,-15204,-3280,72,-154,11
5,647,349316,-2155,-15141,-3381,67,-188,21
5,648,349321,-2217,-15159,-3636,64,-175,26
5,649,349326,-2264,-15201,-3842,66,-120,30
5,650,349331,-2239,-15271,-3753,64,-70,39
5,651,349336,-2199,-15303,-3238,55,-40,46
5,652,349341,-2023,-15353,-3242,52,-54,57
5,653,349346,-1851,-15468,-3516,50,-55,62
5,654,349351,-1831,-15414,-3610,42,-28,66
5,655,349356,-1842,-15303,-3487,35,-3,73
5,656,349361,-2059,-15223,-3377,31,-5,78
5,657,349366,-2296,-15339,-3613,24,-21,82
5,658,349371,-2448,-15510,-4019,20,-8,86
5,659,349376,-2356,-15563,-4126,13,45,87
5,660,349381,-2225,-15555,-3636,4,100,87
5,661,349386,-2217,-15592,-3165,0,125,87
5,662,349391,-2304,-15522,-3412,-1,115,86
5,663,349396,-2427,-15389,-3970,-3,107,84
5,664,349401,-2473,-15380,-4168,-7,119,84
5,665,349406,-2347,-15371,-3843,-17,127,85
5,666,349411,-2158,-15334,-3474,-24,107,81
5,667,349416,-2015,-15260,-3411,-27,91,77
5,668,349421,-2045,-15221,-3406,-30,93,76
5,669,349426,-2149,-15276,-3190,-35,106,70
5,670,349431,-2124,-15360,-3171,-39,106,72
5,671,349436,-1941,-15398,-3315,-44,85,74
5,672,349441,-1762,-15418,-3374,-52,70,71
5,673,349446,-1856,-15520,-3402,-60,68,60
5,674,349451,-2188,-15659,-3456,-64,68,54
5,675,349456,-2437,-15699,-3478,-68,67,49
5,676,349461,-2434,-15721,-3443,-74,64,45
5,677,349466,-2494,-15786,-3358,-77,58,42
5,678,349471,-2517,-15970,-3383,-81,52,41
5,679,349476,-2345,-16044,-3363,-82,45,37
5,680,349481,-2293,-16151,-3284,-86,33,33
5,681,349486,-2414,-16124,-3307,-91,6,25
5,682,349491,-2547,-16064,-3547,-87,-20,18
5,683,349496,-2516,-16047,-4015,-88,-29,13
5,684,349501,-2447,-16006,-4026,-92,-9,7
5,685,349506,-2523,-15944,-3750,-95,10,-3
5,686,349511,-2668,-15874,-3559,-93,18,-8
5,687,349516,-2644,-15801,-3701,-93,31,-14
5,688,349521,-2489,-15855,-3856,-91,66,-19
5,689,349526,-2333,-15966,-3678,-92,103,-19
5,690,349531,-2180,-15987,-3282,-94,99,-27
5,691,349536,-2302,-15899,-3195,-94,58,-34
5,692,349541,-2495,-15858,-3565,-92,24,-37
5,693,349546,-2618,-15743,-3749,-91,34,-36
5,694,349551,-2645,-15722,-3469,-91,68,-40
5,695,349556,-2574,-15661,-3170,-88,80,-44
5,696,349561,-2465,-15637,-3226,-85,62,-45
5,697,349566,-2438,-15637,-3442,-82,37,-45
5,698,349571,-2525,-15688,-3420,-83,21,-45
5,699,349576,-2574,-15699,-3409,-82,0,-47
5,700,349581,-2327,-15696,-3416,-81,-29,-47
5,701,349586,-2370,-15673,-3359,-80,-49,-48
5,702,349591,-2734,-15681,-3485,-74,-58,-53
5,703,349596,-2821,-15623,-3794,-70,-54,-56
5,704,349601,-2640,-15503,-3993,-67,-34,-54
5,705,349606,-2438,-15500,-3884,-64,-20,-54
5,706,349611,-2507,-15589,-3615,-63,-43,-57
5,707,349616,-2657,-15526,-3552,-60,-51,-59
5,708,349621,-2756,-15467,-3582,-55,-39,-59
5,709,349626,-2771,-15513,-3654,-50,-29,-57
5,710,349631,-2596,-15614,-3688,-48,-39,-55
5,711,349636,-2407,-15634,-3413,-50,-64,-51
5,712,349641,-2324,-15716,-3277,-48,-101,-51
5,713,349646,-2473,-15865,-3533,-42,-120,-56
5,714,349651,-2865,-16002,-3603,-40,-105,-58
5,715,349656,-3069,-16085,-3322,-40,-84,-56
5,716,349661,-2790,-16091,-3306,-41,-74,-58
5,717,349666,-2555,-16118,-3448,-40,-70,-60
5,718,349671,-2589,-16039,-3295,-42,-66,-64
5,719,349676,-2739,-15930,-3199,-40,-82,-67
5,720,349681,-2770,-15871,-3412,-39,-107,-63
5,721,349686,-2836,-15816,-3548,-36,-112,-63
5,722,349691,-2886,-15732,-3461,-37,-97,-68
5,723,349696,-2839,-15652,-3429,-34,-83,-69
5,724,349701,-2737,-15591,-3652,-31,-72,-70
5,725,349706,-2718,-15521,-3770,-30,-63,-71
5,726,349711,-2706,-15451,-3615,-28,-67,-68
5,727,349716,-2618,-15428,-3468,-28,-78,-71
5,728,349721,-2568,-15433,-3736,-23,-84,-67
5,729,349726,-2606,-15529,-3741,-21,-71,-68
5,730,349731,-2630,-15645,-3499,-22,-56,-71
5,731,349736,-2588,-15696,-3527,-21,-54,-70
5,732,349741,-2639,-15825,-3778,-17,-43,-71
5,733,349746,-2808,-15872,-3855,-17,-19,-73
5,734,349751,-2839,-15863,-3575,-21,2,-74
5,735,349756,-2719,-15835,-3129,-21,-6,-72
5,736,349761,-2684,-15912,-3042,-18,-36,-66
5,737,349766,-2675,-16023,-3329,-14,-56,-67
5,738,349771,-2715,-16067,-3471,-12,-60,-68
5,739,349776,-2635,-16070,-3476,-10,-60,-63
5,740,349781,-2679,-16115,-3411,-10,-67,-61
5,741,349786,-2676,-16134,-3534,-8,-77,-62
5,742,349791,-2716,-16038,-3791,-7,-74,-59
5,743,349796,-2780,-15878,-3903,-5,-44,-59
5,744,349801,-2827,-15697,-3803,-6,-13,-60
5,745,349806,-2869,-15659,-3660,-2,-1,-55
5,746,349811,-2937,-15651,-3627,-1,1,-52
5,747,349816,-2962,-15696,-3697,3,5,-46
5,748,349821,-2963,-15718,-3648,7,11,-46
5,749,349826,-2919,-15765,-3618,9,10,-41
5,750,349831,-2716,-15818,-3650,12,-3,-35
5,751,349836,-2638,-15810,-3529,9,-17,-33
5,752,349841,-2727,-15758,-3388,9,-38,-33
5,753,349846,-2772,-15672,-3531,12,-43,-33
5,754,349851,-2692,-15616,-3731,15,-23,-27
5,755,349856,-2611,-15573,-3581,17,6,-18
5,756,349861,-2636,-15541,-3295,14,20,-19
5,757,349866,-2526,-15527,-3434,16,11,-14
5,758,349871,-2411,-15515,-3786,21,1,-8
5,759,349876,-2368,-15547,-3884,24,16,-6
5,760,349881,-2415,-15589,-3763,20,32,-4
5,761,349886,-2588,-15592,-3704,22,31,-2
5,762,349891,-2650,-15605,-3738,26,32,1
5,763,349896,-2643,-15609,-3856,29,46,3
5,764,349901,-2646,-15662,-3937,30,70,3
5,765,349906,-2552,-15747,-3690,29,74,8
5,766,349911,-2389,-15691,-3404,30,49,15
5,767,349916,-2362,-15644,-3478,32,9,16
5,768,349921,-2581,-15677,-3807,35,-12,13
5,769,349926,-2674,-15719,-4044,38,-4,18
5,770,349931,-2590,-15702,-3808,35,10,20
5,771,349936,-2532,-15719,-3531,34,9,22
5,772,349941,-2529,-15842,-3499,38,0,21
5,773,349946,-2634,-15974,-3594,39,8,16
5,774,349951,-2653,-16013,-3592,39,30,17
5,775,349956,-2624,-15969,-3462,38,49,14
5,776,349961,-2565,-16024,-3419,38,49,14
5,777,349966,-2361,-16061,-3432,33,28,11
5,778,349971,-2270,-16044,-3398,29,1,9
5,779,349976,-2549,-16116,-3406,30,-22,7
5,780,349981,-2726,-15893,-3810,30,-33,7
5,781,349986,-2664,-15834,-3693,30,-5,3
5,782,349991,-2638,-15911,-3576,28,22,-1
5,783,349996,-2606,-15980,-3651,30,30,-6
5,784,350001,-2523,-15893,-3628,28,25,-7
5,785,350006,-2478,-15767,-3478,23,11,-12
5,786,350011,-2554,-15737,-3420,26,-2,-14
5,787,350016,-2495,-15646,-3587,24,-18,-14
5,788,350021,-2435,-15619,-3871,21,-23,-15
5,789,350026,-2577,-15694,-3893,20,-24,-18
5,790,350031,-2743,-15734,-3701,16,-26,-21
5,791,350036,-2715,-15783,-3625,17,-27,-23
5,792,350041,-2536,-15842,-3735,16,-4,-28
5,793,350046,-2438,-15924,-3733,16,39,-34
5,794,350051,-2456,-15962,-3478,15,66,-40
5,795,350056,-2495,-15914,-3346,11,55,-41
5,796,350061,-2588,-15819,-3538,10,26,-42
5,797,350066,-2597,-15688,-3665,5,17,-44
5,798,350071,-2618,-15615,-3625,4,21,-40
5,799,350076,-2588,-15654,-3690,8,19,-45
5,800,350081,-2521,-15637,-3691,8,5,-41
5,801,350086,-2522,-15623,-3726,4,-15,-41
5,802,350091,-2574,-15650,-3825,5,-25,-43
5,803,350096,-2542,-15759,-3973,9,-11,-41
5,804,350101,-2356,-15852,-4020,7,22,-43
5,805,350106,-2303,-15963,-3934,6,47,-44
5,806,350111,-2381,-16035,-3702,6,44,-49
5,807,350116,-2481,-16013,-3605,3,23,-48
5,808,350121,-2567,-15954,-3740,1,18,-47
5,809,350126,-2504,-15939,-3686,-1,35,-45
5,810,350131,-2362,-15941,-3536,0,39,-41
5,811,350136,-2286,-15904,-3441,1,21,-39
5,812,350141,-2318,-15876,-3434,3,-15,-34
5,813,350146,-2418,-15881,-3703,3,-40,-29
5,814,350151,-2531,-15899,-3899,1,-37,-29
5,815,350156,-2493,-15892,-3802,-1,-19,-28
5,816,350161,-2425,-15845,-3549,-3,-13,-26
5,817,350166,-2400,-15776,-3537,-1,-20,-26
5,818,350171,-2455,-15752,-3723,-1,-12,-23
5,819,350176,-2570,-15740,-3709,0,10,-23
5,820,350181,-2552,-15755,-3614,-3,24,-21
5,821,350186,-2465,-15683,-3518,-5,19,-18
5,822,350191,-2385,-15648,-3518,-5,6,-14
5,823,350196,-2314,-15689,-3486,-4,-6,-12
5,824,350201,-2392,-15804,-3494,-3,-9,-9
5,825,350206,-2536,-15963,-3577,-4,-6,-11
5,826,350211,-2568,-15956,-3496,-8,-1,-11
5,827,350216,-2544,-15896,-3496,-8,-3,-10
5,828,350221,-2596,-15886,-3552,-11,-5,-11
5,829,350226,-2663,-15792,-3548,-10,-8,-8
5,830,350231,-2607,-15709,-3603,-8,-25,-3
5,831,350236,-2491,-15689,-3716,-7,-37,-3
5,832,350241,-2488,-15669,-3738,-6,-44,0
5,833,350246,-2443,-15568,-3800,-5,-43,0
5,834,350251,-2444,-15554,-4005,-3,-34,-2
5,835,350256,-2420,-15536,-4036,-4,-11,-3
5,836,350261,-2474,-15525,-3848,-3,8,-4
5,837,350266,-2521,-15562,-3602,-4,14,-6
5,838,350271,-2372,-15600,-3674,-3,16,-3
5,839,350276,-2298,-15687,-3845,-1,37,-3
5,840,350281,-2369,-15692,-3753,1,57,-6
5,841,350286,-2641,-15672,-3496,1,58,-8
5,842,350291,-2854,-15636,-3564,3,34,-7
5,843,350296,-2784,-15654,-3859,6,25,-3
5,844,350301,-2672,-15759,-3872,6,40,-2
5,845,350306,-2621,-15840,-3517,6,56,-5
5,846,350311,-2547,-15919,-3434,9,40,-2
5,847,350316,-2413,-15897,-3704,14,23,-3
5,848,350321,-2433,-15934,-3972,13,32,-4
5,849,350326,-2525,-15889,-3963,11,58,-5
5,850,350331,-2467,-15837,-3792,14,79,-5
5,851,350336,-2372,-15753,-3761,15,89,-7
5,852,350341,-2398,-15628,-3680,17,88,-6
5,853,350346,-2423,-15709,-3609,18,89,-1
5,854,350351,-2220,-15758,-3399,20,94,0
5,855,350356,-2070,-15782,-3231,22,80,2
5,856,350361,-1981,-15853,-3447,22,55,5
5,857,350366,-2198,-15883,-3549,19,33,4
5,858,350371,-2569,-15866,-3580,19,22,3
5,859,350376,-2649,-15817,-3717,19,23,8
5,860,350381,-2501,-15798,-3685,20,44,11
5,861,350386,-2425,-15731,-3350,17,61,11
5,862,350391,-2390,-15783,-3250,20,48,15
5,863,350396,-2342,-15864,-3489,21,15,15
5,864,350401,-2341,-15928,-3590,21,-20,17
5,865,350406,-2409,-15914,-3565,19,-40,17
5,866,350411,-2520,-15918,-3694,19,-42,17
5,867,350416,-2531,-15874,-3899,19,-29,12
5,868,350421,-2626,-15851,-3862,15,-8,11
5,869,350426,-2638,-15826,-3684,12,6,12
5,870,350431,-2493,-15842,-3541,12,16,11
5,871,350436,-2358,-15922,-3601,15,25,10
5,872,350441,-2379,-15931,-3529,14,42,6
5,873,350446,-2390,-15946,-3365,12,38,6
5,874,350451,-2401,-15884,-3307,9,17,3
5,875,350456,-2401,-15941,-3420,6,-4,3
5,876,350461,-2357,-15977,-3413,5,-8,5
5,877,350466,-2281,-16024,-3389,6,2,3
5,878,350471,-2365,-16042,-3475,4,16,0
5,879,350476,-2399,-15980,-3569,1,22,0
5,880,350481,-2478,-15876,-3570,-5,22,-2
5,881,350486,-2441,-15804,-3454,-6,13,1
5,882,350491,-2458,-15849,-3367,-7,4,-1
5,883,350496,-2404,-15932,-3517,-7,-9,1
5,884,350501,-2396,-15973,-3703,-2,-24,-1
5,885,350506,-2401,-15924,-3750,-3,-39,-4
5,886,350511,-2454,-15856,-3671,-6,-51,-4
5,887,350516,-2442,-15756,-3822,-7,-52,-4
5,888,350521,-2466,-15768,-4148,-6,-26,-9
5,889,350526,-2493,-15785,-4231,-4,20,-10
5,890,350531,-2465,-15791,-3956,-7,55,-10
5,891,350536,-2464,-15826,-3804,-5,68,-13
5,892,350541,-2364,-15852,-3847,-5,74,-14
5,893,350546,-2387,-15827,-3741,-5,93,-17
5,894,350551,-2399,-15906,-3473,-4,100,-16
5,895,350556,-2301,-15901,-3292,-3,83,-14
5,896,350561,-2117,-15860,-3442,-4,53,-13
5,897,350566,-2108,-15805,-3447,-5,29,-14
5,898,350571,-2322,-15803,-3273,-8,16,-15
5,899,350576,-2384,-15788,-3227,-7,0,-13
5,900,350581,-2331,-15715,-3346,-5,-7,-13
5,901,350586,-2331,-15715,-3458,-6,-9,-11
5,902,350591,-2302,-15775,-3580,-8,-16,-11
5,903,350596,-2289,-15780,-3715,-7,-29,-8
5,904,350601,-2409,-15746,-3894,-7,-33,-8
5,905,350606,-2560,-15721,-4013,-4,-21,-9
5,906,350611,-2588,-15726,-3971,-4,4,-10
5,907,350616,-2489,-15807,-3714,-4,33,-8
5,908,350621,-2461,-15836,-3485,-2,43,-9
5,909,350626,-2453,-15873,-3498,1,31,-9
5,910,350631,-2421,-15897,-3549,2,18,-9
5,911,350636,-2460,-15872,-3469,1,6,-9
5,912,350641,-2294,-15922,-3532,1,-15,-7
5,913,350646,-2122,-15960,-3669,4,-30,-6
5,914,350651,-2156,-15965,-3827,3,-26,-6
5,915,350656,-2397,-15969,-3891,3,-6,-8
5,916,350661,-2560,-15895,-3986,6,22,-16
5,917,350666,-2577,-15815,-3949,5,59,-11
5,918,350671,-2597,-15757,-3672,3,92,-11
5,919,350676,-2489,-15767,-3370,3,97,-11
5,920,350681,-2416,-15792,-3229,7,70,-8
5,921,350686,-2264,-15856,-3381,9,37,-7
5,922,350691,-2264,-15807,-3463,9,10,-6
5,923,350696,-2439,-15667,-3372,9,-14,-7
5,924,350701,-2529,-15600,-3417,9,-32,-5
5,925,350706,-2587,-15614,-3710,11,-28,-2
5,926,350711,-2456,-15619,-3756,11,26,-6
5,927,350716,-2448,-15556,-3673,10,35,-3
5,928,350721,-2455,-15637,-3767,8,29,-3
5,929,350726,-2472,-15715,-3614,6,30,-8
5,930,350731,-2521,-15734,-3341,3,35,-10
5,931,350736,-2457,-15743,-3251,7,36,-6
5,932,350741,-2436,-15793,-3331,9,27,-5
5,933,350746,-2424,-15855,-3444,8,15,-3
5,934,350751,-2346,-15866,-3377,4,-1,-3
5,935,350756,-2343,-15865,-3368,5,-19,-2
5,936,350761,-2420,-15893,-3540,7,-30,0
5,937,350766,-2411,-15845,-3734,8,-18,0
5,938,350771,-2415,-15786,-3662,7,6,0
5,939,350776,-2544,-15802,-3462,3,16,1
5,940,350781,-2475,-15871,-3473,5,13,0
5,941,350786,-2287,-15946,-3772,6,13,4
5,942,350791,-2171,-15979,-3842,6,24,1
5,943,350796,-2316,-15951,-3505,1,23,-1
5,944,350801,-2512,-15841,-3394,1,-3,-2
5,945,350806,-2593,-15783,-3587,4,-29,1
5,946,350811,-2622,-15727,-3853,4,-25,3
5,947,350816,-2523,-15786,-3810,7,5,4
5,948,350821,-2454,-15826,-3652,7,27,2
5,949,350826,-2493,-15822,-3498,5,15,1
5,950,350831,-2505,-15756,-3520,5,-4,0
5,951,350836,-2521,-15759,-3574,1,4,0
5,952,350841,-2498,-15685,-3524,4,32,1
5,953,350846,-2521,-15753,-3433,6,42,2
5,954,350851,-2522,-15778,-3402,4,29,3
5,955,350856,-2486,-15725,-3401,4,2,2
5,956,350861,-2448,-15656,-3533,2,-16,0
5,957,350866,-2514,-15714,-3659,1,-4,-1
5,958,350871,-2564,-15761,-3727,4,18,0
5,959,350876,-2500,-15842,-3734,3,25,0
5,960,350881,-2440,-15842,-3802,3,24,0
5,961,350886,-2414,-15867,-3860,3,23,-2
5,962,350891,-2423,-15952,-3899,2,31,-6
5,963,350896,-2381,-16009,-3917,5,46,-7
5,964,350901,-2357,-16089,-3876,5,64,-9
5,965,350906,-2423,-16114,-3750,5,72,-10
5,966,350911,-2467,-16122,-3605,5,64,-10
5,967,350916,-2381,-16075,-3477,4,47,-8
5,968,350921,-2350,-16114,-3442,5,27,-7
5,969,350926,-2285,-16075,-3343,6,10,-7
5,970,350931,-2326,-15977,-3219,4,-15,-8
5,971,350936,-2379,-15875,-3234,4,-43,-3
5,972,350941,-2460,-15908,-3454,8,-59,-6
5,973,350946,-2434,-15963,-3537,8,-58,-5
5,974,350951,-2376,-15893,-3577,7,-35,-8
5,975,350956,-2337,-15786,-3613,3,-9,-8
5,976,350961,-2372,-15775,-3576,1,9,-11
5,977,350966,-2508,-15716,-3487,-1,15,-14
5,978,350971,-2453,-15728,-3608,1,12,-14
5,979,350976,-2336,-15825,-3869,4,18,-11
5,980,350981,-2200,-15839,-3871,2,28,-15
5,981,350986,-2212,-15831,-3752,-2,23,-16
5,982,350991,-2387,-15846,-3808,3,7,-17
5,983,350996,-2531,-15796,-3956,4,3,-17
5,984,351001,-2423,-15789,-3974,5,23,-16
5,985,351006,-2254,-15783,-3862,5,53,-15
5,986,351011,-2184,-15851,-3686,5,65,-18
5,987,351016,-2206,-15942,-3443,3,43,-17
5,988,351021,-2207,-15894,-3389,4,5,-15
5,989,351026,-2249,-15828,-3438,9,-16,-15
5,990,351031,-2261,-15848,-3398,7,-7,-14
5,991,351036,-2126,-15945,-3403,7,12,-11
5,992,351041,-2033,-16030,-3458,10,22,-9
5,993,351046,-2044,-16017,-3385,6,14,-11
5,994,351051,-2235,-15954,-3348,1,-4,-6
5,995,351056,-2359,-15951,-3495,1,-12,-9
5,996,351061,-2362,-15900,-3742,4,12,-8
5,997,351066,-2249,-15907,-3646,3,42,-2
5,998,351071,-2197,-15928,-3382,3,50,-2
5,999,351076,-2205,-15904,-3327,5,29,-4
