event_id,seq,ts_ms,ax,ay,az,gx,gy,gz
3,0,314077,2108,-16198,-826,10,-8,-35
3,1,314082,2192,-16128,-820,11,-15,-35
3,2,314087,2176,-16154,-740,13,-21,-37
3,3,314092,2154,-16141,-754,12,-27,-36
3,4,314097,2079,-16145,-809,15,-31,-34
3,5,314102,2024,-16193,-827,17,-37,-32
3,6,314107,1994,-16186,-840,14,-47,-31
3,7,314112,1986,-16208,-925,17,-51,-30
3,8,314117,1934,-16243,-987,17,-54,-30
3,9,314122,1885,-16240,-1051,18,-52,-31
3,10,314127,1855,-16242,-1202,19,-47,-33
3,11,314132,1841,-16254,-1245,19,-42,-33
3,12,314137,1865,-16268,-1268,17,-29,-32
3,13,314142,1893,-16242,-1276,16,-11,-34
3,14,314147,1895,-16247,-1216,19,7,-35
3,15,314152,1863,-16277,-1178,19,19,-36
3,16,314157,1917,-16275,-1090,17,26,-38
3,17,314162,1928,-16258,-988,17,30,-38
3,18,314167,2023,-16277,-934,18,29,-37
3,19,314172,2100,-16266,-864,17,24,-37
3,20,314177,2043,-16298,-761,18,16,-35
3,21,314182,1978,-16303,-792,21,4,-37
3,22,314187,1947,-16303,-867,25,-6,-35
3,23,314192,2004,-16314,-870,24,-6,-34
3,24,314197,2067,-16298,-880,24,-2,-33
3,25,314202,2083,-16263,-949,26,-1,-33
3,26,314207,2023,-16334,-957,26,0,-33
3,27,314212,2006,-16363,-945,24,5,-32
3,28,314217,1958,-16332,-1006,23,8,-33
3,29,314222,1924,-16314,-1012,23,21,-34
3,30,314227,1895,-16334,-955,23,24,-33
3,31,314232,1923,-16321,-1022,24,16,-33
3,32,314237,1961,-16312,-1085,25,9,-31
3,33,314242,1986,-16337,-1063,22,5,-30
3,34,314247,1952,-16353,-1040,21,2,-34
3,35,314252,1984,-16342,-990,23,-1,-33
3,36,314257,2095,-16375,-977,24,-4,-31
3,37,314262,2117,-16360,-967,23,-7,-35
3,38,314267,2098,-16334,-930,25,-4,-32
3,39,314272,2045,-16318,-839,23,-6,-30
3,40,314277,2044,-16305,-739,22,-16,-29
3,41,314282,2094,-16309,-738,23,-27,-26
3,42,314287,2163,-16348,-736,21,-33,-25
3,43,314292,2130,-16353,-835,23,-38,-25
3,44,314297,2044,-16343,-928,22,-44,-22
3,45,314302,2065,-16341,-907,22,-45,-20
3,46,314307,2120,-16331,-977,24,-46,-20
3,47,314312,2069,-16371,-1045,21,-44,-20
3,48,314317,2025,-16389,-1072,24,-45,-21
3,49,314322,2014,-16370,-1047,24,-46,-19
3,50,314327,1952,-16438,-1101,23,-40,-18
3,51,314332,1990,-16428,-1064,22,-35,-19
3,52,314337,2044,-16469,-1066,23,-30,-16
3,53,314342,2027,-16452,-1019,23,-26,-17
3,54,314347,1966,-16450,-945,20,-20,-18
3,55,314352,1958,-16435,-910,20,-13,-17
3,56,314357,1922,-16414,-914,21,-9,-18
3,57,314362,1926,-16403,-962,19,-3,-14
3,58,314367,1981,-16384,-990,17,-3,-15
3,59,314372,2054,-16346,-993,16,-1,-15
3,60,314377,2073,-16315,-1036,17,6,-13
3,61,314382,2041,-16326,-1058,19,6,-12
3,62,314387,2049,-16283,-990,16,10,-16
3,63,314392,2064,-16234,-946,15,10,-11
3,64,314397,2021,-16196,-915,15,7,-10
3,65,314402,2022,-16172,-879,19,-3,-8
3,66,314407,2020,-16183,-918,19,-14,-6
3,67,314412,2004,-16179,-958,17,-27,-9
3,68,314417,2000,-16171,-542,19,-49,-4
3,69,314422,2207,-16291,-1211,26,-107,-2
3,70,314427,2128,-16245,-1596,24,-76,-4
3,71,314432,1804,-16347,-940,20,-40,0
3,72,314437,2001,-16446,-1154,20,-36,0
3,73,314442,2057,-16441,-963,18,-27,0
3,74,314447,2033,-16423,-1008,15,-28,-2
3,75,314452,1826,-16353,-852,15,-24,-4
3,76,314457,1809,-16341,-848,18,-20,-1
3,77,314462,1899,-16359,-976,14,-20,-1
3,78,314467,2063,-16340,-931,14,-19,0
3,79,314472,2092,-16336,-889,12,-21,1
3,80,314477,2044,-16282,-874,11,-28,-1
3,81,314482,1922,-16276,-934,12,-26,-1
3,82,314487,1942,-16240,-1060,14,-23,1
3,83,314492,2064,-16211,-1188,17,-17,6
3,84,314497,2157,-16179,-1151,12,-10,3
3,85,314502,2095,-16146,-1155,10,-6,3
3,86,314507,1975,-16134,-1007,9,-1,3
3,87,314512,1925,-16178,-980,11,1,1
3,88,314517,2031,-16191,-1000,11,2,4
3,89,314522,2111,-16234,-1073,10,1,8
3,90,314527,2083,-16300,-1074,11,-2,4
3,91,314532,1999,-16320,-948,9,-5,4
3,92,314537,1897,-16349,-950,9,-9,7
3,93,314542,1890,-16331,-891,8,-6,8
3,94,314547,1972,-16379,-933,9,-1,9
3,95,314552,2049,-16439,-1020,10,-1,8
3,96,314557,2033,-16472,-995,4,-1,7
3,97,314562,1981,-16440,-918,5,0,7
3,98,314567,1968,-16376,-878,3,5,8
3,99,314572,2063,-16375,-851,5,8,10
3,100,314577,2133,-16400,-941,2,11,9
3,101,314582,2082,-16403,-935,-2,10,7
3,102,314587,2021,-16389,-881,-4,4,7
3,103,314592,1996,-16390,-878,-4,2,8
3,104,314597,2037,-16319,-899,-4,2,8
3,105,314602,2130,-16333,-933,-5,4,8
3,106,314607,2171,-16359,-916,-3,5,10
3,107,314612,2117,-16407,-870,-4,2,10
3,108,314617,2084,-16351,-778,-6,-6,11
3,109,314622,2009,-16337,-697,-5,-14,11
3,110,314627,1928,-16390,-771,-2,-24,11
3,111,314632,1953,-16438,-903,-4,-34,12
3,112,314637,1962,-16402,-912,-5,-43,10
3,113,314642,1967,-16332,-939,-4,-50,10
3,114,314647,2000,-16356,-972,-6,-50,10
3,115,314652,1988,-16369,-993,-9,-49,10
3,116,314657,1993,-16355,-1006,-11,-48,8
3,117,314662,2023,-16378,-1019,-10,-46,8
3,118,314667,2022,-16314,-976,-10,-41,11
3,119,314672,2154,-16276,-1003,-13,-33,9
3,120,314677,2202,-16266,-788,-14,-19,8
3,121,314682,2146,-16365,-670,-13,-24,8
3,122,314687,1991,-16364,-705,-14,-40,6
3,123,314692,1934,-16346,-748,-14,-57,8
3,124,314697,1933,-16387,-748,-15,-68,7
3,125,314702,2050,-16409,-925,-13,-69,10
3,126,314707,2082,-16378,-894,-13,-61,10
3,127,314712,2077,-16353,-999,-11,-60,10
3,128,314717,1931,-16330,-1172,-9,-60,9
3,129,314722,1908,-16328,-1215,-13,-53,8
3,130,314727,1934,-16291,-1211,-12,-46,7
3,131,314732,1998,-16266,-1134,-12,-41,6
3,132,314737,2013,-16242,-1102,-9,-34,7
3,133,314742,2001,-16262,-1170,-10,-31,5
3,134,314747,1939,-16328,-1196,-11,-28,1
3,135,314752,1904,-16347,-1132,-14,-13,0
3,136,314757,1890,-16354,-919,-13,-3,0
3,137,314762,2015,-16363,-992,-11,-4,0
3,138,314767,2099,-16370,-947,-15,3,-1
3,139,314772,2079,-16309,-951,-13,7,-3
3,140,314777,2029,-16336,-949,-10,11,-3
3,141,314782,1987,-16293,-933,-11,13,-4
3,142,314787,2080,-16282,-847,-12,14,-4
3,143,314792,2161,-16296,-783,-13,12,-1
3,144,314797,2199,-16292,-760,-12,4,-4
3,145,314802,2133,-16296,-953,-10,-3,-3
3,146,314807,2081,-16265,-1036,-9,3,-1
3,147,314812,2076,-16257,-859,-11,7,-1
3,148,314817,2143,-16290,-921,-9,-3,-2
3,149,314822,2185,-16359,-952,-9,-6,0
3,150,314827,2133,-16362,-908,-11,-14,-2
3,151,314832,1973,-16348,-915,-11,-22,-5
3,152,314837,1935,-16298,-861,-10,-28,-5
3,153,314842,1977,-16312,-862,-5,-37,-4
3,154,314847,2014,-16316,-906,-7,-47,-6
3,155,314852,1989,-16358,-947,-9,-50,-8
3,156,314857,1946,-16404,-950,-9,-55,-6
3,157,314862,1946,-16382,-1027,-9,-54,-7
3,158,314867,2004,-16346,-1160,-6,-42,-7
3,159,314872,1994,-16349,-968,-6,-16,-8
3,160,314877,2019,-16370,-1029,-8,-10,-9
3,161,314882,2085,-16359,-1078,-7,-10,-11
3,162,314887,2068,-16327,-960,-8,-6,-11
3,163,314892,2084,-16265,-885,-8,0,-13
3,164,314897,2138,-16258,-801,-5,1,-12
3,165,314902,2197,-16229,-773,-5,-5,-12
3,166,314907,2194,-16213,-833,-5,-10,-9
3,167,314912,2128,-16303,-960,-4,-22,-9
3,168,314917,2128,-16315,-965,-3,-27,-9
3,169,314922,2121,-16330,-1003,-1,-25,-6
3,170,314927,2145,-16345,-1095,1,-18,-7
3,171,314932,2115,-16350,-1215,1,-4,-7
3,172,314937,2058,-16397,-1008,0,12,-9
3,173,314942,2009,-16436,-961,2,15,-6
3,174,314947,1985,-16485,-911,-1,14,-8
3,175,314952,2003,-16470,-803,-3,12,-8
3,176,314957,1964,-16448,-814,-2,8,-9
3,177,314962,1892,-16415,-897,1,0,-11
3,178,314967,1927,-16387,-971,-1,-5,-11
3,179,314972,2058,-16358,-1005,-1,-12,-9
3,180,314977,2138,-16301,-1039,-2,-14,-13
3,181,314982,2113,-16196,-919,-3,-5,-14
3,182,314987,2076,-16201,-919,-2,-6,-13
3,183,314992,2105,-16197,-959,-2,-9,-10
3,184,314997,2150,-16226,-941,-1,-9,-11
3,185,315002,2231,-16244,-952,1,-11,-10
3,186,315007,2170,-16212,-828,1,-17,-9
3,187,315012,2182,-16224,-768,1,-23,-7
3,188,315017,2190,-16243,-765,3,-29,-5
3,189,315022,2152,-16323,-793,8,-36,-3
3,190,315027,2142,-16364,-866,9,-43,-2
3,191,315032,2039,-16415,-962,7,-44,-2
3,192,315037,1975,-16494,-900,8,-39,-2
3,193,315042,1981,-16488,-959,9,-40,-3
3,194,315047,2047,-16457,-1073,8,-37,-4
3,195,315052,2003,-16455,-1130,7,-30,-4
3,196,315057,1952,-16430,-1119,5,-25,-3
3,197,315062,1973,-16418,-1053,2,-20,-8
3,198,315067,1970,-16420,-956,1,-18,-10
3,199,315072,1998,-16332,-992,1,-14,-8
3,200,315077,1981,-16309,-902,0,-4,-10
3,201,315082,1989,-16247,-888,4,-5,-9
3,202,315087,2002,-16221,-1016,3,-14,-7
3,203,315092,2008,-16216,-1064,1,-18,-5
3,204,315097,2041,-16207,-1026,4,-18,-4
3,205,315102,2064,-16199,-1105,6,-14,-8
3,206,315107,2068,-16221,-1128,8,-11,-5
3,207,315112,2103,-16221,-1063,9,-7,-6
3,208,315117,2026,-16278,-1037,9,-2,-8
3,209,315122,2006,-16340,-930,13,-1,-8
3,210,315127,1980,-16312,-955,14,1,-5
3,211,315132,1992,-16294,-996,11,3,-8
3,212,315137,1997,-16332,-994,14,8,-6
3,213,315142,2109,-16381,-953,12,12,-8
3,214,315147,2131,-16353,-890,14,15,-8
3,215,315152,2075,-16290,-805,11,17,-7
3,216,315157,2013,-16281,-734,8,14,-8
3,217,315162,1981,-16267,-755,6,7,-9
3,218,315167,2030,-16341,-914,7,-4,-8
3,219,315172,2082,-16264,-985,3,-10,-7
3,220,315177,2075,-16234,-961,5,-13,-8
3,221,315182,2055,-16215,-998,5,-17,-9
3,222,315187,2011,-16196,-1021,4,-14,-9
3,223,315192,1985,-16193,-1070,8,-13,-7
3,224,315197,2058,-16228,-1034,6,-15,-6
3,225,315202,2067,-16210,-946,8,-13,-4
3,226,315207,2075,-16237,-928,7,-10,-7
3,227,315212,2073,-16227,-901,9,-10,-7
3,228,315217,2116,-16209,-877,10,-7,-5
3,229,315222,2120,-16236,-876,11,-8,-5
3,230,315227,2035,-16265,-886,5,-10,-4
3,231,315232,2045,-16289,-921,8,-15,-4
3,232,315237,2071,-16275,-936,7,-10,-3
3,233,315242,2051,-16334,-932,4,-5,-7
3,234,315247,2074,-16358,-1055,3,2,-6
3,235,315252,2139,-16333,-1063,3,6,-7
3,236,315257,2047,-16320,-1036,-1,15,-8
3,237,315262,1928,-16299,-939,3,19,-5
3,238,315267,1922,-16325,-820,2,18,-4
3,239,315272,1984,-16376,-868,2,11,-3
3,240,315277,2117,-16389,-911,5,8,-4
3,241,315282,2118,-16356,-874,2,1,-6
3,242,315287,1980,-16321,-863,3,-11,-5
3,243,315292,1891,-16322,-875,4,-21,-3
3,244,315297,1916,-16357,-971,6,-26,-3
3,245,315302,2056,-16355,-1007,6,-30,-2
3,246,315307,2096,-16324,-1002,7,-36,-3
3,247,315312,2129,-16343,-984,7,-36,-2
3,248,315317,2078,-16397,-923,6,-31,-3
3,249,315322,2043,-16428,-839,5,-30,-5
3,250,315327,2040,-16416,-845,7,-31,-1
3,251,315332,2109,-16413,-848,5,-31,0
3,252,315337,2099,-16408,-821,5,-29,0
3,253,315342,2098,-16414,-806,2,-28,-1
3,254,315347,2053,-16415,-803,3,-27,2
3,255,315352,2038,-16388,-830,0,-23,2
3,256,315357,2080,-16368,-873,2,-23,3
3,257,315362,2089,-16338,-895,3,-22,4
3,258,315367,2088,-16324,-916,2,-20,4
3,259,315372,2004,-16363,-960,0,-20,5
3,260,315377,2020,-16366,-980,-1,-16,4
3,261,315382,2037,-16320,-969,0,-14,4
3,262,315387,2094,-16343,-924,1,-13,2
3,263,315392,2055,-16357,-953,3,-14,3
3,264,315397,1980,-16358,-969,2,-16,4
3,265,315402,1978,-16320,-987,2,-18,5
3,266,315407,2028,-16311,-986,1,-22,5
3,267,315412,2090,-16325,-937,0,-22,4
3,268,315417,2144,-16344,-948,4,-27,6
3,269,315422,2034,-16357,-959,2,-28,4
3,270,315427,1958,-16358,-1005,2,-30,5
3,271,315432,1908,-16355,-989,2,-32,4
3,272,315437,1977,-16316,-989,1,-33,4
3,273,315442,2008,-16280,-982,0,-30,6
3,274,315447,1989,-16332,-953,3,-27,5
3,275,315452,1949,-16332,-1019,2,-24,3
3,276,315457,1916,-16334,-1022,-1,-20,3
3,277,315462,1934,-16325,-1006,1,-16,5
3,278,315467,1958,-16301,-1052,1,-13,3
3,279,315472,2057,-16323,-1021,2,-8,2
3,280,315477,2079,-16305,-983,0,-2,3
3,281,315482,2065,-16283,-972,0,3,2
3,282,315487,2066,-16326,-982,3,6,5
3,283,315492,2006,-16325,-959,1,8,5
3,284,315497,1955,-16301,-898,2,6,5
3,285,315502,2000,-16280,-855,0,4,4
3,286,315507,2042,-16296,-827,-1,6,6
3,287,315512,2072,-16274,-798,-3,5,7
3,288,315517,2046,-16243,-842,-5,2,6
3,289,315522,1993,-16235,-896,-2,-7,5
3,290,315527,1960,-16272,-966,-4,-10,3
3,291,315532,1987,-16260,-934,-5,-15,6
3,292,315537,1906,-16213,-990,-4,-21,7
3,293,315542,1852,-16248,-1019,-6,-22,6
3,294,315547,1903,-16252,-1060,-3,-25,6
3,295,315552,1885,-16325,-1040,-5,-25,6
3,296,315557,1942,-16368,-1018,-6,-20,2
3,297,315562,1997,-16339,-947,-5,-19,3
3,298,315567,1920,-16331,-902,-6,-20,4
3,299,315572,1935,-16359,-929,-3,-16,6
3,300,315577,1966,-16367,-924,-1,-15,7
3,301,315582,1976,-16355,-922,-3,-14,5
3,302,315587,1991,-16318,-908,-1,-15,4
3,303,315592,1971,-16298,-921,-2,-15,4
3,304,315597,1967,-16304,-1017,-2,-14,3
3,305,315602,1973,-16303,-1056,-5,-14,3
3,306,315607,2030,-16294,-1111,-5,-11,5
3,307,315612,2005,-16372,-1074,-7,-9,5
3,308,315617,1962,-16318,-1017,-6,-8,3
3,309,315622,1891,-16326,-979,-5,-6,4
3,310,315627,1877,-16359,-1047,-4,-3,7
3,311,315632,1930,-16361,-1077,-4,-5,2
3,312,315637,1924,-16377,-1055,-4,-7,4
3,313,315642,1975,-16350,-1023,-4,-4,4
3,314,315647,1970,-16331,-959,-2,-5,5
3,315,315652,1946,-16323,-1029,-1,-1,6
3,316,315657,1988,-16326,-1104,-2,3,6
3,317,315662,2037,-16369,-1065,1,4,8
3,318,315667,2044,-16344,-1028,1,7,6
3,319,315672,2070,-16325,-951,-4,8,7
3,320,315677,2043,-16372,-847,-4,10,8
3,321,315682,2040,-16395,-840,1,13,8
3,322,315687,2058,-16386,-847,-1,11,8
3,323,315692,2043,-16389,-874,-4,7,6
3,324,315697,2054,-16404,-846,-4,6,9
3,325,315702,2029,-16469,-860,-1,2,10
3,326,315707,2077,-16493,-872,-4,-5,9
3,327,315712,2024,-16438,-914,-3,-6,11
3,328,315717,2037,-16437,-958,-2,-6,11
3,329,315722,2050,-16415,-959,-3,-8,11
3,330,315727,2061,-16398,-1002,-4,-10,13
3,331,315732,2032,-16379,-1005,-2,-14,13
3,332,315737,1999,-16384,-1012,-4,-15,13
3,333,315742,2018,-16373,-999,-4,-17,12
3,334,315747,2018,-16358,-1006,-4,-16,11
3,335,315752,2049,-16336,-971,-5,-13,13
3,336,315757,2046,-16320,-898,-6,-13,12
3,337,315762,2029,-16286,-882,-5,-11,13
3,338,315767,2018,-16299,-834,-2,-11,15
3,339,315772,1988,-16308,-776,-2,-12,15
3,340,315777,2074,-16254,-824,-5,-19,14
3,341,315782,2070,-16223,-924,-5,-25,13
3,342,315787,2068,-16274,-886,-2,-31,17
3,343,315792,2051,-16251,-952,-1,-33,13
3,344,315797,2020,-16297,-967,-4,-35,14
3,345,315802,1996,-16330,-1009,-5,-34,15
3,346,315807,2011,-16335,-1038,-4,-34,16
3,347,315812,2031,-16312,-1028,-4,-30,13
3,348,315817,1989,-16318,-1051,-2,-31,15
3,349,315822,1896,-16317,-1080,0,-33,15
3,350,315827,1842,-16309,-1085,-5,-31,12
3,351,315832,1843,-16357,-1048,-5,-33,14
3,352,315837,1876,-16328,-1035,-8,-28,12
3,353,315842,1972,-16297,-1033,-9,-19,10
3,354,315847,2021,-16294,-975,-8,-14,9
3,355,315852,1977,-16359,-972,-8,-6,8
3,356,315857,1858,-16296,-738,-10,1,6
3,357,315862,1895,-16356,-803,-7,-9,9
3,358,315867,1973,-16323,-852,-10,-13,11
3,359,315872,2032,-16354,-854,-10,-13,10
3,360,315877,2004,-16295,-917,-11,-13,7
3,361,315882,1943,-16251,-895,-10,-10,10
3,362,315887,1924,-16266,-1000,-7,-15,9
3,363,315892,1995,-16303,-1041,-7,-19,9
3,364,315897,2028,-16304,-1017,-5,-19,9
3,365,315902,1899,-16284,-967,-8,-36,9
3,366,315907,1829,-16242,-623,-8,-51,7
3,367,315912,1969,-16291,-1232,-5,-88,10
3,368,315917,1913,-16282,-1239,-7,-63,8
3,369,315922,1823,-16301,-901,-8,-44,9
3,370,315927,1744,-16256,-1089,-7,-54,10
3,371,315932,1766,-16245,-1171,-4,-54,8
3,372,315937,1786,-16272,-1195,-10,-46,8
3,373,315942,1830,-16255,-1339,-7,-35,5
3,374,315947,1732,-16254,-1106,-8,-15,5
3,375,315952,1760,-16246,-1013,-6,-12,7
3,376,315957,1806,-16266,-1148,-4,-13,8
3,377,315962,1874,-16269,-960,-7,-1,7
3,378,315967,1849,-16286,-866,-6,-5,5
3,379,315972,1769,-16293,-916,-4,-14,7
3,380,315977,1641,-16262,-895,-7,-18,11
3,381,315982,1529,-16252,-979,-7,-20,12
3,382,315987,1605,-16214,-994,-10,-16,18
3,383,315992,1888,-16233,-942,-12,0,22
3,384,315997,2009,-16270,-866,-13,17,25
3,385,316002,2014,-16309,-916,-17,35,31
3,386,316007,1933,-16402,-826,-18,52,35
3,387,316012,1828,-16504,-759,-18,64,38
3,388,316017,1582,-16503,-735,-21,69,41
3,389,316022,1473,-16480,-786,-24,65,48
3,390,316027,1581,-16454,-938,-32,66,54
3,391,316032,1607,-16468,-945,-31,66,57
3,392,316037,1469,-16410,-1112,-29,58,61
3,393,316042,1208,-16348,-1380,-29,44,66
3,394,316047,949,-16342,-1590,-31,31,71
3,395,316052,893,-16251,-1616,-36,25,79
3,396,316057,993,-16183,-1580,-42,30,87
3,397,316062,1023,-16218,-1579,-41,32,95
3,398,316067,799,-16259,-1638,-43,33,101
3,399,316072,706,-16259,-1847,-44,38,112
3,400,316077,1004,-16235,-1805,-49,59,126
3,401,316082,1257,-16250,-1443,-59,90,134
3,402,316087,1325,-16305,-1158,-63,102,141
3,403,316092,1254,-16295,-1070,-65,98,153
3,404,316097,1137,-16259,-1222,-62,109,167
3,405,316102,917,-16222,-511,-68,113,178
3,406,316107,889,-16170,-369,-78,42,191
3,407,316112,996,-16170,-841,-76,-18,209
3,408,316117,937,-16102,-958,-80,-49,221
3,409,316122,838,-16057,-1104,-82,-86,232
3,410,316127,718,-16047,-1251,-85,-116,249
3,411,316132,682,-16113,-1486,-89,-134,268
3,412,316137,700,-16141,-1383,-94,-147,285
3,413,316142,879,-16192,-1677,-109,-172,294
3,414,316147,654,-16232,-1860,-110,-146,308
3,415,316152,425,-16260,-1786,-117,-123,324
3,416,316157,452,-16175,-1826,-129,-113,337
3,417,316162,722,-16109,-1779,-135,-91,356
3,418,316167,801,-16137,-1598,-140,-76,373
3,419,316172,687,-16152,-1468,-148,-73,388
3,420,316177,439,-16101,-1352,-157,-76,398
3,421,316182,333,-16100,-1334,-162,-93,414
3,422,316187,440,-16071,-1565,-166,-95,433
3,423,316192,438,-16055,-1469,-171,-69,450
3,424,316197,356,-16098,-1084,-185,-81,464
3,425,316202,306,-16099,-1324,-187,-131,479
3,426,316207,373,-16105,-1652,-193,-162,496
3,427,316212,410,-16082,-1722,-205,-169,510
3,428,316217,343,-16075,-1843,-202,-155,529
3,429,316222,237,-16075,-1386,-214,-141,540
3,430,316227,152,-16103,-1790,-215,-153,558
3,431,316232,53,-16134,-1856,-223,-149,571
3,432,316237,-121,-16128,-2049,-231,-146,586
3,433,316242,-193,-16140,-2103,-237,-133,601
3,434,316247,3,-16173,-2142,-245,-118,613
3,435,316252,217,-16201,-2333,-248,-82,627
3,436,316257,168,-16225,-2165,-253,-40,637
3,437,316262,-64,-16253,-2187,-260,-18,646
3,438,316267,-257,-16280,-2277,-272,2,659
3,439,316272,-136,-16266,-1683,-292,45,682
3,440,316277,-35,-16288,-1466,-295,38,697
3,441,316282,-99,-16325,-1734,-301,20,706
3,442,316287,-236,-16351,-1538,-308,9,718
3,443,316292,-353,-16340,-1628,-311,-27,731
3,444,316297,-422,-16494,-1985,-316,-61,743
3,445,316302,-315,-16556,-2333,-325,-59,754
3,446,316307,-242,-16544,-2241,-333,-8,765
3,447,316312,-388,-16525,-1941,-345,16,768
3,448,316317,-434,-16536,-2256,-351,2,775
3,449,316322,-603,-16552,-2782,-358,24,784
3,450,316327,-855,-16529,-2128,-366,66,793
3,451,316332,-813,-16536,-1942,-369,29,799
3,452,316337,-634,-16604,-2972,-370,15,808
3,453,316342,-787,-16608,-2521,-378,71,812
3,454,316347,-967,-16655,-2144,-382,89,817
3,455,316352,-870,-16667,-2751,-386,68,818
3,456,316357,-876,-16682,-2664,-392,89,823
3,457,316362,-855,-16592,-2735,-404,95,825
3,458,316367,-937,-16608,-2433,-409,127,827
3,459,316372,-1056,-16684,-1389,-412,115,834
3,460,316377,-1052,-16841,-2105,-408,14,841
3,461,316382,-980,-16663,-2320,-400,-30,841
3,462,316387,-1180,-16739,-2149,-400,-51,841
3,463,316392,-1167,-16646,-3072,-407,-92,842
3,464,316397,-1371,-16637,-2888,-413,-54,845
3,465,316402,-1270,-16623,-2420,-412,-30,849
3,466,316407,-1013,-16634,-3017,-415,-69,846
3,467,316412,-1021,-16695,-3517,-412,-54,844
3,468,316417,-1358,-16614,-3066,-419,0,834
3,469,316422,-1678,-16558,-2999,-421,12,831
3,470,316427,-1755,-16604,-3527,-422,23,832
3,471,316432,-1628,-16558,-3069,-427,66,825
3,472,316437,-1290,-16563,-3265,-430,63,824
3,473,316442,-1280,-16581,-3557,-439,97,811
3,474,316447,-1732,-16469,-1866,-440,131,803
3,475,316452,-1771,-16502,-3103,-425,48,803
3,476,316457,-1842,-16552,-2962,-428,56,794
3,477,316462,-1751,-16504,-2659,-426,43,787
3,478,316467,-1672,-16577,-3230,-428,16,783
3,479,316472,-1796,-16547,-2695,-431,23,767
3,480,316477,-1873,-16464,-2912,-423,-5,759
3,481,316482,-2021,-16423,-2706,-418,-10,751
3,482,316487,-1909,-16422,-3136,-410,-42,746
3,483,316492,-1783,-16379,-3796,-412,-48,733
3,484,316497,-1918,-16308,-2890,-415,-14,717
3,485,316502,-1999,-16261,-3127,-401,-46,709
3,486,316507,-2181,-16244,-3611,-401,-51,695
3,487,316512,-2408,-16176,-3327,-404,-14,682
3,488,316517,-2248,-16138,-3747,-396,-3,669
3,489,316522,-1996,-16166,-4274,-394,40,658
3,490,316527,-2097,-16165,-3076,-398,114,637
3,491,316532,-2231,-16176,-3098,-390,94,620
3,492,316537,-2536,-16187,-3551,-384,87,601
3,493,316542,-2672,-16204,-3175,-380,113,583
3,494,316547,-2513,-16219,-3358,-374,103,570
3,495,316552,-2243,-16257,-3341,-372,100,555
3,496,316557,-2309,-16262,-2592,-370,109,536
3,497,316562,-2351,-16190,-2482,-356,51,517
3,498,316567,-2454,-16185,-3220,-344,-2,501
3,499,316572,-2550,-16196,-3175,-342,-3,481
3,500,316577,-2489,-16155,-3364,-335,-14,464
3,501,316582,-2410,-16137,-3054,-328,-13,447
3,502,316587,-2433,-16088,-2975,-323,-34,433
3,503,316592,-2412,-16067,-3201,-308,-66,412
3,504,316597,-2449,-16008,-3667,-294,-70,396
3,505,316602,-2507,-15966,-3793,-290,-38,374
3,506,316607,-2541,-15919,-3689,-288,-8,354
3,507,316612,-2520,-15873,-3518,-281,7,333
3,508,316617,-2519,-15842,-3556,-268,13,316
3,509,316622,-2562,-15872,-3687,-258,28,296
3,510,316627,-2569,-15852,-3751,-252,52,272
3,511,316632,-2587,-15832,-3650,-247,76,250
3,512,316637,-2634,-15800,-3539,-240,88,233
3,513,316642,-2517,-15795,-3553,-222,94,192
3,514,316647,-2574,-15785,-3254,-211,112,170
3,515,316652,-2582,-15805,-3241,-196,103,152
3,516,316657,-2521,-15794,-3246,-185,89,134
3,517,316662,-2468,-15763,-3356,-175,83,113
3,518,316667,-2473,-15725,-3264,-166,82,91
3,519,316672,-2411,-15687,-3194,-154,76,72
3,520,316677,-2317,-15652,-3341,-142,71,51
3,521,316682,-2285,-15632,-3183,-132,72,31
3,522,316687,-2235,-15563,-3182,-118,60,14
3,523,316692,-2312,-15567,-3225,-105,47,-6
3,524,316697,-2329,-15549,-3281,-92,33,-24
3,525,316702,-2245,-15517,-3294,-76,22,-43
3,526,316707,-2157,-15526,-3304,-67,15,-59
3,527,316712,-2130,-15586,-3178,-55,17,-80
3,528,316717,-2196,-15658,-3125,-41,5,-101
3,529,316722,-2259,-15676,-3143,-29,-11,-119
3,530,316727,-2274,-15678,-3255,-13,-23,-136
3,531,316732,-2244,-15671,-3344,2,-25,-156
3,532,316737,-2164,-15670,-3396,14,-20,-175
3,533,316742,-2086,-15652,-3439,24,-13,-194
3,534,316747,-2136,-15638,-3197,34,-7,-215
3,535,316752,-2115,-15618,-3104,49,-10,-234
3,536,316757,-2049,-15564,-3121,66,-15,-251
3,537,316762,-1934,-15594,-3073,78,-20,-268
3,538,316767,-1922,-15570,-3005,88,-29,-289
3,539,316772,-1962,-15533,-2688,103,-48,-307
3,540,316777,-1921,-15587,-2929,121,-84,-324
3,541,316782,-1890,-15571,-2907,137,-97,-341
3,542,316787,-1788,-15629,-2768,148,-104,-358
3,543,316792,-1734,-15681,-2760,165,-122,-377
3,544,316797,-1786,-15662,-2843,180,-140,-396
3,545,316802,-1860,-15693,-3047,191,-156,-413
3,546,316807,-1787,-15687,-2984,207,-159,-429
3,547,316812,-1650,-15677,-3093,217,-155,-448
3,548,316817,-1525,-15675,-3082,228,-139,-468
3,549,316822,-1597,-15693,-2972,243,-116,-485
3,550,316827,-1669,-15743,-2809,257,-106,-499
3,551,316832,-1576,-15784,-2975,270,-110,-517
3,552,316837,-1554,-15823,-2828,282,-102,-537
3,553,316842,-1514,-15849,-2774,292,-97,-557
3,554,316847,-1506,-15861,-2839,300,-87,-571
3,555,316852,-1446,-15876,-2575,314,-78,-589
3,556,316857,-1417,-15875,-2573,328,-88,-607
3,557,316862,-1432,-15915,-2487,341,-102,-624
3,558,316867,-1509,-15864,-2599,356,-127,-641
3,559,316872,-1498,-15920,-2410,371,-141,-655
3,560,316877,-1280,-15949,-2953,381,-160,-673
3,561,316882,-1232,-15985,-2380,389,-145,-692
3,562,316887,-1255,-16090,-2518,399,-151,-707
3,563,316892,-1209,-16101,-2421,411,-149,-723
3,564,316897,-1266,-16094,-2533,423,-160,-742
3,565,316902,-1303,-16103,-2579,437,-166,-759
3,566,316907,-1199,-16152,-2600,451,-172,-774
3,567,316912,-1163,-16205,-2729,459,-171,-787
3,568,316917,-1215,-16261,-2709,465,-153,-806
3,569,316922,-1160,-16285,-2832,475,-131,-824
3,570,316927,-1076,-16274,-2936,481,-97,-840
3,571,316932,-989,-16291,-2973,488,-61,-857
3,572,316937,-1031,-16285,-2906,497,-28,-875
3,573,316942,-997,-16315,-2827,510,-6,-890
3,574,316947,-1089,-16354,-2948,517,11,-909
3,575,316952,-1008,-16344,-2985,524,35,-926
3,576,316957,-922,-16296,-2993,536,64,-942
3,577,316962,-756,-16180,-2644,541,96,-958
3,578,316967,-637,-16193,-2152,553,99,-966
3,579,316972,-457,-16272,-2641,558,87,-986
3,580,316977,-540,-16239,-1792,560,110,-1003
3,581,316982,-680,-16274,-1712,575,58,-1008
3,582,316987,-724,-16482,-1824,591,17,-1017
3,583,316992,-509,-16430,-1873,587,-32,-1038
3,584,316997,-444,-16616,-2182,596,-80,-1047
3,585,317002,-270,-16755,-2237,610,-90,-1059
3,586,317007,-335,-16698,-2865,617,2,-1087
3,587,317012,-216,-16688,-3299,609,51,-1105
3,588,317017,13,-16693,-2846,613,134,-1120
3,589,317022,111,-16654,-2461,615,181,-1133
3,590,317027,-32,-16481,-2015,616,207,-1145
3,591,317032,225,-16585,-2645,627,210,-1155
3,592,317037,62,-16533,-3379,606,327,-1175
3,593,317042,203,-16653,-772,592,414,-1185
3,594,317047,666,-16704,-1418,613,315,-1190
3,595,317052,580,-16778,-1612,622,279,-1205
3,596,317057,172,-16829,-506,625,247,-1212
3,597,317062,712,-16869,-1815,641,124,-1212
3,598,317067,879,-16850,-1519,642,116,-1224
3,599,317072,683,-17098,-1285,639,111,-1241
3,600,317077,-68,-17069,-647,642,71,-1256
3,601,317099,953,-16823,-1706,649,102,-1291
3,602,317100,953,-16823,-1706,649,102,-1291
3,603,317101,811,-16868,-1866,655,87,-1304
3,604,317102,811,-16868,-1866,655,87,-1304
3,605,317103,811,-16868,-1866,655,87,-1304
3,606,317107,474,-16780,-1946,671,100,-1307
3,607,317112,1070,-17056,-3007,664,76,-1313
3,608,317117,1004,-16959,-2893,655,199,-1322
3,609,317122,1127,-16971,-1142,639,261,-1340
3,610,317127,1158,-17076,-1324,642,193,-1343
3,611,317132,1520,-17213,-2209,649,199,-1349
3,612,317137,1267,-17260,-1417,641,269,-1363
3,613,317142,1166,-17263,-1296,639,275,-1369
3,614,317147,1314,-17194,-865,636,253,-1369
3,615,317152,1744,-17315,-1397,644,198,-1366
3,616,317157,1915,-17320,-1555,647,206,-1369
3,617,317162,1650,-17308,-720,641,239,-1375
3,618,317167,1655,-17332,-716,645,198,-1372
3,619,317172,2125,-17342,-1867,657,180,-1363
3,620,317177,2191,-17392,-980,648,241,-1362
3,621,317182,2264,-17392,-941,643,237,-1363
3,622,317187,3761,-17421,-858,645,251,-1354
3,623,317192,16730,-17739,10766,429,446,-1525
3,624,317197,-31406,-12260,22548,262,-1169,-838
3,625,317202,-32768,-5879,-32768,1284,-10081,1433
3,626,317207,26394,-12694,-32768,-737,-2934,1925
3,627,317212,32767,-24865,17809,-2305,7882,728
3,628,317217,19830,-9149,32767,-1303,6719,-962
3,629,317222,-32768,-20839,14361,447,-1084,-226
3,630,317227,-32768,-9853,-32768,678,-2740,248
3,631,317232,-14594,-13488,-32768,-17,-159,1025
3,632,317237,22232,-15557,14670,-1247,3651,814
3,633,317242,32767,-15735,32767,-1030,2362,405
3,634,317247,13077,-18167,28560,-304,-805,225
3,635,317252,-12040,-17252,-10668,251,-1712,197
3,636,317257,-20775,-15612,-32768,80,-1609,386
3,637,317262,-6430,-15797,-25696,-463,-900,604
3,638,317267,12790,-14837,10357,-860,42,628
3,639,317272,21204,-16887,28810,-650,63,519
3,640,317277,10657,-17406,6981,-228,-142,352
3,641,317282,-7174,-17194,-17807,-50,41,288
3,642,317287,-12608,-16174,-24737,-244,183,391
3,643,317292,-3093,-15107,-9294,-571,396,535
3,644,317297,9961,-15954,14310,-705,634,560
3,645,317302,13089,-17014,19907,-538,484,460
3,646,317307,4799,-17619,3096,-228,103,373
3,647,317312,-5517,-17081,-10373,-177,-118,350
3,648,317317,-6128,-16414,-13918,-333,-321,438
3,649,317322,1424,-15849,-2624,-491,-134,518
3,650,317327,8078,-16583,8453,-530,27,512
3,651,317332,7819,-17267,6930,-419,42,437
3,652,317337,2060,-17280,-3079,-288,-5,381
3,653,317342,-2845,-16766,-9789,-276,9,390
3,654,317347,-1786,-16422,-7728,-377,106,435
3,655,317352,2910,-16204,-176,-457,244,466
3,656,317357,5206,-16622,6048,-466,314,437
3,657,317362,3819,-16910,3360,-383,175,405
3,658,317367,1374,-16781,-2633,-317,39,386
3,659,317372,-300,-16408,-4607,-322,-3,391
3,660,317377,2503,-16164,439,-400,-53,423
3,661,317382,3981,-16420,1102,-379,-87,419
3,662,317387,3331,-16415,-400,-339,-79,396
3,663,317392,1844,-16434,-2162,-314,-63,377
3,664,317397,855,-16253,-2968,-313,-66,380
3,665,317402,1143,-16107,-2128,-333,-77,387
3,666,317407,2106,-16036,-876,-349,-101,394
3,667,317412,2698,-16078,-71,-336,-127,385
3,668,317417,2502,-16118,-339,-309,-158,368
3,669,317422,1692,-16132,-1504,-279,-183,355
3,670,317427,1198,-16210,-2638,-266,-181,352
3,671,317432,1361,-16059,-2799,-276,-187,350
3,672,317437,2021,-16000,-2034,-282,-177,347
3,673,317442,2387,-16051,-1512,-274,-153,338
3,674,317447,2210,-16014,-1149,-258,-119,320
3,675,317452,1707,-16097,-1863,-232,-95,312
3,676,317457,1492,-16092,-2613,-229,-79,298
3,677,317462,1469,-15929,-2652,-234,-54,291
3,678,317467,1630,-15896,-1687,-238,-33,282
3,679,317472,1659,-15854,-681,-229,-38,272
3,680,317477,1825,-15890,-121,-212,-110,260
3,681,317482,1856,-15931,-2168,-182,-207,254
3,682,317487,1503,-16049,-2517,-175,-190,239
3,683,317492,1102,-15931,-2118,-186,-181,224
3,684,317497,1234,-16065,-2312,-174,-192,222
3,685,317502,1338,-16126,-1668,-173,-143,208
3,686,317507,1582,-16218,-1863,-157,-110,192
3,687,317512,1638,-16256,-2842,-146,-68,178
3,688,317517,1529,-16227,-2933,-145,25,161
3,689,317522,1410,-16166,-2191,-147,79,147
3,690,317527,1614,-16208,-2220,-145,82,136
3,691,317532,1707,-16252,-1825,-142,137,123
3,692,317537,1595,-16196,-1164,-133,181,109
3,693,317542,1541,-16186,-1325,-119,165,97
3,694,317547,1620,-16232,-1476,-107,128,86
3,695,317552,1748,-16159,-1378,-99,76,80
3,696,317557,1828,-16088,-1531,-92,40,71
3,697,317562,1876,-16096,-1319,-83,35,62
3,698,317567,1931,-16128,-1156,-71,32,54
3,699,317572,2029,-16153,-1141,-66,0,47
3,700,317577,2052,-16219,-1813,-60,-39,40
3,701,317582,1850,-16345,-1740,-56,-50,30
3,702,317587,1643,-16444,-1475,-49,-57,24
3,703,317592,1637,-16512,-1443,-44,-64,17
3,704,317597,1683,-16567,-1647,-38,-58,10
3,705,317602,1758,-16672,-1933,-26,-39,1
3,706,317607,1634,-16732,-2221,-20,-19,-12
3,707,317612,1431,-16767,-2300,-18,7,-22
3,708,317617,1310,-16625,-2302,-16,32,-26
3,709,317622,1328,-16575,-2209,-9,72,-33
3,710,317627,1476,-16570,-1979,-8,112,-39
3,711,317632,1516,-16520,-1950,-1,133,-45
3,712,317637,1479,-16450,-1970,4,132,-52
3,713,317642,1486,-16448,-1907,7,121,-60
3,714,317647,1459,-16430,-1993,13,113,-65
3,715,317652,1460,-16415,-1737,17,117,-66
3,716,317657,1486,-16451,-1527,20,102,-67
3,717,317662,1648,-16422,-1798,30,79,-74
3,718,317667,1712,-16408,-2182,35,68,-81
3,719,317672,1606,-16383,-2139,39,72,-85
3,720,317677,1484,-16316,-2007,45,69,-86
3,721,317682,1504,-16283,-1991,48,65,-86
3,722,317687,1601,-16254,-1919,54,68,-88
3,723,317692,1677,-16246,-2001,62,70,-90
3,724,317697,1598,-16155,-2091,67,69,-91
3,725,317702,1549,-16107,-2091,69,66,-91
3,726,317707,1539,-16086,-1998,72,65,-89
3,727,317712,1514,-16086,-1876,76,62,-91
3,728,317717,1423,-16125,-1738,82,60,-92
3,729,317722,1366,-16212,-1744,88,57,-95
3,730,317727,1390,-16240,-1908,92,48,-95
3,731,317732,1454,-16237,-1840,93,44,-95
3,732,317737,1539,-16291,-1861,97,36,-96
3,733,317742,1460,-16313,-1774,98,33,-97
3,734,317747,1290,-16235,-1875,107,26,-102
3,735,317752,1313,-16281,-1976,109,31,-101
3,736,317757,1441,-16257,-2049,111,37,-99
3,737,317762,1472,-16157,-2149,116,42,-101
3,738,317767,1529,-16080,-2234,118,52,-101
3,739,317772,1577,-15950,-2246,117,63,-99
3,740,317777,1598,-15903,-2169,122,78,-99
3,741,317782,1579,-15946,-2153,125,87,-100
3,742,317787,1647,-16023,-2017,124,91,-98
3,743,317792,1656,-16045,-1789,128,87,-97
3,744,317797,1580,-16066,-1719,133,72,-99
3,745,317802,1514,-16074,-1725,138,55,-96
3,746,317807,1486,-16161,-1809,138,47,-96
3,747,317812,1465,-16181,-1673,140,32,-96
3,748,317817,1560,-16209,-1381,142,-15,-94
3,749,317822,1774,-16241,-2189,154,-61,-89
3,750,317827,1539,-16206,-2481,145,4,-93
3,751,317832,1060,-16329,-1156,140,41,-96
3,752,317837,1113,-16257,-2025,146,-10,-94
3,753,317842,1454,-16229,-2477,145,2,-89
3,754,317847,1623,-16247,-2042,142,32,-89
3,755,317852,1609,-16199,-2041,144,38,-91
3,756,317857,1311,-16139,-1913,144,52,-96
3,757,317862,1198,-16126,-1960,144,46,-92
3,758,317867,1365,-16147,-2211,148,41,-90
3,759,317872,1583,-16144,-1936,145,48,-91
3,760,317877,1639,-16134,-1504,140,41,-90
3,761,317882,1542,-16122,-1546,143,23,-90
3,762,317887,1386,-16109,-1487,146,8,-89
3,763,317892,1347,-16146,-1657,148,-16,-84
3,764,317897,1464,-16212,-1853,149,-30,-80
3,765,317902,1543,-16243,-1547,142,-36,-79
3,766,317907,1511,-16238,-1444,139,-63,-79
3,767,317912,1439,-16161,-1662,142,-88,-79
3,768,317917,1502,-16105,-1847,142,-92,-81
3,769,317922,1484,-16116,-2119,139,-76,-77
3,770,317927,1504,-16151,-1909,134,-64,-76
3,771,317932,1514,-16128,-1852,132,-70,-74
3,772,317937,1474,-16121,-1837,134,-74,-70
3,773,317942,1298,-16158,-1849,131,-67,-72
3,774,317947,1171,-16212,-2058,129,-63,-70
3,775,317952,1207,-16246,-2284,129,-54,-71
3,776,317957,1316,-16264,-2343,125,-39,-69
3,777,317962,1453,-16285,-2288,117,-23,-70
3,778,317967,1540,-16230,-2178,115,-4,-68
3,779,317972,1625,-16222,-2095,112,29,-69
3,780,317977,1634,-16245,-1821,111,62,-73
3,781,317982,1572,-16245,-1604,108,70,-73
3,782,317987,1534,-16222,-1546,107,56,-68
3,783,317992,1575,-16161,-1386,106,37,-66
3,784,317997,1578,-16164,-1457,106,15,-64
3,785,318002,1556,-16172,-1640,105,10,-61
3,786,318007,1535,-16243,-1357,104,3,-57
3,787,318012,1689,-16239,-1733,108,-34,-53
3,788,318017,1718,-16243,-1977,104,-48,-53
3,789,318022,1566,-16314,-1692,100,-51,-52
3,790,318027,1506,-16321,-1867,101,-73,-50
3,791,318032,1494,-16367,-2165,100,-49,-49
3,792,318037,1422,-16448,-1733,96,-2,-49
3,793,318042,1479,-16439,-1790,91,-3,-45
3,794,318047,1591,-16445,-1819,90,-4,-45
3,795,318052,1546,-16501,-1730,87,4,-46
3,796,318057,1451,-16522,-1624,85,8,-47
3,797,318062,1422,-16534,-1549,85,10,-46
3,798,318067,1526,-16565,-1492,84,11,-42
3,799,318072,1651,-16565,-1510,81,6,-42
3,800,318077,1675,-16636,-1487,79,1,-43
3,801,318082,1601,-16602,-1371,75,-7,-44
3,802,318087,1624,-16524,-1317,76,-19,-40
3,803,318092,1586,-16523,-1333,79,-30,-37
3,804,318097,1528,-16510,-1268,78,-42,-37
3,805,318102,1531,-16464,-1191,74,-70,-37
3,806,318107,1623,-16510,-1722,79,-107,-34
3,807,318112,1528,-16501,-1583,71,-93,-34
3,808,318117,1509,-16495,-1790,75,-90,-32
3,809,318122,1566,-16492,-1845,72,-73,-29
3,810,318127,1578,-16533,-1871,66,-53,-31
3,811,318132,1575,-16533,-1887,66,-38,-31
3,812,318137,1612,-16507,-1788,63,-19,-32
3,813,318142,1635,-16486,-1701,62,-6,-32
3,814,318147,1658,-16473,-1648,62,9,-30
3,815,318152,1614,-16451,-1632,59,22,-32
3,816,318157,1526,-16422,-1573,56,28,-29
3,817,318162,1570,-16340,-1612,58,23,-27
3,818,318167,1696,-16369,-1605,57,19,-26
3,819,318172,1802,-16384,-1632,55,22,-29
3,820,318177,1800,-16369,-1544,56,34,-26
3,821,318182,1673,-16294,-1505,55,36,-23
3,822,318187,1610,-16242,-1512,55,32,-22
3,823,318192,1619,-16230,-1481,51,32,-20
3,824,318197,1639,-16319,-1176,48,21,-20
3,825,318202,1735,-16357,-1173,50,-12,-19
3,826,318207,1674,-16347,-1320,52,-28,-19
3,827,318212,1593,-16369,-1261,48,-44,-16
3,828,318217,1471,-16378,-1497,48,-54,-16
3,829,318222,1506,-16350,-1526,47,-49,-17
3,830,318227,1574,-16352,-1424,41,-46,-17
3,831,318232,1735,-16351,-1606,42,-53,-13
3,832,318237,1619,-16327,-1668,41,-42,-17
3,833,318242,1504,-16329,-1568,38,-35,-17
3,834,318247,1440,-16290,-1700,38,-33,-16
3,835,318252,1497,-16344,-1692,38,-26,-15
3,836,318257,1569,-16408,-1607,40,-21,-15
3,837,318262,1686,-16422,-1653,34,-19,-16
3,838,318267,1690,-16379,-1506,31,-7,-18
3,839,318272,1576,-16283,-1301,28,-1,-19
3,840,318277,1520,-16239,-1294,27,-7,-20
3,841,318282,1640,-16236,-1293,23,-11,-17
3,842,318287,1778,-16252,-1246,25,-17,-16
3,843,318292,1722,-16233,-1240,24,-27,-17
3,844,318297,1647,-16257,-1354,25,-41,-16
3,845,318302,1632,-16265,-1497,26,-46,-12
3,846,318307,1702,-16247,-1569,26,-32,-10
3,847,318312,1811,-16262,-1491,21,-18,-10
3,848,318317,1783,-16310,-1557,22,-14,-10
3,849,318322,1657,-16332,-1563,18,-5,-12
3,850,318327,1533,-16412,-1513,16,-2,-10
3,851,318332,1575,-16362,-1640,15,-1,-10
3,852,318337,1679,-16370,-1258,13,20,-10
3,853,318342,1780,-16382,-1548,12,23,-9
3,854,318347,1719,-16386,-1739,13,22,-12
3,855,318352,1505,-16376,-1318,5,34,-13
3,856,318357,1465,-16372,-1284,6,33,-8
3,857,318362,1591,-16351,-1435,8,31,-10
3,858,318367,1728,-16343,-1280,5,38,-9
3,859,318372,1739,-16371,-1269,3,43,-8
3,860,318377,1670,-16372,-1413,4,37,-11
3,861,318382,1618,-16281,-1306,-1,34,-11
3,862,318387,1636,-16217,-1029,-2,31,-9
3,863,318392,1667,-16236,-1083,-3,16,-6
3,864,318397,1761,-16317,-1224,-2,2,-3
3,865,318402,1795,-16341,-1242,-3,-8,-3
3,866,318407,1793,-16335,-1211,-5,-21,-5
3,867,318412,1737,-16325,-1257,-5,-35,-2
3,868,318417,1781,-16240,-1165,-8,-43,0
3,869,318422,1792,-16273,-1121,-9,-64,0
3,870,318427,1839,-16343,-1605,-4,-80,4
3,871,318432,1746,-16390,-1409,-11,-60,1
3,872,318437,1585,-16319,-1169,-16,-57,1
3,873,318442,1575,-16308,-1358,-11,-68,5
3,874,318447,1712,-16328,-1417,-15,-60,5
3,875,318452,1786,-16322,-1501,-13,-54,4
3,876,318457,1710,-16251,-1540,-13,-43,2
3,877,318462,1599,-16264,-1482,-16,-32,1
3,878,318467,1581,-16321,-1388,-16,-27,3
3,879,318472,1634,-16355,-1381,-15,-20,4
3,880,318477,1724,-16346,-1404,-15,-15,3
3,881,318482,1689,-16260,-1457,-15,-9,4
3,882,318487,1657,-16224,-1497,-16,-4,7
3,883,318492,1703,-16245,-1499,-16,5,6
3,884,318497,1792,-16265,-1339,-19,15,7
3,885,318502,1861,-16262,-1285,-14,22,9
3,886,318507,1851,-16266,-1314,-14,21,8
3,887,318512,1731,-16294,-1247,-14,20,9
3,888,318517,1642,-16324,-1168,-12,18,10
3,889,318522,1699,-16350,-1148,-12,11,10
3,890,318527,1701,-16378,-1191,-12,8,11
3,891,318532,1717,-16389,-1174,-13,-2,11
3,892,318537,1688,-16398,-1122,-12,-15,10
3,893,318542,1607,-16420,-1370,-10,-30,11
3,894,318547,1568,-16400,-1433,-11,-30,6
3,895,318552,1672,-16384,-1412,-12,-24,8
3,896,318557,1738,-16359,-1524,-9,-16,12
3,897,318562,1700,-16359,-1418,-9,-4,10
3,898,318567,1659,-16393,-1504,-11,2,7
3,899,318572,1611,-16397,-1464,-10,9,9
3,900,318577,1664,-16393,-1339,-12,13,9
3,901,318582,1760,-16354,-1182,-12,15,7
3,902,318587,1771,-16398,-1124,-9,15,8
3,903,318592,1705,-16422,-1176,-8,6,9
3,904,318597,1642,-16419,-1178,-7,-1,5
3,905,318602,1622,-16400,-1165,-4,-8,4
3,906,318607,1676,-16383,-1142,-4,-14,7
3,907,318612,1743,-16405,-1226,0,-19,9
3,908,318617,1735,-16355,-1186,1,-15,5
3,909,318622,1616,-16375,-1283,2,-23,5
3,910,318627,1486,-16358,-1391,3,-30,6
3,911,318632,1527,-16401,-1460,1,-33,4
3,912,318637,1599,-16396,-1497,0,-33,3
3,913,318642,1694,-16358,-1479,0,-26,4
3,914,318647,1667,-16331,-1486,2,-20,-1
3,915,318652,1514,-16353,-1552,3,-20,-1
3,916,318657,1522,-16320,-1514,2,-13,0
3,917,318662,1589,-16343,-1554,2,-7,-3
3,918,318667,1638,-16300,-1446,6,7,-3
3,919,318672,1693,-16286,-1353,4,18,-3
3,920,318677,1699,-16260,-1398,8,12,-7
3,921,318682,1608,-16285,-1395,10,12,-6
3,922,318687,1580,-16260,-1364,13,12,-6
3,923,318692,1692,-16276,-1319,12,8,-8
3,924,318697,1711,-16291,-1270,13,6,-6
3,925,318702,1754,-16288,-1218,17,5,-7
3,926,318707,1794,-16324,-1227,15,4,-7
3,927,318712,1746,-16387,-1189,14,4,-8
3,928,318717,1722,-16369,-1170,18,1,-8
3,929,318722,1721,-16401,-1211,16,6,-8
3,930,318727,1763,-16438,-1038,13,9,-7
3,931,318732,1751,-16411,-1117,18,-1,-7
3,932,318737,1696,-16406,-1208,16,-11,-8
3,933,318742,1604,-16423,-1140,15,-23,-9
3,934,318747,1587,-16423,-930,13,-51,-8
3,935,318752,1795,-16388,-1679,13,-95,-8
3,936,318757,1675,-16373,-1711,18,-48,-11
3,937,318762,1565,-16336,-1095,13,-18,-12
3,938,318767,1595,-16297,-1603,16,-35,-7
3,939,318772,1678,-16286,-1677,18,-19,-10
3,940,318777,1708,-16254,-1633,14,-3,-12
3,941,318782,1694,-16271,-1614,13,4,-11
3,942,318787,1656,-16213,-1430,11,19,-13
3,943,318792,1644,-16161,-1222,12,22,-14
3,944,318797,1667,-16148,-1338,13,13,-15
3,945,318802,1656,-16162,-1227,12,13,-14
3,946,318807,1708,-16163,-1172,12,8,-13
3,947,318812,1741,-16178,-1283,16,-11,-13
3,948,318817,1735,-16183,-1295,19,-19,-12
3,949,318822,1748,-16178,-1369,20,-24,-10
3,950,318827,1778,-16201,-1403,21,-24,-11
3,951,318832,1785,-16218,-1315,21,-15,-9
3,952,318837,1792,-16243,-1327,20,-15,-9
3,953,318842,1724,-16272,-1353,23,-16,-7
3,954,318847,1676,-16274,-1390,21,-6,-5
3,955,318852,1731,-16328,-1392,19,-9,-11
3,956,318857,1743,-16311,-1420,18,-7,-12
3,957,318862,1634,-16315,-1392,18,-4,-12
3,958,318867,1527,-16353,-1401,19,-2,-11
3,959,318872,1555,-16343,-1411,17,2,-11
3,960,318877,1631,-16342,-1534,20,10,-12
3,961,318882,1653,-16326,-1546,20,25,-13
3,962,318887,1663,-16314,-1368,15,41,-14
3,963,318892,1697,-16268,-1347,19,45,-12
3,964,318897,1789,-16258,-1289,17,51,-13
3,965,318902,1826,-16228,-1129,18,57,-15
3,966,318907,1770,-16263,-1177,21,48,-12
3,967,318912,1721,-16294,-1128,20,37,-12
3,968,318917,1750,-16280,-1065,25,26,-12
3,969,318922,1860,-16260,-1019,27,18,-8
3,970,318927,1898,-16303,-1048,26,9,-5
3,971,318932,1830,-16323,-1153,29,-2,-8
3,972,318937,1774,-16312,-1413,31,-1,-6
3,973,318942,1717,-16379,-1363,30,10,-5
3,974,318947,1679,-16450,-1202,27,12,-4
3,975,318952,1763,-16444,-1143,27,9,-3
3,976,318957,1789,-16497,-1157,25,9,-4
3,977,318962,1686,-16528,-1196,22,13,-8
3,978,318967,1624,-16477,-1265,23,13,-12
3,979,318972,1566,-16403,-1253,22,9,-7
3,980,318977,1622,-16364,-1237,20,2,-7
3,981,318982,1735,-16386,-1240,23,-2,-9
3,982,318987,1790,-16372,-1137,21,-3,-10
3,983,318992,1734,-16357,-1273,25,-7,-9
3,984,318997,1694,-16405,-1297,27,-9,-8
3,985,319002,1654,-16443,-1202,25,-9,-7
3,986,319007,1690,-16412,-1167,25,-6,-6
3,987,319012,1753,-16395,-1097,25,-6,-7
3,988,319017,1819,-16407,-1169,28,-7,-8
3,989,319022,1788,-16397,-1258,26,-2,-7
3,990,319027,1784,-16387,-1290,29,-1,-7
3,991,319032,1808,-16367,-1322,31,0,-3
3,992,319037,1800,-16312,-1229,28,2,-5
3,993,319042,1842,-16278,-1199,29,3,-5
3,994,319047,1827,-16279,-1232,29,2,-2
3,995,319052,1783,-16268,-1264,29,0,-1
3,996,319057,1742,-16292,-1284,31,-7,1
3,997,319062,1755,-16358,-1232,33,-13,2
3,998,319067,1711,-16594,-1101,32,-21,2
3,999,319072,1557,-16811,-956,33,-30,0
