event_id,seq,ts_ms,ax,ay,az,gx,gy,gz
20,0,1874547,-2012,-15736,-4475,-7,-10,9
20,1,1874552,-1952,-15766,-4440,-7,-8,9
20,2,1874557,-1940,-15722,-4283,-9,-14,9
20,3,1874562,-2048,-15692,-4200,-6,-29,7
20,4,1874567,-2251,-15719,-4232,-1,-39,3
20,5,1874572,-2248,-15654,-4409,-2,-35,5
20,6,1874577,-2123,-15635,-4460,-3,-23,9
20,7,1874582,-2138,-15704,-4414,-1,-15,6
20,8,1874587,-2167,-15722,-4205,-1,-20,1
20,9,1874592,-2207,-15690,-4148,-2,-28,-2
20,10,1874597,-2275,-15624,-4283,4,-19,4
20,11,1874602,-2301,-15603,-4521,5,3,3
20,12,1874607,-2360,-15645,-4530,2,16,1
20,13,1874612,-2366,-15652,-4477,0,8,0
20,14,1874617,-2390,-15546,-4507,-2,-3,1
20,15,1874622,-2470,-15557,-4519,-3,1,-1
20,16,1874627,-2473,-15602,-4406,-1,13,0
20,17,1874632,-2338,-15614,-4392,-1,19,0
20,18,1874637,-2286,-15673,-4275,-2,14,1
20,19,1874642,-2147,-15683,-4166,-3,-8,0
20,20,1874647,-2092,-15639,-4252,-3,-31,-2
20,21,1874652,-2246,-15686,-4306,0,-37,-1
20,22,1874657,-2397,-15692,-4257,-1,-33,1
20,23,1874662,-2379,-15620,-4308,-3,-31,1
20,24,1874667,-2262,-15605,-4260,0,-27,2
20,25,1874672,-2102,-15667,-4247,-1,-31,3
20,26,1874677,-2069,-15734,-4214,-2,-39,1
20,27,1874682,-2048,-15768,-4173,-5,-47,-1
20,28,1874687,-2102,-15754,-4107,-6,-49,0
20,29,1874692,-2105,-15744,-4162,-6,-44,0
20,30,1874697,-2020,-15719,-4393,-3,-32,1
20,31,1874702,-2032,-15684,-4445,-3,-15,-1
20,32,1874707,-2128,-15684,-4460,-4,-3,-4
20,33,1874712,-2211,-15679,-4462,-5,-1,-3
20,34,1874717,-2216,-15639,-4385,-5,-4,-3
20,35,1874722,-2145,-15675,-4331,-6,-4,-3
20,36,1874727,-2090,-15720,-4241,-5,-3,-3
20,37,1874732,-2164,-15681,-4191,-1,-7,-3
20,38,1874737,-2288,-15701,-4291,-4,-8,-6
20,39,1874742,-2298,-15698,-4322,-2,-3,-6
20,40,1874747,-2116,-15671,-4202,-3,6,-2
20,41,1874752,-2066,-15691,-4080,1,3,-2
20,42,1874757,-2034,-15704,-4168,1,-9,-3
20,43,1874762,-2065,-15672,-4287,-4,-19,-2
20,44,1874767,-2093,-15715,-4238,-3,-22,-1
20,45,1874772,-2041,-15715,-4176,-4,-22,-1
20,46,1874777,-1941,-15725,-4175,-3,-27,1
20,47,1874782,-1957,-15779,-4263,-3,-39,0
20,48,1874787,-1968,-15669,-4289,-6,-53,1
20,49,1874792,-1955,-15675,-4287,-7,-68,4
20,50,1874797,-1921,-15641,-4433,-6,-80,0
20,51,1874802,-1930,-15597,-4592,-6,-81,-1
20,52,1874807,-2138,-15609,-4620,-4,-72,-4
20,53,1874812,-2221,-15556,-4562,-2,-63,-5
20,54,1874817,-2226,-15531,-4610,-1,-51,-7
20,55,1874822,-2257,-15584,-4589,-5,-35,-4
20,56,1874827,-2069,-15660,-4402,-2,-16,-2
20,57,1874832,-2081,-15674,-4211,-2,-9,-4
20,58,1874837,-2048,-15614,-4227,0,-10,0
20,59,1874842,-1983,-15672,-4396,-1,-8,3
20,60,1874847,-1903,-15721,-4340,-2,-5,0
20,61,1874852,-1951,-15675,-4175,-5,-13,-1
20,62,1874857,-2061,-15649,-4089,-6,-30,-1
20,63,1874862,-2122,-15610,-4183,-4,-43,3
20,64,1874867,-2044,-15675,-4278,-5,-40,3
20,65,1874872,-1937,-15705,-4332,-1,-28,6
20,66,1874877,-1924,-15724,-4365,-2,-16,6
20,67,1874882,-2046,-15721,-4252,-7,-10,7
20,68,1874887,-2063,-15634,-4104,-7,-10,6
20,69,1874892,-2058,-15674,-4125,-4,-13,8
20,70,1874897,-2013,-15724,-4266,-6,-11,10
20,71,1874902,-1880,-15662,-4304,-7,-6,8
20,72,1874907,-1925,-15677,-4287,-9,-10,4
20,73,1874912,-2059,-15670,-4327,-6,-15,1
20,74,1874917,-2295,-15652,-4344,-6,-15,1
20,75,1874922,-2509,-15610,-4356,-6,-12,4
20,76,1874927,-2436,-15639,-4480,-4,-6,4
20,77,1874932,-2197,-15707,-4560,-2,4,9
20,78,1874937,-2060,-15725,-4455,-6,16,7
20,79,1874942,-2170,-15705,-4322,-5,18,5
20,80,1874947,-2254,-15648,-4332,-6,10,7
20,81,1874952,-2175,-15672,-4436,-5,5,7
20,82,1874957,-2126,-15767,-4449,-4,6,7
20,83,1874962,-2107,-15727,-4361,-7,14,5
20,84,1874967,-2176,-15669,-4283,-6,17,4
20,85,1874972,-2363,-15659,-4218,-5,15,0
20,86,1874977,-2446,-15643,-4236,-4,14,1
20,87,1874982,-2359,-15576,-4256,-3,15,1
20,88,1874987,-2256,-15589,-4336,-1,13,1
20,89,1874992,-2297,-15633,-4303,-3,0,-4
20,90,1874997,-2269,-15668,-4101,-7,-20,-4
20,91,1875002,-2247,-15630,-3992,-6,-38,-5
20,92,1875007,-2276,-15620,-4274,-1,-39,-5
20,93,1875012,-2264,-15692,-4615,-1,-15,-3
20,94,1875017,-2298,-15698,-4614,-5,8,-4
20,95,1875022,-2321,-15649,-4420,-9,2,-9
20,96,1875027,-2397,-15626,-4270,-9,-21,-7
20,97,1875032,-2377,-15614,-4375,-5,-35,-5
20,98,1875037,-2277,-15645,-4554,-4,-23,-4
20,99,1875042,-2066,-15656,-4533,-2,3,-5
20,100,1875047,-2106,-15643,-4358,-2,11,-3
20,101,1875052,-2347,-15648,-4246,-2,-3,-6
20,102,1875057,-2427,-15654,-4327,-3,-21,-8
20,103,1875062,-2350,-15649,-4511,-4,-25,-8
20,104,1875067,-2249,-15670,-4397,-2,-13,-7
20,105,1875072,-2261,-15636,-4233,-2,-10,-9
20,106,1875077,-2281,-15703,-4129,-3,-24,-11
20,107,1875082,-2313,-15650,-4323,1,-33,-13
20,108,1875087,-2371,-15636,-4457,3,-27,-10
20,109,1875092,-2374,-15620,-4367,0,-9,-10
20,110,1875097,-2274,-15644,-4296,-1,-8,-11
20,111,1875102,-2278,-15651,-4272,0,-19,-12
20,112,1875107,-2242,-15678,-4298,0,-30,-12
20,113,1875112,-2197,-15717,-4362,0,-35,-9
20,114,1875117,-2141,-15751,-4526,-2,-32,-7
20,115,1875122,-1990,-15741,-4522,-5,-23,-10
20,116,1875127,-1989,-15702,-4406,-6,-17,-14
20,117,1875132,-2141,-15677,-4343,-7,-10,-17
20,118,1875137,-2272,-15661,-4417,-5,-2,-15
20,119,1875142,-2240,-15600,-4407,-4,12,-15
20,120,1875147,-2099,-15638,-4240,-4,20,-14
20,121,1875152,-1982,-15628,-4112,-6,12,-13
20,122,1875157,-1939,-15693,-4076,-2,-3,-15
20,123,1875162,-2086,-15736,-4186,0,-19,-17
20,124,1875167,-2193,-15703,-4373,-1,-16,-15
20,125,1875172,-2262,-15699,-4459,2,-5,-13
20,126,1875177,-2278,-15690,-4344,-1,-1,-14
20,127,1875182,-2152,-15679,-4399,-3,-7,-11
20,128,1875187,-2053,-15697,-4457,-2,-14,-7
20,129,1875192,-2069,-15714,-4493,-2,-15,-6
20,130,1875197,-2139,-15647,-4361,-1,-18,-10
20,131,1875202,-2055,-15622,-4440,0,-33,-7
20,132,1875207,-1898,-15636,-4715,-1,-33,-6
20,133,1875212,-1872,-15652,-4751,0,-21,-8
20,134,1875217,-1944,-15697,-4586,-1,-13,-11
20,135,1875222,-2086,-15671,-4455,-3,-15,-13
20,136,1875227,-2144,-15612,-4332,2,-14,-12
20,137,1875232,-2218,-15600,-4273,3,-7,-11
20,138,1875237,-2190,-15632,-4292,4,-2,-8
20,139,1875242,-2137,-15705,-4279,4,-2,-8
20,140,1875247,-2031,-15691,-4239,0,-10,-7
20,141,1875252,-2011,-15658,-4190,-1,-21,-7
20,142,1875257,-2077,-15672,-4279,3,-25,-5
20,143,1875262,-2066,-15751,-4344,4,-22,-5
20,144,1875267,-2175,-15722,-4352,3,-15,-6
20,145,1875272,-2144,-15686,-4493,3,-9,-8
20,146,1875277,-2117,-15677,-4450,0,-7,-8
20,147,1875282,-2104,-15715,-4362,-1,-6,-8
20,148,1875287,-2108,-15685,-4375,3,-5,-9
20,149,1875292,-2084,-15665,-4568,4,-3,-8
20,150,1875297,-1989,-15682,-4606,2,1,-7
20,151,1875302,-1900,-15733,-4547,5,-2,-8
20,152,1875307,-2007,-15676,-4519,-1,-5,-8
20,153,1875312,-2122,-15667,-4613,3,-7,-10
20,154,1875317,-2186,-15682,-4591,6,-1,-9
20,155,1875322,-2234,-15623,-4546,4,8,-9
20,156,1875327,-2196,-15652,-4470,2,9,-11
20,157,1875332,-2148,-15692,-4507,6,2,-8
20,158,1875337,-2133,-15735,-4491,6,1,-6
20,159,1875342,-2176,-15736,-4435,4,10,-7
20,160,1875347,-2242,-15712,-4327,5,18,-9
20,161,1875352,-2246,-15651,-4307,6,21,-9
20,162,1875357,-2141,-15648,-4347,8,16,-10
20,163,1875362,-2066,-15683,-4366,6,8,-9
20,164,1875367,-2075,-15657,-4447,7,8,-10
20,165,1875372,-2147,-15653,-4439,9,11,-11
20,166,1875377,-2104,-15617,-4261,6,16,-11
20,167,1875382,-2076,-15661,-4087,5,16,-9
20,168,1875387,-2029,-15738,-4097,9,10,-8
20,169,1875392,-1972,-15690,-4242,10,7,-10
20,170,1875397,-1990,-15710,-4260,8,2,-10
20,171,1875402,-1968,-15723,-4306,9,-10,-5
20,172,1875407,-1864,-15747,-4353,9,-19,-6
20,173,1875412,-1864,-15820,-4343,8,-22,-9
20,174,1875417,-1930,-15763,-4224,10,-22,-12
20,175,1875422,-2067,-15609,-4306,10,-21,-12
20,176,1875427,-2157,-15567,-4402,9,-18,-12
20,177,1875432,-2169,-15559,-4435,13,-19,-11
20,178,1875437,-2111,-15641,-4363,12,-24,-10
20,179,1875442,-2008,-15562,-4337,9,-29,-10
20,180,1875447,-2083,-15505,-4300,7,-30,-10
20,181,1875452,-2265,-15495,-4308,10,-26,-9
20,182,1875457,-2232,-15553,-4330,8,-21,-5
20,183,1875462,-2038,-15619,-4091,4,-16,-3
20,184,1875467,-1956,-15682,-3836,3,-9,-2
20,185,1875472,-1998,-15717,-3926,6,-9,-3
20,186,1875477,-2083,-15751,-4200,4,-9,-4
20,187,1875482,-2091,-15753,-4265,2,-4,-4
20,188,1875487,-2125,-15760,-4240,2,-1,-3
20,189,1875492,-2132,-15724,-4208,1,-1,-2
20,190,1875497,-2118,-15704,-4243,0,-3,-1
20,191,1875502,-2087,-15709,-4386,3,2,1
20,192,1875507,-2044,-15742,-4525,4,13,-2
20,193,1875512,-2014,-15706,-4478,2,17,-3
20,194,1875517,-2068,-15665,-4248,1,15,-6
20,195,1875522,-1976,-15689,-4370,2,7,-4
20,196,1875527,-1950,-15686,-4383,1,12,-6
20,197,1875532,-1984,-15654,-4348,1,9,-9
20,198,1875537,-2050,-15593,-4138,3,-5,-10
20,199,1875542,-2191,-15602,-4261,3,-25,-8
20,200,1875547,-2344,-15634,-4587,5,-40,-6
20,201,1875552,-2353,-15581,-4616,4,-34,-8
20,202,1875557,-2368,-15628,-4399,1,-25,-7
20,203,1875562,-2228,-15605,-4289,3,-30,-5
20,204,1875567,-2178,-15647,-4446,6,-19,-4
20,205,1875572,-2112,-15721,-4450,5,5,-2
20,206,1875577,-2027,-15720,-4379,4,13,-2
20,207,1875582,-2023,-15723,-4299,2,4,-5
20,208,1875587,-2114,-15688,-4254,1,-7,-6
20,209,1875592,-2338,-15672,-4254,-1,-8,-7
20,210,1875597,-2500,-15665,-4250,1,1,-5
20,211,1875602,-2337,-15688,-4188,0,6,-3
20,212,1875607,-2121,-15708,-4242,-1,5,0
20,213,1875612,-1995,-15753,-4298,1,4,-2
20,214,1875617,-2046,-15767,-4255,-1,2,-4
20,215,1875622,-2180,-15748,-4228,-1,-4,-8
20,216,1875627,-2246,-15699,-4363,-1,-10,-7
20,217,1875632,-2104,-15664,-4602,1,-10,-3
20,218,1875637,-1987,-15663,-4590,0,-3,-7
20,219,1875642,-1959,-15632,-4354,-3,-4,-9
20,220,1875647,-2102,-15650,-4145,-1,-21,-9
20,221,1875652,-2244,-15624,-4185,1,-35,-8
20,222,1875657,-2259,-15551,-4285,1,-30,-9
20,223,1875662,-2129,-15617,-4346,2,-7,-5
20,224,1875667,-1936,-15714,-4342,3,9,-9
20,225,1875672,-1982,-15716,-4268,-1,5,-12
20,226,1875677,-2086,-15673,-4325,1,-7,-12
20,227,1875682,-2257,-15687,-4417,2,-15,-13
20,228,1875687,-2308,-15613,-4485,0,-5,-12
20,229,1875692,-2306,-15586,-4569,1,10,-11
20,230,1875697,-2229,-15681,-4494,0,16,-11
20,231,1875702,-2090,-15674,-4359,0,17,-10
20,232,1875707,-2095,-15722,-4315,-2,16,-11
20,233,1875712,-2075,-15758,-4236,0,23,-12
20,234,1875717,-2049,-15716,-4084,-1,25,-10
20,235,1875722,-2046,-15687,-3917,1,17,-10
20,236,1875727,-2130,-15652,-3868,2,-6,-8
20,237,1875732,-2149,-15655,-4138,1,-32,-3
20,238,1875737,-2083,-15597,-4376,-3,-38,-5
20,239,1875742,-1942,-15630,-4427,-2,-35,-2
20,240,1875747,-1899,-15642,-4263,-3,-33,-2
20,241,1875752,-1882,-15643,-4151,-4,-41,-4
20,242,1875757,-1930,-15628,-4218,-3,-52,-6
20,243,1875762,-1997,-15725,-4400,-2,-58,-4
20,244,1875767,-1954,-15732,-4501,-4,-52,-6
20,245,1875772,-1972,-15693,-4426,-4,-47,-8
20,246,1875777,-1897,-15695,-4250,-7,-45,-7
20,247,1875782,-1932,-15724,-4258,-6,-41,-7
20,248,1875787,-2041,-15736,-4357,-4,-25,-9
20,249,1875792,-2212,-15704,-4389,-4,0,-11
20,250,1875797,-2385,-15650,-4383,-4,15,-9
20,251,1875802,-2271,-15625,-4316,-5,9,-9
20,252,1875807,-2064,-15632,-4308,-7,4,-7
20,253,1875812,-2048,-15679,-4386,-4,4,-9
20,254,1875817,-2172,-15661,-4407,-1,4,-9
20,255,1875822,-2280,-15604,-4390,-2,3,-7
20,256,1875827,-2236,-15604,-4438,1,4,-6
20,257,1875832,-2070,-15648,-4483,4,9,-6
20,258,1875837,-1942,-15681,-4399,1,10,-6
20,259,1875842,-1986,-15689,-4435,1,6,-4
20,260,1875847,-2082,-15644,-4445,2,-3,-4
20,261,1875852,-2164,-15624,-4389,0,-13,-4
20,262,1875857,-2062,-15705,-4264,-1,-14,-3
20,263,1875862,-1959,-15742,-4286,-4,-14,0
20,264,1875867,-1916,-15763,-4242,-2,-15,0
20,265,1875872,-2007,-15686,-4215,-3,-15,-1
20,266,1875877,-2068,-15685,-4172,-4,-24,-3
20,267,1875882,-2020,-15660,-4215,-4,-39,-3
20,268,1875887,-1935,-15708,-4338,-2,-43,0
20,269,1875892,-2072,-15688,-4315,1,-39,-1
20,270,1875897,-2163,-15630,-4472,1,-40,-4
20,271,1875902,-2161,-15546,-4556,-1,-41,-3
20,272,1875907,-2091,-15641,-4527,0,-36,3
20,273,1875912,-2055,-15665,-4536,0,-29,0
20,274,1875917,-2024,-15671,-4642,-2,-21,-2
20,275,1875922,-2053,-15672,-4656,-1,-2,1
20,276,1875927,-2066,-15664,-4584,-1,18,2
20,277,1875932,-2125,-15692,-4321,2,26,-2
20,278,1875937,-2239,-15710,-4261,2,26,-1
20,279,1875942,-2234,-15677,-4286,2,28,2
20,280,1875947,-2093,-15701,-4316,4,40,4
20,281,1875952,-2079,-15721,-4247,0,50,0
20,282,1875957,-2224,-15755,-4419,1,48,4
20,283,1875962,-2293,-15734,-4550,3,51,5
20,284,1875967,-2231,-15673,-4534,-1,57,3
20,285,1875972,-2190,-15681,-4431,0,62,5
20,286,1875977,-2094,-15742,-4366,2,60,7
20,287,1875982,-2081,-15779,-4305,1,40,6
20,288,1875987,-2100,-15671,-4247,-1,18,3
20,289,1875992,-2104,-15630,-4240,2,-5,4
20,290,1875997,-2131,-15630,-4257,5,-17,6
20,291,1876002,-2160,-15703,-4366,6,-18,6
20,292,1876007,-2241,-15751,-4346,6,-16,6
20,293,1876012,-2327,-15728,-4136,7,-23,5
20,294,1876017,-2219,-15637,-4191,9,-36,8
20,295,1876022,-2150,-15737,-4447,10,-36,10
20,296,1876027,-2237,-15861,-4560,9,-19,7
20,297,1876032,-2421,-15918,-4447,10,2,7
20,298,1876037,-2666,-15903,-4390,13,19,5
20,299,1876042,-2773,-15764,-4404,10,36,5
20,300,1876047,-2669,-15696,-4410,14,60,7
20,301,1876052,-2549,-15823,-4301,18,73,7
20,302,1876057,-2624,-15904,-3992,19,48,8
20,303,1876062,-2785,-15711,-3882,19,2,10
20,304,1876067,-2653,-15573,-4223,24,-31,16
20,305,1876072,-2423,-15644,-4439,27,-24,20
20,306,1876077,-2374,-15735,-4128,27,-3,19
20,307,1876082,-2658,-15704,-3741,32,-10,22
20,308,1876087,-2851,-15599,-3972,36,-43,23
20,309,1876092,-2717,-15470,-4529,36,-57,29
20,310,1876097,-2517,-15480,-4528,35,-38,32
20,311,1876102,-2587,-15556,-4220,33,-23,30
20,312,1876107,-2866,-15609,-4156,36,-35,27
20,313,1876112,-3041,-15513,-4346,35,-41,28
20,314,1876117,-2997,-15384,-4423,36,-14,37
20,315,1876122,-2813,-15431,-4246,38,42,41
20,316,1876127,-2778,-15654,-3950,39,73,43
20,317,1876132,-2908,-15706,-3761,39,55,45
20,318,1876137,-2962,-15568,-3814,38,25,50
20,319,1876142,-2889,-15511,-3933,38,15,57
20,320,1876147,-2934,-15515,-3935,37,28,65
20,321,1876152,-3073,-15475,-4089,38,37,66
20,322,1876157,-3044,-15448,-4065,32,30,75
20,323,1876162,-2958,-15486,-3820,29,19,80
20,324,1876167,-3046,-15539,-3764,31,7,81
20,325,1876172,-3116,-15569,-4042,35,6,88
20,326,1876177,-2942,-15512,-4219,31,15,98
20,327,1876182,-2835,-15509,-4173,30,23,98
20,328,1876187,-3079,-15497,-4211,31,14,98
20,329,1876192,-3375,-15372,-4604,34,10,105
20,330,1876197,-3469,-15261,-5012,35,37,109
20,331,1876202,-3393,-15169,-4886,31,88,110
20,332,1876207,-3480,-15237,-4086,32,107,113
20,333,1876212,-3552,-15239,-3516,29,74,122
20,334,1876217,-3312,-15248,-3679,34,42,129
20,335,1876222,-3259,-15269,-3985,36,60,135
20,336,1876227,-3411,-15310,-3704,36,98,138
20,337,1876232,-3599,-15351,-3160,31,90,144
20,338,1876237,-3630,-15418,-3271,31,36,151
20,339,1876242,-3552,-15490,-4017,31,-1,158
20,340,1876247,-3589,-15470,-4293,26,11,167
20,341,1876252,-3719,-15454,-3762,21,20,172
20,342,1876257,-3624,-15542,-3520,23,-28,180
20,343,1876262,-3474,-15684,-3867,23,-73,186
20,344,1876267,-3607,-15684,-4164,22,-66,184
20,345,1876272,-3972,-15582,-3880,22,-23,187
20,346,1876277,-4065,-15471,-3618,23,-9,192
20,347,1876282,-3787,-15528,-3937,27,-26,201
20,348,1876287,-3533,-15622,-4461,25,-37,206
20,349,1876292,-3612,-15607,-4620,27,-38,208
20,350,1876297,-3852,-15313,-4522,21,-68,219
20,351,1876302,-3953,-15461,-4785,27,-67,223
20,352,1876307,-3931,-15556,-4808,29,-23,224
20,353,1876312,-4044,-15474,-4534,33,45,226
20,354,1876317,-4216,-15383,-4203,35,92,227
20,355,1876322,-4307,-15353,-3942,36,97,237
20,356,1876327,-4122,-15500,-3894,37,86,246
20,357,1876332,-3915,-15580,-4014,41,72,253
20,358,1876337,-3936,-15527,-3882,43,61,255
20,359,1876342,-4047,-15374,-3906,42,34,259
20,360,1876347,-4035,-15394,-4355,44,14,268
20,361,1876352,-4095,-15509,-4680,45,36,272
20,362,1876357,-4144,-15466,-4645,43,87,271
20,363,1876362,-4108,-15411,-4306,43,127,276
20,364,1876367,-4174,-15474,-4059,41,132,281
20,365,1876372,-4173,-15550,-4082,45,121,286
20,366,1876377,-4055,-15404,-4075,46,118,290
20,367,1876382,-4151,-15262,-3870,48,119,295
20,368,1876387,-4314,-15304,-3820,46,104,304
20,369,1876392,-4177,-15326,-3833,46,67,315
20,370,1876397,-4054,-15379,-3659,45,26,327
20,371,1876402,-3995,-15452,-3492,44,-11,335
20,372,1876407,-4030,-15504,-3651,46,-43,344
20,373,1876412,-4172,-15633,-3858,45,-50,354
20,374,1876417,-4215,-15710,-3806,42,-33,360
20,375,1876422,-4114,-15821,-3605,41,-12,364
20,376,1876427,-4032,-15795,-3605,42,-1,366
20,377,1876432,-4004,-15766,-4102,42,10,369
20,378,1876437,-4097,-15668,-4362,42,22,378
20,379,1876442,-4276,-15533,-4055,36,17,379
20,380,1876447,-4424,-15510,-4020,38,-2,386
20,381,1876452,-4384,-15545,-4596,42,6,393
20,382,1876457,-4258,-15535,-4783,46,57,399
20,383,1876462,-4284,-15620,-4377,44,106,402
20,384,1876467,-4426,-15688,-4000,46,111,408
20,385,1876472,-4457,-15637,-4248,50,91,412
20,386,1876477,-4440,-15571,-4694,54,102,415
20,387,1876482,-4568,-15667,-4405,52,139,421
20,388,1876487,-4565,-15704,-3891,55,141,423
20,389,1876492,-4528,-15671,-3920,60,104,429
20,390,1876497,-4546,-15625,-4237,67,74,431
20,391,1876502,-4683,-15723,-4386,71,73,436
20,392,1876507,-4737,-15776,-4119,71,78,440
20,393,1876512,-4582,-15768,-3981,70,68,447
20,394,1876517,-4564,-15821,-3981,73,55,446
20,395,1876522,-4775,-15820,-4094,77,55,443
20,396,1876527,-4887,-15631,-4095,77,73,447
20,397,1876532,-4889,-15498,-3916,81,97,451
20,398,1876537,-4793,-15454,-3773,83,101,454
20,399,1876542,-4740,-15519,-3643,85,75,457
20,400,1876547,-4790,-15533,-3581,89,39,461
20,401,1876552,-4721,-15470,-3746,93,15,468
20,402,1876557,-4761,-15370,-3856,94,23,472
20,403,1876562,-4875,-15410,-4026,97,43,475
20,404,1876567,-4883,-15465,-4159,99,63,476
20,405,1876572,-4786,-15394,-4003,99,71,481
20,406,1876577,-4884,-15404,-3707,95,54,486
20,407,1876582,-4959,-15459,-3599,98,20,493
20,408,1876587,-5032,-15633,-3749,101,-8,499
20,409,1876592,-4969,-15700,-3855,107,-10,505
20,410,1876597,-4894,-15672,-3863,105,3,506
20,411,1876602,-4879,-15723,-4008,108,14,509
20,412,1876607,-5008,-15759,-4123,108,25,509
20,413,1876612,-5254,-15729,-3995,109,36,511
20,414,1876617,-5455,-15678,-3839,109,44,514
20,415,1876622,-5427,-15694,-3818,113,53,519
20,416,1876627,-5195,-15618,-3651,115,58,527
20,417,1876632,-5195,-15587,-3298,115,43,532
20,418,1876637,-5284,-15632,-3428,117,10,536
20,419,1876642,-5457,-15671,-3824,122,-14,542
20,420,1876647,-5554,-15653,-4122,123,-10,549
20,421,1876652,-5544,-15567,-3986,121,20,553
20,422,1876657,-5486,-15494,-3839,117,46,561
20,423,1876662,-5334,-15454,-3897,120,80,566
20,424,1876667,-5307,-15433,-3676,123,98,573
20,425,1876672,-5355,-15384,-3470,122,97,576
20,426,1876677,-5348,-15368,-3661,125,85,581
20,427,1876682,-5281,-15355,-3834,123,75,589
20,428,1876687,-5262,-15406,-3779,120,73,593
20,429,1876692,-5350,-15397,-3651,117,72,599
20,430,1876697,-5409,-15358,-3600,120,63,605
20,431,1876702,-5455,-15426,-3565,122,60,611
20,432,1876707,-5427,-15518,-3718,118,59,614
20,433,1876712,-5415,-15492,-3971,120,65,621
20,434,1876717,-5364,-15506,-3986,120,69,626
20,435,1876722,-5338,-15539,-3816,118,63,633
20,436,1876727,-5321,-15672,-3796,121,55,639
20,437,1876732,-5241,-15838,-3989,121,59,642
20,438,1876737,-5230,-15887,-3960,121,80,642
20,439,1876742,-5377,-15858,-3881,121,94,644
20,440,1876747,-5503,-15875,-3718,117,80,648
20,441,1876752,-5507,-15985,-3600,120,59,655
20,442,1876757,-5278,-16024,-3764,121,51,655
20,443,1876762,-4998,-15943,-3863,123,64,658
20,444,1876767,-5034,-15845,-3681,121,79,656
20,445,1876772,-5204,-15796,-3720,118,62,650
20,446,1876777,-5240,-15739,-4079,121,43,650
20,447,1876782,-5367,-15609,-4164,119,63,645
20,448,1876787,-5529,-15351,-3744,113,104,641
20,449,1876792,-5537,-15156,-3421,115,117,642
20,450,1876797,-5335,-15056,-3636,117,114,641
20,451,1876802,-5158,-15065,-3884,116,109,640
20,452,1876807,-5111,-15031,-3647,112,97,644
20,453,1876812,-5136,-14958,-3465,109,61,643
20,454,1876817,-5188,-15010,-3821,111,19,639
20,455,1876822,-5096,-15205,-4175,114,19,638
20,456,1876827,-4975,-15234,-4127,114,55,637
20,457,1876832,-4894,-15274,-3921,114,84,631
20,458,1876837,-5010,-15352,-3864,117,91,626
20,459,1876842,-5076,-15420,-3914,114,83,617
20,460,1876847,-5022,-15541,-4057,109,81,611
20,461,1876852,-4871,-15639,-3987,110,85,608
20,462,1876857,-4839,-15593,-3773,108,81,602
20,463,1876862,-4914,-15549,-3771,107,56,594
20,464,1876867,-5012,-15571,-4063,109,35,585
20,465,1876872,-5140,-15595,-4113,105,42,580
20,466,1876877,-5272,-15685,-3643,104,64,575
20,467,1876882,-5194,-15672,-3507,104,59,575
20,468,1876887,-4748,-15578,-3735,102,44,569
20,469,1876892,-4573,-15448,-3596,102,23,565
20,470,1876897,-4691,-15396,-3392,98,-28,557
20,471,1876902,-4773,-15240,-3573,100,-93,556
20,472,1876907,-4769,-15145,-3989,101,-116,556
20,473,1876912,-4622,-15131,-4433,101,-75,551
20,474,1876917,-4523,-15069,-4267,97,-14,543
20,475,1876922,-4488,-14964,-3818,93,16,536
20,476,1876927,-4276,-14907,-3636,90,2,529
20,477,1876932,-4049,-14889,-3996,90,-22,522
20,478,1876937,-4090,-14913,-4329,87,-13,508
20,479,1876942,-4372,-14948,-4285,83,14,493
20,480,1876947,-4566,-14844,-4003,78,27,482
20,481,1876952,-4670,-14767,-4009,76,38,473
20,482,1876957,-4639,-14795,-4248,78,82,465
20,483,1876962,-4430,-14839,-4132,78,145,457
20,484,1876967,-4266,-14865,-3526,73,171,449
20,485,1876972,-4086,-14793,-3335,68,120,442
20,486,1876977,-3958,-14787,-3626,67,26,439
20,487,1876982,-3892,-14884,-3893,67,-45,432
20,488,1876987,-3981,-14861,-3898,66,-83,425
20,489,1876992,-4022,-14769,-4082,68,-96,416
20,490,1876997,-3953,-14745,-4257,68,-99,405
20,491,1877002,-3778,-14732,-4189,62,-95,396
20,492,1877007,-3722,-14740,-3865,59,-96,382
20,493,1877012,-3695,-14719,-3673,58,-111,371
20,494,1877017,-3752,-14694,-3842,58,-127,364
20,495,1877022,-3735,-14578,-4048,58,-132,350
20,496,1877027,-3638,-14464,-4186,57,-134,339
20,497,1877032,-3833,-14351,-4440,58,-129,312
20,498,1877037,-3638,-14333,-4901,55,-87,303
20,499,1877042,-3541,-14413,-4814,51,-14,289
20,500,1877047,-3685,-14423,-4044,48,35,270
20,501,1877052,-3883,-14426,-3701,46,28,248
20,502,1877057,-3804,-14369,-3907,47,-1,234
20,503,1877062,-3727,-14377,-4093,44,-9,221
20,504,1877067,-3710,-14341,-3807,41,-19,207
20,505,1877072,-3706,-14318,-3714,39,-64,197
20,506,1877077,-3658,-14382,-4127,40,-113,183
20,507,1877082,-3560,-14424,-4459,36,-122,168
20,508,1877087,-3572,-14432,-4070,34,-101,150
20,509,1877092,-3674,-14514,-3551,33,-93,136
20,510,1877097,-3577,-14523,-3702,32,-118,120
20,511,1877102,-3381,-14496,-4267,32,-141,105
20,512,1877107,-3342,-14462,-4434,25,-137,86
20,513,1877112,-3389,-14450,-4218,17,-135,66
20,514,1877117,-3436,-14426,-3887,9,-150,47
20,515,1877122,-3471,-14470,-3772,8,-155,29
20,516,1877127,-3532,-14533,-3918,8,-133,12
20,517,1877132,-3514,-14643,-3962,4,-94,-9
20,518,1877137,-3501,-14666,-3655,-3,-74,-32
20,519,1877142,-3427,-14646,-3529,-8,-104,-48
20,520,1877147,-3493,-14609,-3722,-15,-149,-66
20,521,1877152,-3524,-14612,-3954,-20,-170,-83
20,522,1877157,-3514,-14652,-3953,-21,-162,-100
20,523,1877162,-3510,-14679,-3742,-26,-155,-121
20,524,1877167,-3464,-14678,-3759,-29,-171,-137
20,525,1877172,-3464,-14682,-4081,-32,-192,-154
20,526,1877177,-3510,-14735,-4140,-37,-199,-173
20,527,1877182,-3590,-14822,-3830,-46,-213,-195
20,528,1877187,-3583,-14887,-3604,-49,-248,-211
20,529,1877192,-3376,-14822,-3768,-51,-291,-227
20,530,1877197,-3381,-14846,-4095,-58,-313,-249
20,531,1877202,-3559,-14907,-4099,-65,-319,-266
20,532,1877207,-3684,-14985,-4099,-73,-316,-285
20,533,1877212,-3662,-15057,-4376,-78,-300,-302
20,534,1877217,-3612,-15152,-4558,-81,-258,-321
20,535,1877222,-3631,-15324,-4164,-90,-220,-346
20,536,1877227,-3848,-15400,-3514,-98,-221,-370
20,537,1877232,-3839,-15373,-3459,-99,-264,-390
20,538,1877237,-3761,-15302,-3791,-103,-305,-408
20,539,1877242,-3834,-15304,-3912,-109,-322,-427
20,540,1877247,-3936,-15323,-3795,-115,-341,-448
20,541,1877252,-3987,-15284,-3921,-123,-369,-464
20,542,1877257,-3970,-15293,-4362,-125,-378,-481
20,543,1877262,-4013,-15396,-4741,-131,-344,-500
20,544,1877267,-4059,-15485,-4739,-140,-298,-517
20,545,1877272,-4072,-15474,-4248,-150,-277,-539
20,546,1877277,-4143,-15492,-3797,-155,-301,-559
20,547,1877282,-4122,-15569,-3993,-159,-338,-576
20,548,1877287,-4087,-15664,-4414,-161,-341,-595
20,549,1877292,-4201,-15759,-4331,-165,-315,-618
20,550,1877297,-4363,-15785,-4155,-178,-309,-639
20,551,1877302,-4550,-15870,-4284,-184,-325,-657
20,552,1877307,-4653,-15837,-4479,-188,-320,-679
20,553,1877312,-4724,-15930,-4464,-197,-280,-696
20,554,1877317,-4660,-15971,-4150,-202,-245,-716
20,555,1877322,-4602,-15994,-4023,-202,-243,-734
20,556,1877327,-4562,-16062,-4015,-208,-263,-748
20,557,1877332,-4611,-16109,-3962,-214,-287,-766
20,558,1877337,-4543,-16147,-3814,-222,-308,-781
20,559,1877342,-4467,-16168,-3647,-224,-333,-794
20,560,1877347,-4343,-16067,-3720,-224,-364,-810
20,561,1877352,-4276,-15950,-4094,-232,-380,-825
20,562,1877357,-4245,-15898,-4554,-236,-362,-840
20,563,1877362,-4343,-15881,-4456,-245,-327,-852
20,564,1877367,-4362,-15886,-3792,-256,-316,-865
20,565,1877372,-4304,-15963,-3556,-260,-340,-875
20,566,1877377,-4253,-16069,-3834,-261,-362,-891
20,567,1877382,-4458,-16102,-3988,-262,-354,-906
20,568,1877387,-4832,-16150,-3775,-270,-350,-919
20,569,1877392,-5019,-16330,-3504,-277,-367,-929
20,570,1877397,-4873,-16569,-3456,-283,-382,-951
20,571,1877402,-5034,-16719,-3640,-280,-369,-964
20,572,1877407,-5333,-16845,-3716,-281,-357,-977
20,573,1877412,-5535,-16893,-3706,-284,-342,-993
20,574,1877417,-5490,-16796,-3946,-282,-309,-1006
20,575,1877422,-5303,-16859,-4486,-279,-240,-1018
20,576,1877427,-5366,-17013,-4613,-279,-152,-1039
20,577,1877432,-5505,-16929,-4096,-282,-101,-1059
20,578,1877437,-5652,-16724,-4175,-278,-106,-1073
20,579,1877442,-5684,-16661,-4803,-271,-108,-1087
20,580,1877447,-5748,-16739,-4502,-275,-82,-1101
20,581,1877452,-5808,-16757,-3280,-282,-79,-1116
20,582,1877457,-5627,-16715,-2825,-277,-129,-1124
20,583,1877462,-5684,-16666,-2546,-272,-175,-1133
20,584,1877467,-5840,-16720,-2394,-270,-211,-1133
20,585,1877472,-5769,-16793,-2286,-267,-239,-1130
20,586,1877477,-5612,-16985,-1532,-272,-287,-1134
20,587,1877482,-5590,-17281,-1109,-271,-376,-1135
20,588,1877487,-5508,-17450,-1726,-265,-471,-1132
20,589,1877492,-5623,-17477,-2397,-273,-505,-1138
20,590,1877497,-6107,-17488,-2306,-275,-508,-1143
20,591,1877502,-6666,-17503,-2336,-279,-538,-1147
20,592,1877507,-6858,-17372,-2702,-283,-573,-1147
20,593,1877512,-6523,-17405,-3546,-282,-567,-1147
20,594,1877517,-6667,-17486,-3600,-285,-508,-1156
20,595,1877522,-7031,-17404,-3073,-287,-484,-1165
20,596,1877527,-7121,-17122,-3154,-287,-506,-1167
20,597,1877532,-7107,-16943,-3933,-285,-491,-1168
20,598,1877537,-7035,-16979,-4316,-287,-399,-1169
20,599,1877542,-4510,-8397,-8247,-304,-276,-1144
20,600,1877547,-25222,-5641,14772,-323,-21,-1264
20,601,1877552,-5282,-12106,-1424,-127,-1533,-461
20,602,1877557,5066,-14439,-21149,-35,-762,-289
20,603,1877562,229,-22437,-6441,-288,2150,-1005
20,604,1877567,-8448,-17949,17336,-347,1803,-1043
20,605,1877572,-7279,-14551,6721,-169,-869,-743
20,606,1877577,-8759,-16247,-11784,-59,-1498,-667
20,607,1877582,-7967,-17274,-12141,-156,-33,-738
20,608,1877587,-7740,-15559,1099,-277,1257,-824
20,609,1877592,-5610,-15814,5483,-228,781,-790
20,610,1877597,-4627,-16977,-2312,-135,-356,-726
20,611,1877602,-5693,-16565,-6730,-163,-434,-741
20,612,1877607,-7560,-15792,-3149,-193,224,-767
20,613,1877612,-7870,-15882,639,-175,486,-754
20,614,1877617,-6830,-15692,-906,-152,94,-746
20,615,1877622,-6325,-15552,-4386,-145,-276,-736
20,616,1877627,-6592,-15580,-4756,-157,-166,-734
20,617,1877632,-6898,-15512,-2306,-158,114,-732
20,618,1877637,-6392,-15346,-1299,-141,136,-724
20,619,1877642,-5848,-15249,-2267,-121,-5,-710
20,620,1877647,-5794,-15200,-3393,-115,-65,-706
20,621,1877652,-6123,-15139,-3009,-117,22,-700
20,622,1877657,-6376,-15133,-1947,-116,87,-692
20,623,1877662,-6224,-14898,-1689,-107,43,-678
20,624,1877667,-5743,-15091,-1816,-93,11,-655
20,625,1877672,-5536,-15002,-2135,-91,-2,-650
20,626,1877677,-5788,-15026,-1774,-89,10,-643
20,627,1877682,-5881,-14937,-1766,-82,-11,-631
20,628,1877687,-5736,-14703,-2025,-74,-38,-614
20,629,1877692,-5548,-14814,-2580,-68,-33,-595
20,630,1877697,-5479,-14818,-2485,-66,0,-587
20,631,1877702,-5325,-14826,-2484,-63,-5,-575
20,632,1877707,-5242,-14956,-2403,-54,-25,-563
20,633,1877712,-5270,-14919,-2300,-48,-59,-552
20,634,1877717,-5064,-14940,-2784,-40,-104,-530
20,635,1877722,-5787,-14831,-2432,-38,-113,-521
20,636,1877727,-5710,-14645,-2391,-31,-142,-498
20,637,1877732,-5225,-14779,-3179,-18,-147,-478
20,638,1877737,-5097,-14876,-2719,-23,-109,-478
20,639,1877742,-5084,-14805,-2046,-23,-148,-462
20,640,1877747,-5453,-14616,-2022,-11,-224,-442
20,641,1877752,-5315,-14534,-2925,-1,-254,-422
20,642,1877757,-4968,-14712,-2743,1,-197,-405
20,643,1877762,-4782,-14924,-2695,9,-182,-382
20,644,1877767,-4818,-14950,-3039,9,-200,-366
20,645,1877772,-4923,-14721,-3286,7,-174,-365
20,646,1877777,-4942,-14878,-2961,11,-109,-345
20,647,1877782,-4799,-15134,-3009,17,-67,-334
20,648,1877787,-4652,-15317,-2659,21,-49,-324
20,649,1877792,-4716,-15385,-2749,23,-81,-318
20,650,1877797,-4840,-15520,-3087,29,-106,-301
20,651,1877802,-4694,-15435,-3656,35,-98,-291
20,652,1877807,-4708,-15471,-3847,40,-35,-283
20,653,1877812,-4951,-15610,-3775,43,32,-276
20,654,1877817,-4817,-15424,-3732,43,85,-264
20,655,1877822,-4479,-15346,-3639,43,135,-254
20,656,1877827,-4248,-15554,-3691,50,168,-247
20,657,1877832,-4015,-15552,-3437,49,164,-242
20,658,1877837,-3951,-15484,-3482,50,125,-235
20,659,1877842,-3998,-15484,-3902,56,86,-220
20,660,1877847,-3948,-15343,-3775,57,81,-211
20,661,1877852,-3692,-15297,-3742,55,77,-200
20,662,1877857,-3362,-15345,-3917,63,69,-189
20,663,1877862,-3300,-15443,-3838,62,85,-181
20,664,1877867,-3374,-15526,-3953,67,98,-173
20,665,1877872,-3413,-15522,-4053,70,117,-163
20,666,1877877,-3331,-15535,-3892,68,119,-158
20,667,1877882,-3178,-15570,-3217,62,84,-146
20,668,1877887,-2946,-15700,-3007,65,9,-133
20,669,1877892,-2748,-15896,-3347,70,-56,-122
20,670,1877897,-2559,-16000,-4129,71,-88,-113
20,671,1877902,-2611,-16010,-4259,69,-72,-108
20,672,1877907,-2900,-16082,-3979,66,-65,-109
20,673,1877912,-2953,-16102,-4039,61,-77,-106
20,674,1877917,-2978,-15970,-4166,60,-62,-100
20,675,1877922,-2966,-15894,-4273,65,-30,-95
20,676,1877927,-2742,-15754,-4185,64,3,-92
20,677,1877932,-2504,-15695,-4174,60,9,-91
20,678,1877937,-2561,-15642,-4521,62,-6,-87
20,679,1877942,-2598,-15577,-4783,58,-8,-87
20,680,1877947,-2542,-15557,-4798,54,16,-87
20,681,1877952,-2338,-15575,-4330,48,56,-86
20,682,1877957,-2140,-15502,-4050,44,55,-85
20,683,1877962,-2063,-15519,-3703,45,45,-81
20,684,1877967,-1938,-15680,-3526,45,24,-80
20,685,1877972,-1686,-15765,-3647,45,2,-74
20,686,1877977,-1587,-15691,-3769,42,-3,-72
20,687,1877982,-1652,-15565,-3837,37,-32,-70
20,688,1877987,-1650,-15572,-4127,33,-74,-63
20,689,1877992,-1428,-15617,-4456,29,-78,-58
20,690,1877997,-1310,-15750,-4276,27,-53,-61
20,691,1878002,-1489,-15816,-4325,20,-55,-65
20,692,1878007,-1643,-15751,-4362,21,-52,-63
20,693,1878012,-1547,-15724,-4288,19,-36,-60
20,694,1878017,-1464,-15856,-4280,16,-35,-62
20,695,1878022,-1473,-15863,-3892,13,-50,-59
20,696,1878027,-1614,-15767,-3987,13,-97,-57
20,697,1878032,-1671,-15732,-4635,15,-138,-53
20,698,1878037,-1614,-15672,-5179,13,-110,-50
20,699,1878042,-1604,-15637,-4854,12,-33,-54
20,700,1878047,-1500,-15650,-4984,15,-3,-54
20,701,1878052,-1379,-15587,-5141,15,33,-56
20,702,1878057,-1319,-15413,-4690,10,83,-59
20,703,1878062,-1352,-15366,-4207,11,102,-59
20,704,1878067,-1273,-15359,-4047,12,93,-56
20,705,1878072,-1073,-15375,-4147,12,69,-50
20,706,1878077,-1072,-15518,-4054,13,51,-46
20,707,1878082,-941,-15602,-3985,12,36,-44
20,708,1878087,-732,-15651,-3991,10,30,-38
20,709,1878092,-650,-15599,-4230,12,41,-35
20,710,1878097,-828,-15556,-4283,10,62,-34
20,711,1878102,-964,-15492,-4231,11,64,-30
20,712,1878107,-941,-15408,-4216,10,48,-23
20,713,1878112,-930,-15454,-4194,9,22,-18
20,714,1878117,-984,-15644,-4263,12,-4,-10
20,715,1878122,-1103,-15850,-4469,14,-31,-6
20,716,1878127,-1010,-15840,-4393,14,-27,-4
20,717,1878132,-1073,-15773,-4715,22,-5,-2
20,718,1878137,-1301,-15773,-4650,24,21,0
20,719,1878142,-1292,-15785,-4501,20,50,0
20,720,1878147,-1226,-15923,-4121,19,64,4
20,721,1878152,-1066,-16037,-3691,18,61,9
20,722,1878157,-1001,-16052,-3491,22,43,12
20,723,1878162,-1055,-16073,-3519,22,16,14
20,724,1878167,-1048,-16051,-3574,21,-12,17
20,725,1878172,-898,-16007,-3676,21,-31,23
20,726,1878177,-825,-15979,-3782,20,-44,25
20,727,1878182,-882,-15969,-3844,16,-40,25
20,728,1878187,-936,-15901,-3997,17,-25,23
20,729,1878192,-1199,-15819,-4241,19,-1,21
20,730,1878197,-1348,-15665,-4441,18,15,19
20,731,1878202,-1525,-15567,-4481,17,29,19
20,732,1878207,-1555,-15574,-4454,19,37,17
20,733,1878212,-1429,-15546,-4238,18,47,20
20,734,1878217,-1351,-15606,-4062,22,56,17
20,735,1878222,-1365,-15670,-3850,24,58,13
20,736,1878227,-1345,-15678,-3594,21,50,13
20,737,1878232,-1324,-15682,-3515,18,36,13
20,738,1878237,-1271,-15793,-3515,19,28,16
20,739,1878242,-1189,-15954,-3422,15,30,12
20,740,1878247,-1043,-15998,-3269,11,32,11
20,741,1878252,-930,-15963,-3245,9,30,11
20,742,1878257,-909,-15903,-3592,10,19,9
20,743,1878262,-1038,-15833,-3769,11,17,6
20,744,1878267,-1133,-15767,-3770,7,19,7
20,745,1878272,-1051,-15740,-3817,2,27,4
20,746,1878277,-989,-15678,-3748,2,37,5
20,747,1878282,-962,-15639,-3566,1,37,5
20,748,1878287,-1030,-15588,-3584,2,19,3
20,749,1878292,-1185,-15623,-3900,1,1,2
20,750,1878297,-1300,-15684,-4096,1,0,1
20,751,1878302,-1280,-15681,-3922,-3,14,3
20,752,1878307,-1220,-15797,-3855,-4,27,4
20,753,1878312,-1096,-15974,-3849,-2,33,1
20,754,1878317,-997,-16002,-3618,-2,30,4
20,755,1878322,-981,-16016,-3408,-2,19,7
20,756,1878327,-1022,-16177,-3460,-4,-1,7
20,757,1878332,-904,-16252,-3584,-8,-7,6
20,758,1878337,-889,-16262,-3548,-8,10,5
20,759,1878342,-911,-16281,-3496,-11,28,1
20,760,1878347,-898,-16127,-3444,-12,32,-1
20,761,1878352,-841,-16033,-3576,-17,34,-3
20,762,1878357,-827,-16017,-3684,-18,31,0
20,763,1878362,-817,-15944,-3663,-17,34,2
20,764,1878367,-890,-15875,-3791,-17,33,3
20,765,1878372,-1049,-15832,-3922,-16,34,3
20,766,1878377,-1133,-15828,-4063,-18,35,2
20,767,1878382,-1231,-15837,-4113,-18,44,0
20,768,1878387,-1172,-15831,-4051,-17,55,3
20,769,1878392,-1075,-15879,-4045,-17,61,1
20,770,1878397,-1038,-15931,-3888,-20,62,3
20,771,1878402,-1119,-16044,-3782,-18,66,2
20,772,1878407,-1120,-16092,-3761,-15,74,4
20,773,1878412,-1056,-16090,-3666,-17,90,2
20,774,1878417,-965,-16079,-3455,-19,93,2
20,775,1878422,-809,-16078,-3392,-16,79,0
20,776,1878427,-689,-16075,-3526,-14,58,5
20,777,1878432,-729,-16015,-3647,-15,52,3
20,778,1878437,-837,-15978,-3781,-14,58,7
20,779,1878442,-897,-15913,-3892,-17,70,6
20,780,1878447,-879,-15863,-3902,-15,78,5
20,781,1878452,-908,-15858,-3845,-12,80,4
20,782,1878457,-897,-15896,-3841,-13,69,4
20,783,1878462,-895,-15867,-3983,-11,55,6
20,784,1878467,-1000,-15876,-4149,-6,48,6
20,785,1878472,-1175,-15838,-4149,-5,45,6
20,786,1878477,-1234,-15808,-4147,-2,43,8
20,787,1878482,-1272,-15789,-4025,-1,43,12
20,788,1878487,-1058,-15856,-3974,-1,51,9
20,789,1878492,-892,-15938,-3975,1,66,6
20,790,1878497,-1171,-15830,-3799,9,80,5
20,791,1878502,-1213,-15773,-3831,7,78,5
20,792,1878507,-1097,-15803,-3820,5,74,4
20,793,1878512,-847,-15816,-3721,8,59,8
20,794,1878517,-794,-15840,-3528,9,27,8
20,795,1878522,-909,-15795,-3643,9,-12,6
20,796,1878527,-1060,-15718,-3878,13,-29,7
20,797,1878532,-1178,-15703,-4030,12,-8,9
20,798,1878537,-1189,-15766,-3861,14,22,10
20,799,1878542,-1091,-15819,-3694,12,33,8
20,800,1878547,-979,-15861,-3751,13,22,8
20,801,1878552,-1115,-15926,-3977,13,7,9
20,802,1878557,-1247,-15890,-4013,13,7,8
20,803,1878562,-1281,-15805,-3901,10,17,7
20,804,1878567,-1157,-15847,-3831,13,23,10
20,805,1878572,-968,-15923,-3839,14,30,10
20,806,1878577,-938,-15943,-3891,9,39,7
20,807,1878582,-1004,-15968,-3831,12,39,7
20,808,1878587,-980,-15942,-3913,10,42,4
20,809,1878592,-1034,-15932,-4040,12,54,7
20,810,1878597,-1219,-15955,-3920,9,74,3
20,811,1878602,-1265,-15921,-3660,6,77,2
20,812,1878607,-1107,-15840,-3537,6,58,4
20,813,1878612,-1020,-15972,-3677,6,36,5
20,814,1878617,-990,-16009,-3725,6,14,6
20,815,1878622,-1020,-15947,-3813,5,-4,8
20,816,1878627,-1124,-16007,-3985,5,-13,9
20,817,1878632,-1176,-16128,-4086,3,-6,8
20,818,1878637,-1165,-16233,-3974,-1,11,6
20,819,1878642,-1136,-16230,-3754,-3,28,7
20,820,1878647,-1151,-16180,-3651,-6,34,4
20,821,1878652,-1249,-16145,-3645,-4,30,5
20,822,1878657,-1214,-16077,-3696,-2,13,5
20,823,1878662,-1198,-16123,-3725,-7,-9,8
20,824,1878667,-1190,-16143,-3794,-4,-27,6
20,825,1878672,-1012,-16056,-4084,-5,-39,7
20,826,1878677,-1041,-16029,-4354,-5,-20,7
20,827,1878682,-1237,-16036,-4399,-7,21,0
20,828,1878687,-1350,-15925,-4269,-7,58,-1
20,829,1878692,-1293,-15865,-4100,-11,83,-2
20,830,1878697,-1172,-15883,-3868,-10,96,-2
20,831,1878702,-1058,-15881,-3619,-11,96,-4
20,832,1878707,-1034,-15878,-3503,-12,71,-2
20,833,1878712,-993,-15907,-3503,-9,39,1
20,834,1878717,-1054,-15825,-3697,-10,15,0
20,835,1878722,-1086,-15750,-4094,-9,9,4
20,836,1878727,-978,-15755,-4305,-10,23,6
20,837,1878732,-968,-15760,-4205,-10,38,3
20,838,1878737,-1058,-15763,-4073,-10,31,5
20,839,1878742,-1108,-15898,-4015,-9,16,6
20,840,1878747,-1132,-15899,-3916,-6,9,5
20,841,1878752,-1124,-15795,-3854,-7,6,7
20,842,1878757,-1127,-15779,-3802,-5,0,10
20,843,1878762,-1136,-15722,-3756,-2,-27,13
20,844,1878767,-1075,-15661,-3803,-4,-56,15
20,845,1878772,-1023,-15743,-3986,-2,-77,19
20,846,1878777,-974,-15770,-4114,-3,-76,18
20,847,1878782,-940,-15782,-4236,-4,-62,17
20,848,1878787,-942,-15772,-4297,-4,-42,19
20,849,1878792,-946,-15845,-4320,-1,-26,20
20,850,1878797,-1039,-15865,-4329,-1,-4,16
20,851,1878802,-1066,-15866,-4220,1,27,18
20,852,1878807,-982,-15884,-3947,1,59,19
20,853,1878812,-920,-15972,-3668,3,60,17
20,854,1878817,-892,-16010,-3704,2,32,20
20,855,1878822,-987,-16061,-3864,5,-4,23
20,856,1878827,-1203,-16021,-4075,5,-20,21
20,857,1878832,-1273,-16037,-4290,3,-5,22
20,858,1878837,-1094,-16083,-4280,5,30,23
20,859,1878842,-985,-16112,-3986,3,65,23
20,860,1878847,-1012,-16136,-3804,2,65,19
20,861,1878852,-1043,-16017,-3700,2,45,15
20,862,1878857,-1079,-15867,-3721,0,24,16
20,863,1878862,-1061,-15809,-3610,0,-7,20
20,864,1878867,-903,-15848,-3708,1,-32,24
20,865,1878872,-879,-15916,-4001,1,-46,23
20,866,1878877,-964,-15961,-4206,2,-46,23
20,867,1878882,-999,-15895,-4197,-4,-32,22
20,868,1878887,-1049,-15928,-4144,-4,-12,19
20,869,1878892,-1067,-15902,-4052,-5,4,15
20,870,1878897,-1111,-15945,-3968,-5,19,14
20,871,1878902,-1190,-16034,-3885,-5,23,13
20,872,1878907,-1201,-16053,-3919,-7,15,12
20,873,1878912,-1112,-16002,-3948,-7,7,8
20,874,1878917,-1057,-16020,-4010,-7,-4,5
20,875,1878922,-1045,-16025,-4012,-6,-12,6
20,876,1878927,-1077,-15922,-4116,-7,-12,7
20,877,1878932,-1076,-15875,-4264,-12,7,6
20,878,1878937,-1037,-15911,-4103,-13,30,3
20,879,1878942,-966,-15934,-3835,-16,46,2
20,880,1878947,-983,-15889,-3768,-14,49,0
20,881,1878952,-971,-15875,-3923,-12,45,1
20,882,1878957,-993,-15961,-3872,-12,46,0
20,883,1878962,-1069,-16004,-3828,-14,42,-2
20,884,1878967,-1010,-15888,-3892,-13,21,0
20,885,1878972,-978,-15790,-4009,-14,4,1
20,886,1878977,-1087,-15770,-4025,-19,-7,-1
20,887,1878982,-1102,-15762,-4098,-18,-14,0
20,888,1878987,-1042,-15809,-4135,-18,-15,2
20,889,1878992,-985,-15782,-4008,-20,-5,0
20,890,1878997,-1002,-15766,-3834,-18,4,-3
20,891,1879002,-1015,-15788,-3804,-20,7,-2
20,892,1879007,-830,-15875,-4014,-22,5,1
20,893,1879012,-650,-15923,-3904,-23,5,1
20,894,1879017,-723,-15927,-3711,-25,2,-1
20,895,1879022,-966,-15892,-3877,-22,-5,-3
20,896,1879027,-1194,-15866,-4136,-20,4,-2
20,897,1879032,-1141,-15815,-4140,-24,32,0
20,898,1879037,-1024,-15830,-3974,-25,60,1
20,899,1879042,-887,-15974,-3964,-26,59,1
20,900,1879047,-966,-15974,-4108,-24,44,-1
20,901,1879052,-1053,-15934,-4096,-26,24,-2
20,902,1879057,-1141,-15862,-3963,-25,15,0
20,903,1879062,-1222,-15952,-3929,-25,13,0
20,904,1879067,-1175,-16024,-3922,-25,17,-1
20,905,1879072,-1027,-15995,-3931,-24,22,0
20,906,1879077,-954,-16025,-3988,-23,21,3
20,907,1879082,-991,-16003,-3875,-24,8,2
20,908,1879087,-1094,-15981,-3894,-25,-8,0
20,909,1879092,-1109,-15897,-4001,-21,-16,4
20,910,1879097,-1077,-15789,-4213,-21,-6,2
20,911,1879102,-1123,-15809,-4298,-20,13,-1
20,912,1879107,-1135,-15845,-4176,-20,22,2
20,913,1879112,-1138,-15772,-3928,-22,20,1
20,914,1879117,-1136,-15808,-3979,-19,17,-2
20,915,1879122,-1180,-15816,-4065,-16,33,-2
20,916,1879127,-1258,-15794,-3932,-15,57,-1
20,917,1879132,-1261,-15771,-3767,-15,61,0
20,918,1879137,-1264,-15738,-3761,-18,40,-2
20,919,1879142,-1174,-15750,-3800,-18,17,-2
20,920,1879147,-1105,-15844,-3874,-19,5,-2
20,921,1879152,-1110,-15898,-3756,-19,6,-5
20,922,1879157,-1226,-15857,-3754,-19,4,-6
20,923,1879162,-1325,-15840,-4047,-16,3,-8
20,924,1879167,-1188,-15816,-4236,-15,17,-8
20,925,1879172,-981,-15808,-4084,-16,37,-4
20,926,1879177,-957,-15881,-3862,-14,37,-3
20,927,1879182,-1035,-15902,-3724,-15,14,-7
20,928,1879187,-1043,-15863,-3906,-13,-7,-5
20,929,1879192,-971,-15811,-4124,-9,6,-5
20,930,1879197,-1015,-15787,-4018,-10,37,-3
20,931,1879202,-1106,-15856,-3860,-11,52,-5
20,932,1879207,-996,-15883,-3959,-8,41,-8
20,933,1879212,-1005,-15852,-4110,-7,41,-10
20,934,1879217,-1109,-15794,-4140,-10,57,-11
20,935,1879222,-1125,-15751,-4060,-8,72,-10
20,936,1879227,-1137,-15785,-4070,-6,74,-8
20,937,1879232,-992,-15877,-4066,-4,71,-9
20,938,1879237,-1023,-15889,-3887,-4,73,-9
20,939,1879242,-1092,-15883,-3734,-2,63,-9
20,940,1879247,-1123,-15827,-3641,-2,44,-8
20,941,1879252,-1083,-15823,-3774,0,19,-6
20,942,1879257,-959,-15849,-3906,0,4,-7
20,943,1879262,-937,-15860,-3826,-1,-5,-7
20,944,1879267,-929,-15827,-3886,-1,-23,-6
20,945,1879272,-866,-15831,-4122,3,-40,-6
20,946,1879277,-870,-15775,-4168,1,-42,-4
20,947,1879282,-913,-15762,-4189,-1,-33,-2
20,948,1879287,-981,-15815,-4223,-2,-26,-3
20,949,1879292,-1008,-15834,-4211,0,-12,-3
20,950,1879297,-940,-15869,-4137,1,2,-2
20,951,1879302,-851,-15904,-4099,-1,16,-1
20,952,1879307,-838,-15913,-4060,1,27,-6
20,953,1879312,-1037,-15907,-4061,0,27,-7
20,954,1879317,-1154,-15914,-4188,3,29,-5
20,955,1879322,-1077,-15952,-4360,3,40,-8
20,956,1879327,-979,-15962,-4339,-1,62,-7
20,957,1879332,-1068,-15984,-4209,0,76,-10
20,958,1879337,-1127,-15959,-4099,-1,71,-11
20,959,1879342,-1160,-15960,-3996,-1,68,-10
20,960,1879347,-1031,-15978,-4011,1,68,-12
20,961,1879352,-931,-15947,-4049,1,74,-10
20,962,1879357,-898,-15934,-3830,0,70,-10
20,963,1879362,-904,-15903,-3671,-2,39,-10
20,964,1879367,-955,-15879,-3886,-1,9,-5
20,965,1879372,-1021,-15886,-4254,1,4,-7
20,966,1879377,-1039,-15844,-4363,0,22,-9
20,967,1879382,-1030,-15824,-4156,-3,28,-9
20,968,1879387,-980,-15817,-4045,-4,18,-5
20,969,1879392,-922,-15804,-4163,-4,5,-5
20,970,1879397,-970,-15847,-4151,-3,6,-9
20,971,1879402,-1064,-15870,-4032,-2,13,-7
20,972,1879407,-986,-15872,-4079,-2,3,-6
20,973,1879412,-899,-15823,-4199,-1,-8,-6
20,974,1879417,-929,-15787,-4273,-3,-15,-7
20,975,1879422,-1017,-15878,-4373,-3,-13,-7
20,976,1879427,-1139,-15895,-4479,-2,-1,-5
20,977,1879432,-1102,-15845,-4323,-3,15,-8
20,978,1879437,-1013,-15879,-4097,-3,28,-9
20,979,1879442,-940,-15884,-4024,-3,30,-10
20,980,1879447,-941,-15937,-4104,-1,22,-5
20,981,1879452,-1012,-15869,-4098,0,10,-8
20,982,1879457,-1105,-15792,-3945,-3,-9,-6
20,983,1879462,-1028,-15843,-4029,-3,-30,-3
20,984,1879467,-863,-15910,-4257,0,-33,-3
20,985,1879472,-921,-15929,-4300,-1,-8,-3
20,986,1879477,-1085,-15965,-4423,-1,14,-4
20,987,1879482,-1086,-15909,-4287,-2,28,-4
20,988,1879487,-993,-15815,-4099,-10,38,-3
20,989,1879492,-1023,-15881,-4079,-6,52,-4
20,990,1879497,-982,-15948,-4051,-5,60,-7
20,991,1879502,-858,-15821,-3854,-7,59,-3
20,992,1879507,-828,-15816,-3802,-8,43,-4
20,993,1879512,-823,-15786,-3936,-5,20,-1
20,994,1879517,-776,-15742,-4077,-7,10,0
20,995,1879522,-837,-15714,-4008,-11,11,0
20,996,1879527,-948,-15702,-3893,-11,4,0
20,997,1879532,-1071,-15688,-3969,-6,-6,0
20,998,1879537,-1032,-15711,-4076,-8,-7,-1
20,999,1879542,-899,-15780,-4029,-9,-3,3
