event_id,seq,ts_ms,ax,ay,az,gx,gy,gz
19,0,1501027,-2028,-15801,-3973,-4,-19,-7
19,1,1501032,-2031,-15791,-4052,-2,-21,-9
19,2,1501037,-2024,-15791,-4105,-4,-14,-6
19,3,1501042,-2059,-15814,-3969,1,-6,-4
19,4,1501047,-2022,-15794,-3838,2,-9,-2
19,5,1501052,-1920,-15800,-3871,1,-16,-1
19,6,1501057,-1895,-15794,-3983,2,-13,0
19,7,1501062,-1923,-15831,-4024,5,-7,1
19,8,1501067,-1936,-15800,-4023,4,-7,0
19,9,1501072,-1846,-15807,-4134,4,-12,0
19,10,1501077,-1866,-15804,-4219,4,-9,-2
19,11,1501082,-2017,-15810,-4099,2,-1,-3
19,12,1501087,-2052,-15772,-3943,1,-4,-2
19,13,1501092,-2008,-15784,-3987,3,-8,-3
19,14,1501097,-1868,-15809,-4063,4,-9,-2
19,15,1501102,-1832,-15827,-4067,5,-3,-1
19,16,1501107,-1931,-15775,-3945,4,-5,-6
19,17,1501112,-1929,-15763,-3951,6,-15,-5
19,18,1501117,-1839,-15779,-4119,6,-13,-2
19,19,1501122,-1850,-15803,-4147,6,-4,-3
19,20,1501127,-1935,-15813,-3955,7,7,-4
19,21,1501132,-2050,-15834,-3819,8,4,-5
19,22,1501137,-2112,-15789,-3792,8,-11,-6
19,23,1501142,-2122,-15799,-3922,4,-17,-1
19,24,1501147,-2041,-15822,-3938,4,-11,-1
19,25,1501152,-1964,-15822,-3812,2,-5,-2
19,26,1501157,-1905,-15809,-3769,1,-11,-1
19,27,1501162,-1914,-15797,-3811,2,-14,-1
19,28,1501167,-1928,-15808,-3895,2,-11,0
19,29,1501172,-1954,-15772,-3972,2,8,2
19,30,1501177,-1952,-15762,-3899,1,8,1
19,31,1501182,-2006,-15773,-3846,3,2,2
19,32,1501187,-2019,-15766,-3913,0,-5,2
19,33,1501192,-2033,-15835,-3957,-1,-7,1
19,34,1501197,-1987,-15786,-3889,2,-7,1
19,35,1501202,-1927,-15770,-3838,-1,1,2
19,36,1501207,-1898,-15809,-3837,1,3,0
19,37,1501212,-2016,-15803,-3963,3,-1,-2
19,38,1501217,-2140,-15806,-3978,1,-12,-4
19,39,1501222,-2149,-15777,-3968,2,-17,-3
19,40,1501227,-2107,-15776,-3987,3,-9,1
19,41,1501232,-2071,-15792,-3876,1,4,-3
19,42,1501237,-2048,-15772,-3871,1,3,-3
19,43,1501242,-1927,-15764,-4006,1,-7,-3
19,44,1501247,-1928,-15817,-4149,4,-17,-4
19,45,1501252,-2032,-15794,-4228,4,-17,-5
19,46,1501257,-2031,-15839,-4190,0,-9,-3
19,47,1501262,-2045,-15813,-4117,1,-1,-4
19,48,1501267,-1983,-15804,-3986,2,2,-2
19,49,1501272,-2011,-15789,-3962,3,-1,-1
19,50,1501277,-2026,-15819,-3963,4,-11,-1
19,51,1501282,-2086,-15796,-3977,4,-16,-1
19,52,1501287,-2041,-15768,-4068,4,-14,1
19,53,1501292,-2003,-15780,-4085,5,-7,-5
19,54,1501297,-1954,-15802,-4025,2,-2,-3
19,55,1501302,-1924,-15800,-3916,2,-9,-4
19,56,1501307,-1909,-15803,-4013,4,-14,-3
19,57,1501312,-1945,-15811,-4101,5,-8,-3
19,58,1501317,-2033,-15817,-4045,4,3,-4
19,59,1501322,-2046,-15792,-3916,2,4,-5
19,60,1501327,-2079,-15801,-3942,4,3,-4
19,61,1501332,-2078,-15804,-3907,8,0,-2
19,62,1501337,-2037,-15789,-3830,8,2,-3
19,63,1501342,-2021,-15782,-3802,2,5,-5
19,64,1501347,-1974,-15777,-3764,3,-2,-6
19,65,1501352,-2019,-15767,-3881,6,-5,-6
19,66,1501357,-2004,-15794,-3872,4,-6,-6
19,67,1501362,-2065,-15793,-3867,4,-12,-9
19,68,1501367,-2040,-15803,-3975,5,-17,-8
19,69,1501372,-2015,-15786,-4001,7,-14,-5
19,70,1501377,-1997,-15809,-3852,4,-9,-5
19,71,1501382,-2052,-15790,-3840,4,-4,-6
19,72,1501387,-2046,-15808,-3985,6,-6,-3
19,73,1501392,-2003,-15844,-4150,5,-4,-3
19,74,1501397,-1959,-15810,-4062,3,-4,-5
19,75,1501402,-1923,-15813,-3921,1,-4,-3
19,76,1501407,-1862,-15812,-3896,-1,-6,-5
19,77,1501412,-1988,-15812,-4020,1,-3,-6
19,78,1501417,-2007,-15750,-4053,4,4,-7
19,79,1501422,-2103,-15706,-3966,3,5,-5
19,80,1501427,-2037,-15768,-3848,-1,2,-8
19,81,1501432,-1959,-15793,-3834,1,-2,-5
19,82,1501437,-1910,-15787,-3819,2,-1,-6
19,83,1501442,-1963,-15768,-3741,2,1,-6
19,84,1501447,-2073,-15790,-3713,2,-5,-5
19,85,1501452,-2086,-15805,-3663,3,-14,-5
19,86,1501457,-1999,-15814,-3845,3,-19,-7
19,87,1501462,-1876,-15811,-3847,0,-15,-6
19,88,1501467,-1872,-15818,-3764,-1,-8,-8
19,89,1501472,-1880,-15778,-3725,-1,-12,-6
19,90,1501477,-1960,-15836,-3867,-1,-21,-5
19,91,1501482,-2002,-15817,-3893,0,-25,-6
19,92,1501487,-2018,-15830,-3896,0,-20,-6
19,93,1501492,-1990,-15841,-4005,-1,-15,-3
19,94,1501497,-1966,-15836,-4088,-1,-7,-5
19,95,1501502,-2001,-15858,-4126,-2,-10,-8
19,96,1501507,-2024,-15775,-4158,-3,-21,-7
19,97,1501512,-1983,-15813,-4231,-2,-27,-4
19,98,1501517,-1957,-15800,-4268,-3,-20,-4
19,99,1501522,-1957,-15792,-4109,-1,0,-4
19,100,1501527,-1986,-15826,-3999,1,10,-1
19,101,1501532,-1951,-15781,-4010,2,9,0
19,102,1501537,-1907,-15834,-4049,1,4,1
19,103,1501542,-2019,-15851,-3972,0,-4,-3
19,104,1501547,-2123,-15924,-3995,3,-2,-4
19,105,1501552,-2068,-15898,-3910,2,5,-4
19,106,1501557,-1952,-15819,-3892,3,12,-6
19,107,1501562,-1920,-15778,-3935,5,15,-9
19,108,1501567,-2103,-15789,-3935,5,9,-11
19,109,1501572,-2127,-15715,-4025,2,-3,-12
19,110,1501577,-2042,-15726,-4003,2,-9,-10
19,111,1501582,-2042,-15790,-4011,4,-11,-6
19,112,1501587,-2013,-15739,-4026,2,-10,-8
19,113,1501592,-1886,-15732,-4023,5,-13,-9
19,114,1501597,-1811,-15797,-4116,5,-15,-6
19,115,1501602,-1886,-15776,-4062,4,-13,-7
19,116,1501607,-1944,-15803,-4002,3,-12,-8
19,117,1501612,-1935,-15811,-3943,5,-10,-9
19,118,1501617,-1974,-15732,-3845,4,-4,-10
19,119,1501622,-1924,-15750,-3767,3,-6,-8
19,120,1501627,-1917,-15779,-3783,6,-7,-4
19,121,1501632,-1965,-15803,-3875,7,-5,-5
19,122,1501637,-1967,-15807,-3823,3,-3,-8
19,123,1501642,-2027,-15810,-3753,4,0,-7
19,124,1501647,-1934,-15800,-3760,3,-2,-7
19,125,1501652,-1933,-15801,-3806,4,-3,-4
19,126,1501657,-1966,-15821,-3847,3,-4,-4
19,127,1501662,-1965,-15818,-3898,1,-10,-5
19,128,1501667,-1882,-15784,-3914,2,-12,-5
19,129,1501672,-1738,-15821,-3828,0,-12,-4
19,130,1501677,-1709,-15826,-3825,0,-10,-4
19,131,1501682,-1780,-15813,-3837,2,-7,-2
19,132,1501687,-1877,-15757,-3931,1,-7,-5
19,133,1501692,-1985,-15733,-3996,0,-10,-5
19,134,1501697,-1975,-15760,-3996,-1,-17,-3
19,135,1501702,-1855,-15787,-3988,-1,-21,-4
19,136,1501707,-1818,-15796,-4042,-2,-16,-2
19,137,1501712,-1911,-15829,-3991,-1,-7,-6
19,138,1501717,-2017,-15814,-3953,0,-4,-7
19,139,1501722,-2067,-15795,-4058,0,-8,-5
19,140,1501727,-2087,-15809,-4118,2,-9,-4
19,141,1501732,-2081,-15789,-4084,0,0,-6
19,142,1501737,-2069,-15797,-3892,1,2,-4
19,143,1501742,-2093,-15811,-3785,3,-6,0
19,144,1501747,-2044,-15843,-3756,2,-13,0
19,145,1501752,-2017,-15785,-3843,4,-10,0
19,146,1501757,-1956,-15811,-3991,5,-6,-1
19,147,1501762,-1956,-15797,-3966,5,-3,2
19,148,1501767,-1940,-15766,-3944,1,-7,0
19,149,1501772,-1918,-15759,-4005,-2,-15,0
19,150,1501777,-1920,-15792,-4060,4,-14,0
19,151,1501782,-1904,-15783,-4096,6,-3,-4
19,152,1501787,-1912,-15782,-4196,1,2,-1
19,153,1501792,-1883,-15794,-4200,1,-2,-1
19,154,1501797,-1874,-15824,-4126,-1,-6,-3
19,155,1501802,-1854,-15820,-4144,1,-7,-6
19,156,1501807,-1984,-15765,-4141,2,-5,-3
19,157,1501812,-2092,-15764,-4050,1,0,-4
19,158,1501817,-2069,-15777,-3911,5,-1,-2
19,159,1501822,-2024,-15804,-3840,7,-4,1
19,160,1501827,-1956,-15834,-3767,4,0,0
19,161,1501832,-1943,-15812,-3704,5,6,0
19,162,1501837,-2036,-15829,-3749,5,5,0
19,163,1501842,-2038,-15769,-3822,7,-3,0
19,164,1501847,-1897,-15778,-3838,5,-9,0
19,165,1501852,-1849,-15792,-3826,3,-8,1
19,166,1501857,-1916,-15803,-3800,3,-5,-3
19,167,1501862,-2019,-15775,-3849,4,-4,-7
19,168,1501867,-2024,-15783,-3934,3,-5,-7
19,169,1501872,-2043,-15806,-3933,3,-7,-3
19,170,1501877,-2021,-15825,-3859,2,-3,-3
19,171,1501882,-1990,-15835,-3811,0,-6,-4
19,172,1501887,-1930,-15786,-3948,1,-13,-3
19,173,1501892,-1915,-15801,-3943,0,-13,0
19,174,1501897,-1962,-15786,-3917,-2,-11,-3
19,175,1501902,-1948,-15786,-4002,2,-11,-5
19,176,1501907,-1978,-15811,-4064,0,-8,-1
19,177,1501912,-2080,-15805,-3990,-3,-9,-4
19,178,1501917,-2147,-15808,-3922,2,-16,-1
19,179,1501922,-2127,-15808,-3922,-1,-19,1
19,180,1501927,-2031,-15838,-3944,1,-10,1
19,181,1501932,-1950,-15806,-3902,2,1,-3
19,182,1501937,-1957,-15821,-3869,2,0,-4
19,183,1501942,-1993,-15774,-3863,2,-8,-1
19,184,1501947,-1969,-15781,-3878,2,-18,-2
19,185,1501952,-1971,-15787,-3936,1,-10,-3
19,186,1501957,-1961,-15783,-3944,1,5,-3
19,187,1501962,-1969,-15774,-3921,0,11,-4
19,188,1501967,-1987,-15773,-3881,-1,8,-5
19,189,1501972,-2025,-15790,-3853,0,-1,-4
19,190,1501977,-2049,-15792,-3903,1,-4,-4
19,191,1501982,-2088,-15839,-3987,2,4,-2
19,192,1501987,-1949,-15785,-3999,0,14,-2
19,193,1501992,-1765,-15776,-3967,0,20,-3
19,194,1501997,-1812,-15804,-3857,-1,15,-4
19,195,1502002,-1953,-15827,-3774,0,-2,-5
19,196,1502007,-2079,-15791,-3836,0,-17,-6
19,197,1502012,-2047,-15741,-3992,1,-18,-5
19,198,1502017,-1973,-15817,-4014,1,-11,-4
19,199,1502022,-1977,-15798,-3986,1,-6,-2
19,200,1502027,-1917,-15801,-3917,-3,-8,-3
19,201,1502032,-1918,-15778,-3865,-1,-20,-6
19,202,1502037,-1945,-15787,-3972,-1,-25,-3
19,203,1502042,-1945,-15819,-4103,1,-22,-1
19,204,1502047,-2019,-15794,-4057,0,-14,-3
19,205,1502052,-2076,-15802,-3980,-3,-15,-2
19,206,1502057,-2082,-15811,-3998,-1,-14,-1
19,207,1502062,-2018,-15838,-4133,1,-8,-4
19,208,1502067,-1940,-15856,-4107,0,5,-4
19,209,1502072,-1955,-15833,-4011,-2,11,-5
19,210,1502077,-2012,-15765,-3950,2,4,-3
19,211,1502082,-2046,-15748,-4040,2,-6,-1
19,212,1502087,-2049,-15803,-4110,1,-1,-3
19,213,1502092,-2068,-15795,-4002,2,6,-3
19,214,1502097,-2030,-15807,-3807,3,11,-2
19,215,1502102,-1973,-15800,-3681,2,5,-2
19,216,1502107,-1959,-15796,-3645,3,-8,-2
19,217,1502112,-1942,-15782,-3771,3,-12,-3
19,218,1502117,-1961,-15772,-3814,1,-10,-4
19,219,1502122,-2006,-15785,-3814,0,-6,-7
19,220,1502127,-2075,-15769,-3827,-3,-8,-8
19,221,1502132,-2096,-15791,-3949,-1,-16,-4
19,222,1502137,-1977,-15781,-4071,-1,-12,-6
19,223,1502142,-1906,-15798,-4031,-3,-7,-9
19,224,1502147,-1921,-15800,-4014,-1,-3,-7
19,225,1502152,-2038,-15780,-4006,1,0,-7
19,226,1502157,-2068,-15775,-4112,1,-7,-8
19,227,1502162,-1981,-15794,-4236,4,-6,-2
19,228,1502167,-1862,-15830,-4172,-2,-3,0
19,229,1502172,-1953,-15808,-3980,-2,1,-6
19,230,1502177,-2099,-15799,-3899,0,-4,-6
19,231,1502182,-2121,-15789,-3890,1,-6,-3
19,232,1502187,-2063,-15814,-3891,0,-2,-3
19,233,1502192,-2042,-15816,-3932,4,5,-1
19,234,1502197,-2040,-15788,-3897,1,5,-5
19,235,1502202,-2016,-15775,-3860,0,-3,-4
19,236,1502207,-1985,-15788,-3837,1,-12,-4
19,237,1502212,-1885,-15790,-3849,-1,-17,-3
19,238,1502217,-1799,-15778,-3925,-3,-16,-3
19,239,1502222,-1826,-15785,-3962,-1,-9,-4
19,240,1502227,-1859,-15776,-3995,0,-2,-7
19,241,1502232,-1945,-15789,-4087,0,2,-4
19,242,1502237,-1945,-15814,-3958,-2,2,-2
19,243,1502242,-2020,-15855,-3876,0,-7,-3
19,244,1502247,-2078,-15815,-3893,-1,-20,-3
19,245,1502252,-2112,-15827,-4004,0,-19,-3
19,246,1502257,-2054,-15805,-4034,2,-14,0
19,247,1502262,-2021,-15844,-3960,4,-9,1
19,248,1502267,-2022,-15816,-4026,6,-15,1
19,249,1502272,-1970,-15769,-4193,-1,-33,3
19,250,1502277,-1871,-15760,-4196,-1,-26,4
19,251,1502282,-1699,-15780,-4152,2,-14,0
19,252,1502287,-1650,-15804,-3981,1,-3,-1
19,253,1502292,-1711,-15833,-3893,2,-4,-6
19,254,1502297,-1957,-15799,-3874,-1,-16,-5
19,255,1502302,-2077,-15849,-3896,0,-28,-2
19,256,1502307,-2088,-15807,-3897,1,-27,-3
19,257,1502312,-2146,-15785,-3860,0,-17,-5
19,258,1502317,-2096,-15810,-3789,1,-12,-4
19,259,1502322,-2037,-15816,-3655,1,-22,-4
19,260,1502327,-2075,-15836,-3588,2,-37,-3
19,261,1502332,-2162,-15804,-3672,1,-49,-4
19,262,1502337,-2221,-15803,-3848,2,-52,-3
19,263,1502342,-2139,-15789,-3984,4,-47,0
19,264,1502347,-1998,-15761,-4107,2,-38,2
19,265,1502352,-1917,-15759,-4079,2,-37,-1
19,266,1502357,-2025,-15751,-3924,2,-48,-2
19,267,1502362,-2185,-15759,-3903,2,-51,-7
19,268,1502367,-2233,-15803,-3993,2,-36,-6
19,269,1502372,-2210,-15792,-4037,2,-16,-5
19,270,1502377,-2158,-15769,-3906,0,-3,-6
19,271,1502382,-2018,-15828,-3764,-4,-18,-4
19,272,1502387,-1904,-15895,-3785,-2,-48,1
19,273,1502392,-1868,-15922,-3975,1,-68,1
19,274,1502397,-1867,-15878,-4045,-3,-80,-1
19,275,1502402,-1852,-15836,-3908,-3,-92,1
19,276,1502407,-1917,-15873,-4092,0,-104,3
19,277,1502412,-2024,-15872,-4355,1,-104,-2
19,278,1502417,-2228,-15810,-4444,0,-84,-6
19,279,1502422,-2312,-15740,-4329,-1,-57,-7
19,280,1502427,-2254,-15685,-4106,0,-37,-7
19,281,1502432,-2069,-15726,-3938,2,-25,-6
19,282,1502437,-2116,-15800,-3982,5,-22,-9
19,283,1502442,-2290,-15849,-4125,6,-17,-11
19,284,1502447,-2305,-15816,-4146,5,-8,-9
19,285,1502452,-2139,-15694,-3923,2,0,-7
19,286,1502457,-2022,-15653,-3814,3,-9,-3
19,287,1502462,-2111,-15875,-3833,5,-21,-3
19,288,1502467,-2119,-15923,-3816,6,-40,-3
19,289,1502472,-2003,-15973,-3764,4,-52,1
19,290,1502477,-1996,-15949,-3811,6,-54,2
19,291,1502482,-2108,-15981,-3807,6,-49,2
19,292,1502487,-2227,-15999,-3656,6,-53,3
19,293,1502492,-2252,-15967,-3625,8,-59,7
19,294,1502497,-2220,-15821,-3646,11,-49,5
19,295,1502502,-2251,-15677,-3552,12,-33,7
19,296,1502507,-2239,-15616,-3478,13,-30,11
19,297,1502512,-2150,-15599,-3596,14,-54,17
19,298,1502517,-2168,-15604,-3737,15,-82,17
19,299,1502522,-2402,-15495,-3674,18,-100,21
19,300,1502527,-2638,-15452,-3847,23,-112,24
19,301,1502532,-2622,-15521,-4150,29,-104,29
19,302,1502537,-2406,-15616,-4449,31,-83,32
19,303,1502542,-2327,-15638,-4326,29,-58,36
19,304,1502547,-2360,-15701,-4088,30,-51,36
19,305,1502552,-2487,-15816,-4481,34,-48,34
19,306,1502557,-2520,-15900,-4837,37,-20,38
19,307,1502562,-2604,-15793,-4345,31,26,38
19,308,1502567,-2680,-15850,-3891,32,47,41
19,309,1502572,-2668,-15956,-3969,36,54,45
19,310,1502577,-2616,-15847,-4122,33,84,47
19,311,1502582,-2635,-15754,-3778,34,120,52
19,312,1502587,-2653,-15797,-3333,34,120,56
19,313,1502592,-2391,-15829,-3369,33,91,59
19,314,1502597,-2231,-15811,-3518,30,70,66
19,315,1502602,-2434,-15758,-3466,30,69,65
19,316,1502607,-2811,-15843,-3362,31,62,67
19,317,1502612,-2876,-15839,-3384,29,49,72
19,318,1502617,-2697,-15676,-3403,26,59,78
19,319,1502622,-2541,-15582,-3215,25,76,83
19,320,1502627,-2598,-15640,-3000,24,60,85
19,321,1502632,-2608,-15683,-3134,27,5,90
19,322,1502637,-2592,-15667,-3493,24,-41,96
19,323,1502642,-2580,-15765,-4302,27,-31,109
19,324,1502647,-2936,-16019,-4441,25,-13,106
19,325,1502652,-3345,-16008,-4361,17,-14,104
19,326,1502657,-3241,-15713,-4291,15,-7,109
19,327,1502662,-3101,-15546,-4046,19,39,116
19,328,1502667,-2998,-15690,-3817,25,99,117
19,329,1502672,-2988,-15773,-3650,28,134,118
19,330,1502677,-2822,-15677,-3412,30,125,120
19,331,1502682,-2855,-15612,-3287,28,85,121
19,332,1502687,-2983,-15645,-3279,25,33,127
19,333,1502692,-2964,-15630,-3279,23,-2,133
19,334,1502697,-2954,-15649,-3224,22,-18,135
19,335,1502702,-2981,-15730,-3524,24,-28,138
19,336,1502707,-2979,-15795,-3929,25,-28,142
19,337,1502712,-3027,-15812,-3882,19,-22,141
19,338,1502717,-3073,-15783,-3547,13,-13,143
19,339,1502722,-3068,-15781,-3364,11,-4,144
19,340,1502727,-3120,-15825,-3579,16,17,145
19,341,1502732,-3235,-15779,-3708,16,49,144
19,342,1502737,-3270,-15621,-3520,14,68,146
19,343,1502742,-3287,-15607,-3335,12,52,148
19,344,1502747,-3202,-15695,-3540,14,19,153
19,345,1502752,-3108,-15848,-3637,10,5,154
19,346,1502757,-3255,-15779,-3505,11,9,153
19,347,1502762,-3405,-15575,-3538,16,1,158
19,348,1502767,-3427,-15555,-3897,21,-9,165
19,349,1502772,-3334,-15750,-4474,24,-12,169
19,350,1502777,-3237,-15906,-4715,25,0,172
19,351,1502782,-3417,-15779,-4285,22,14,171
19,352,1502787,-3648,-15646,-4039,26,9,169
19,353,1502792,-3577,-15674,-4530,35,18,175
19,354,1502797,-3372,-15792,-4860,42,66,178
19,355,1502802,-3316,-15801,-4500,42,117,174
19,356,1502807,-3426,-15794,-4083,42,111,172
19,357,1502812,-3519,-15699,-3935,47,71,176
19,358,1502817,-3598,-15652,-3959,51,55,181
19,359,1502822,-3638,-15631,-3930,55,77,183
19,360,1502827,-3597,-15651,-3726,56,98,189
19,361,1502832,-3621,-15600,-3406,57,88,192
19,362,1502837,-3564,-15525,-3308,57,47,197
19,363,1502842,-3522,-15449,-3369,60,4,203
19,364,1502847,-3524,-15522,-3473,59,-8,206
19,365,1502852,-3583,-15521,-3426,60,-2,211
19,366,1502857,-3710,-15483,-3364,61,-4,214
19,367,1502862,-3732,-15359,-3439,56,-13,218
19,368,1502867,-3707,-15311,-3522,52,-11,222
19,369,1502872,-3613,-15441,-3404,52,0,227
19,370,1502877,-3636,-15563,-3336,53,11,229
19,371,1502882,-3804,-15637,-3334,51,6,232
19,372,1502887,-3902,-15595,-3518,48,-11,236
19,373,1502892,-3915,-15607,-3598,45,-17,241
19,374,1502897,-3830,-15707,-3512,42,-16,246
19,375,1502902,-3885,-15912,-3515,44,-21,251
19,376,1502907,-3952,-15949,-3619,43,-27,251
19,377,1502912,-4031,-15886,-3860,42,-20,253
19,378,1502917,-4097,-15766,-4051,43,-7,256
19,379,1502922,-4113,-15705,-4031,42,5,259
19,380,1502927,-4026,-15749,-3942,40,5,267
19,381,1502932,-3841,-15827,-3898,41,9,270
19,382,1502937,-3939,-15864,-3825,42,22,272
19,383,1502942,-4115,-15908,-3554,44,37,273
19,384,1502947,-4152,-15833,-3402,40,38,280
19,385,1502952,-4001,-15740,-3382,41,38,283
19,386,1502957,-3921,-15741,-3367,43,31,290
19,387,1502962,-3954,-15626,-3184,43,3,293
19,388,1502967,-4042,-15552,-3298,44,-36,299
19,389,1502972,-4134,-15682,-3544,47,-62,308
19,390,1502977,-4185,-15845,-3786,47,-50,314
19,391,1502982,-4133,-15845,-3876,44,-9,316
19,392,1502987,-4131,-15746,-3712,41,27,313
19,393,1502992,-4270,-15706,-3652,41,31,318
19,394,1502997,-4409,-15734,-3768,45,22,323
19,395,1503002,-4424,-15752,-3778,42,21,324
19,396,1503007,-4208,-15709,-3665,51,50,336
19,397,1503012,-4192,-15768,-3786,51,46,338
19,398,1503017,-4212,-15806,-3802,53,19,345
19,399,1503022,-4178,-15735,-3654,53,-13,345
19,400,1503027,-4311,-15736,-3518,52,-32,348
19,401,1503032,-4400,-15660,-3588,58,-21,354
19,402,1503037,-4194,-15589,-3746,63,20,361
19,403,1503042,-3961,-15643,-3691,64,65,364
19,404,1503047,-3846,-15652,-3679,65,73,367
19,405,1503052,-3974,-15553,-3598,63,48,371
19,406,1503057,-4089,-15526,-3517,58,15,376
19,407,1503062,-4119,-15502,-3496,63,1,386
19,408,1503067,-4001,-15550,-3496,66,18,395
19,409,1503072,-4035,-15613,-3481,66,35,396
19,410,1503077,-4131,-15656,-3502,69,23,399
19,411,1503082,-4183,-15732,-3605,70,1,407
19,412,1503087,-4297,-15788,-3675,69,-4,411
19,413,1503092,-4419,-15797,-3617,67,16,411
19,414,1503097,-4385,-15800,-3465,71,42,418
19,415,1503102,-4252,-15782,-3426,75,52,424
19,416,1503107,-4237,-15819,-3311,76,34,430
19,417,1503112,-4261,-15824,-3269,75,-13,437
19,418,1503117,-4253,-15899,-3215,77,-61,443
19,419,1503122,-4258,-15961,-3557,80,-83,449
19,420,1503127,-4239,-15958,-4128,85,-61,449
19,421,1503132,-4280,-15845,-4346,81,-10,449
19,422,1503137,-4365,-15782,-4118,83,19,453
19,423,1503142,-4539,-15724,-3596,78,25,455
19,424,1503147,-4518,-15656,-3367,79,21,459
19,425,1503152,-4283,-15603,-3594,85,44,466
19,426,1503157,-4270,-15576,-3445,90,87,466
19,427,1503162,-4335,-15558,-3070,91,83,468
19,428,1503167,-4361,-15489,-3154,90,29,474
19,429,1503172,-4337,-15506,-3742,89,-16,478
19,430,1503177,-4400,-15466,-4163,89,-1,481
19,431,1503182,-4492,-15337,-4021,92,61,482
19,432,1503187,-4652,-15293,-3639,92,113,483
19,433,1503192,-4659,-15346,-3621,93,139,481
19,434,1503197,-4561,-15328,-3757,94,163,483
19,435,1503202,-4504,-15355,-3703,89,196,483
19,436,1503207,-4489,-15422,-3422,86,204,482
19,437,1503212,-4476,-15527,-3142,87,173,486
19,438,1503217,-4509,-15574,-3200,89,128,485
19,439,1503222,-4596,-15694,-3484,90,107,489
19,440,1503227,-4543,-15785,-3731,91,115,494
19,441,1503232,-4391,-15873,-3781,88,137,495
19,442,1503237,-4334,-15980,-3666,87,149,491
19,443,1503242,-4467,-15998,-3607,88,141,486
19,444,1503247,-4484,-15945,-3720,87,131,487
19,445,1503252,-4342,-15940,-3883,89,133,493
19,446,1503257,-4364,-15888,-3781,88,145,490
19,447,1503262,-4454,-15832,-3352,89,127,488
19,448,1503267,-4401,-15865,-3321,90,76,491
19,449,1503272,-4257,-15790,-3713,88,36,489
19,450,1503277,-4285,-15724,-3810,90,29,487
19,451,1503282,-4452,-15601,-3638,91,32,484
19,452,1503287,-4494,-15455,-3775,91,21,480
19,453,1503292,-4447,-15350,-4008,89,21,480
19,454,1503297,-4349,-15279,-4070,89,50,475
19,455,1503302,-4297,-15318,-3964,85,96,469
19,456,1503307,-4298,-15412,-3787,77,130,464
19,457,1503312,-4362,-15377,-3547,78,144,453
19,458,1503317,-4424,-15268,-3179,74,147,443
19,459,1503322,-4626,-15248,-2899,67,135,434
19,460,1503327,-4707,-15265,-2862,66,113,431
19,461,1503332,-4466,-15286,-3052,67,85,431
19,462,1503337,-4146,-15396,-3194,62,58,425
19,463,1503342,-4014,-15487,-3201,59,24,421
19,464,1503347,-4149,-15493,-3415,55,-7,411
19,465,1503352,-4220,-15491,-3908,46,-9,400
19,466,1503357,-4279,-15487,-4018,40,32,390
19,467,1503362,-4354,-15401,-3643,40,77,375
19,468,1503367,-4277,-15343,-3539,41,95,368
19,469,1503372,-4014,-15317,-3670,35,75,351
19,470,1503377,-4007,-15406,-3696,33,47,344
19,471,1503382,-3943,-15416,-3737,31,22,333
19,472,1503387,-4018,-15213,-3588,27,3,323
19,473,1503392,-4200,-15093,-3483,27,-7,315
19,474,1503397,-4188,-15138,-3823,30,-6,309
19,475,1503402,-4070,-15099,-3851,27,5,302
19,476,1503407,-3954,-15063,-3547,23,2,293
19,477,1503412,-3881,-15078,-3346,22,-28,287
19,478,1503417,-3752,-15071,-3615,23,-57,279
19,479,1503422,-3829,-15087,-3869,21,-53,266
19,480,1503427,-3875,-15075,-3851,17,-34,257
19,481,1503432,-3892,-14986,-3691,16,-23,244
19,482,1503437,-4099,-14965,-3571,16,-25,233
19,483,1503442,-4089,-15016,-3685,15,-30,228
19,484,1503447,-3857,-15012,-3664,14,-17,217
19,485,1503452,-3727,-15008,-3498,13,2,207
19,486,1503457,-3723,-15113,-3249,15,-10,196
19,487,1503462,-3835,-15159,-3316,10,-52,186
19,488,1503467,-3981,-15170,-3545,8,-88,177
19,489,1503472,-3918,-15084,-3766,6,-97,173
19,490,1503477,-3859,-15011,-3604,4,-81,165
19,491,1503482,-3794,-15007,-3459,3,-78,155
19,492,1503487,-3706,-14943,-3567,6,-93,147
19,493,1503492,-3651,-14960,-3967,8,-93,140
19,494,1503497,-3595,-14933,-4173,7,-60,130
19,495,1503502,-3646,-14838,-4006,3,-15,113
19,496,1503507,-3750,-14876,-3742,0,9,103
19,497,1503512,-3748,-14960,-3757,2,12,92
19,498,1503517,-3642,-14958,-3755,0,22,83
19,499,1503522,-3567,-14835,-3557,-2,33,70
19,500,1503527,-3501,-14827,-3349,-2,29,59
19,501,1503532,-3499,-14881,-3250,-1,6,50
19,502,1503537,-3480,-14991,-3304,-1,-18,41
19,503,1503542,-3524,-14941,-3414,1,-22,30
19,504,1503547,-3502,-14847,-3433,-2,-15,17
19,505,1503552,-3491,-14853,-3371,-7,-16,6
19,506,1503557,-3414,-14982,-3455,-8,-30,-4
19,507,1503562,-3308,-15058,-3656,-7,-58,-13
19,508,1503567,-3186,-15050,-3827,-9,-66,-25
19,509,1503572,-3150,-15003,-3665,-14,-54,-38
19,510,1503577,-3130,-14991,-3605,-10,-46,-49
19,511,1503582,-3047,-15049,-3669,-11,-37,-62
19,512,1503587,-3044,-15189,-3773,-11,-23,-76
19,513,1503592,-3238,-15235,-3596,-12,-11,-95
19,514,1503597,-3094,-15202,-3467,-13,-14,-106
19,515,1503602,-2867,-15183,-3551,-15,-22,-122
19,516,1503607,-2920,-15251,-3520,-15,-35,-137
19,517,1503612,-3107,-15282,-3645,-15,-56,-150
19,518,1503617,-3118,-15124,-3830,-16,-71,-163
19,519,1503622,-3031,-15087,-4067,-17,-65,-175
19,520,1503627,-2960,-15204,-3988,-17,-34,-191
19,521,1503632,-2927,-15239,-3608,-21,-9,-207
19,522,1503637,-2880,-15289,-3413,-20,-5,-223
19,523,1503642,-2813,-15279,-3531,-19,-14,-237
19,524,1503647,-2703,-15250,-3473,-22,-23,-249
19,525,1503652,-2660,-15257,-3186,-23,-44,-263
19,526,1503657,-2601,-15378,-3102,-23,-81,-277
19,527,1503662,-2588,-15450,-3230,-23,-117,-294
19,528,1503667,-2698,-15547,-3478,-25,-136,-311
19,529,1503672,-2862,-15625,-3746,-28,-141,-329
19,530,1503677,-2780,-15630,-3983,-33,-138,-346
19,531,1503682,-2652,-15583,-4009,-33,-133,-361
19,532,1503687,-2697,-15647,-4046,-35,-123,-379
19,533,1503692,-2810,-15771,-4213,-35,-112,-398
19,534,1503697,-2837,-15853,-4335,-36,-94,-415
19,535,1503702,-2871,-15870,-4166,-36,-71,-433
19,536,1503707,-3054,-15839,-3764,-41,-57,-453
19,537,1503712,-3067,-15804,-3650,-43,-61,-470
19,538,1503717,-2912,-15728,-3698,-41,-67,-483
19,539,1503722,-2829,-15639,-3569,-42,-72,-501
19,540,1503727,-2777,-15625,-3379,-46,-109,-514
19,541,1503732,-2773,-15744,-3351,-49,-170,-528
19,542,1503737,-2760,-15757,-3628,-46,-216,-544
19,543,1503742,-3020,-15826,-4350,-55,-184,-570
19,544,1503747,-3076,-15984,-4297,-59,-145,-589
19,545,1503752,-2974,-15989,-4011,-68,-120,-604
19,546,1503757,-2987,-15981,-3978,-67,-106,-619
19,547,1503762,-3010,-16058,-4126,-66,-89,-633
19,548,1503767,-2925,-16075,-3958,-72,-70,-654
19,549,1503772,-2898,-16006,-3318,-83,-87,-666
19,550,1503777,-2876,-16043,-3133,-86,-150,-676
19,551,1503782,-2969,-16212,-3758,-81,-207,-684
19,552,1503787,-3132,-16321,-4214,-85,-213,-698
19,553,1503792,-3306,-16253,-4149,-93,-187,-709
19,554,1503797,-3475,-16138,-4064,-98,-162,-718
19,555,1503802,-3433,-16247,-4164,-101,-152,-730
19,556,1503807,-3337,-16339,-4085,-107,-135,-741
19,557,1503812,-3145,-16423,-3751,-111,-124,-748
19,558,1503817,-3012,-16527,-3513,-115,-124,-752
19,559,1503822,-2999,-16763,-3502,-115,-142,-760
19,560,1503827,-3112,-16852,-3553,-120,-166,-769
19,561,1503832,-3145,-16721,-3633,-124,-177,-775
19,562,1503837,-3149,-16696,-3792,-126,-171,-780
19,563,1503842,-3266,-16835,-4026,-131,-150,-787
19,564,1503847,-3320,-16932,-4165,-138,-132,-794
19,565,1503852,-3232,-16789,-4067,-143,-123,-804
19,566,1503857,-3259,-16682,-3970,-146,-114,-805
19,567,1503862,-3363,-16674,-3953,-149,-102,-810
19,568,1503867,-3441,-16665,-3842,-150,-92,-814
19,569,1503872,-3234,-16624,-3786,-154,-102,-811
19,570,1503877,-3088,-16506,-3595,-158,-126,-813
19,571,1503882,-3113,-16460,-3374,-157,-168,-812
19,572,1503887,-3187,-16402,-3418,-156,-213,-812
19,573,1503892,-3148,-16379,-3931,-154,-227,-808
19,574,1503897,-3136,-16398,-4270,-154,-189,-808
19,575,1503902,-3053,-16479,-3991,-158,-139,-808
19,576,1503907,-2883,-16635,-3832,-161,-110,-811
19,577,1503912,-2731,-16849,-3976,-161,-88,-816
19,578,1503917,-2703,-16917,-4026,-164,-52,-820
19,579,1503922,-2725,-16767,-3477,-166,-14,-821
19,580,1503927,-2851,-16703,-3214,-162,4,-824
19,581,1503932,-3155,-16842,-3652,-155,19,-823
19,582,1503937,-3221,-16832,-4131,-155,55,-817
19,583,1503942,-2930,-16661,-3921,-156,93,-816
19,584,1503947,-2747,-16546,-3215,-160,93,-814
19,585,1503952,-2744,-16556,-2803,-157,27,-811
19,586,1503957,-2782,-16541,-3006,-148,-60,-804
19,587,1503962,-2737,-16509,-3472,-139,-103,-797
19,588,1503967,-2703,-16515,-3540,-136,-99,-792
19,589,1503972,-2591,-16491,-3409,-136,-107,-791
19,590,1503977,-2518,-16539,-3656,-134,-155,-788
19,591,1503982,-2685,-16592,-4027,-135,-218,-785
19,592,1503987,-2937,-16469,-3953,-134,-262,-783
19,593,1503992,-3143,-16418,-4031,-127,-270,-777
19,594,1503997,-3222,-16534,-4552,-115,-226,-775
19,595,1504002,-3187,-16593,-4764,-105,-133,-780
19,596,1504007,-3126,-16513,-4589,-105,-37,-780
19,597,1504012,-3177,-16429,-4328,-101,30,-784
19,598,1504017,-3154,-13275,-4595,-99,70,-787
19,599,1504022,3918,-5428,-6504,-93,76,-747
19,600,1504027,-18011,-515,15770,-186,471,-939
19,601,1504032,14996,-17365,-24649,196,-1851,159
19,602,1504037,2455,-14116,-8485,-42,1089,-462
19,603,1504042,-1657,-17757,228,-123,1840,-800
19,604,1504047,-6720,-16889,9946,-116,657,-652
19,605,1504052,-2355,-14423,-3855,24,-871,-465
19,606,1504057,-3132,-16082,-10767,34,-343,-488
19,607,1504062,-5870,-16617,-4067,-50,644,-541
19,608,1504067,-4733,-15057,1351,-96,676,-569
19,609,1504072,-2769,-15277,-238,-47,110,-541
19,610,1504077,-2623,-16308,-5387,-19,-198,-532
19,611,1504082,-3343,-16382,-4795,-42,31,-541
19,612,1504087,-3686,-15729,-1496,-56,243,-560
19,613,1504092,-3705,-15649,-1841,-42,154,-568
19,614,1504097,-3916,-15892,-3618,-33,65,-563
19,615,1504102,-4089,-15922,-3906,-43,118,-555
19,616,1504107,-4154,-15911,-2619,-42,186,-561
19,617,1504112,-3855,-16110,-2923,-39,161,-566
19,618,1504117,-3683,-16188,-2878,-45,141,-569
19,619,1504122,-3780,-16293,-2438,-49,115,-568
19,620,1504127,-4024,-16389,-2254,-46,84,-568
19,621,1504132,-4107,-16437,-2792,-47,86,-569
19,622,1504137,-4014,-16350,-3191,-46,136,-568
19,623,1504142,-4085,-16169,-2645,-53,180,-574
19,624,1504147,-3819,-15948,-2108,-55,146,-570
19,625,1504152,-3439,-15826,-2193,-50,64,-561
19,626,1504157,-3459,-15796,-2272,-52,-6,-559
19,627,1504162,-3713,-15687,-2304,-53,-66,-554
19,628,1504167,-3762,-15532,-2734,-53,-108,-543
19,629,1504172,-3640,-15416,-2934,-50,-134,-529
19,630,1504177,-3568,-15445,-2841,-52,-172,-524
19,631,1504182,-3660,-15370,-2801,-54,-221,-519
19,632,1504187,-3487,-15227,-3179,-48,-246,-506
19,633,1504192,-3371,-15188,-3245,-48,-207,-499
19,634,1504197,-3372,-15266,-3257,-47,-179,-492
19,635,1504202,-3298,-15302,-3358,-46,-180,-488
19,636,1504207,-3450,-15375,-3264,-48,-164,-481
19,637,1504212,-3300,-15444,-3520,-40,-135,-477
19,638,1504217,-3097,-15469,-3461,-38,-85,-470
19,639,1504222,-3127,-15501,-2956,-39,-62,-462
19,640,1504227,-3250,-15512,-2875,-32,-97,-456
19,641,1504232,-3331,-15661,-3166,-26,-149,-444
19,642,1504237,-3161,-15691,-3265,-30,-169,-432
19,643,1504242,-2814,-15637,-3069,-29,-174,-421
19,644,1504247,-2681,-15679,-2894,-25,-208,-410
19,645,1504252,-2690,-15699,-3187,-19,-268,-396
19,646,1504257,-2745,-15627,-3645,-12,-320,-386
19,647,1504262,-2829,-15722,-3942,-6,-329,-370
19,648,1504267,-2886,-15713,-3740,-4,-310,-365
19,649,1504272,-2702,-15765,-3874,1,-313,-350
19,650,1504277,-2553,-15873,-4089,8,-294,-344
19,651,1504282,-2536,-15875,-4127,15,-252,-338
19,652,1504287,-2368,-15866,-4169,17,-209,-330
19,653,1504292,-2282,-15896,-3946,20,-179,-326
19,654,1504297,-2236,-16022,-3784,21,-177,-325
19,655,1504302,-2155,-16030,-3688,23,-191,-315
19,656,1504307,-1937,-15808,-3646,30,-194,-303
19,657,1504312,-2148,-15832,-3587,35,-185,-302
19,658,1504317,-2304,-15944,-3787,41,-181,-296
19,659,1504322,-2131,-15869,-3848,44,-172,-286
19,660,1504327,-1942,-15716,-3755,43,-157,-280
19,661,1504332,-1847,-15828,-3697,48,-155,-275
19,662,1504337,-1769,-15851,-3646,47,-159,-270
19,663,1504342,-1474,-15747,-3511,43,-166,-259
19,664,1504347,-1335,-15729,-3499,49,-179,-250
19,665,1504352,-1330,-15820,-3579,52,-188,-247
19,666,1504357,-1241,-15965,-3683,52,-193,-241
19,667,1504362,-1020,-16109,-3684,52,-202,-233
19,668,1504367,-865,-16139,-4028,55,-212,-227
19,669,1504372,-887,-16120,-4321,58,-207,-226
19,670,1504377,-1182,-16015,-4153,56,-192,-222
19,671,1504382,-1429,-15926,-4529,56,-188,-217
19,672,1504387,-1369,-15813,-4642,58,-139,-213
19,673,1504392,-1104,-15793,-4528,56,-76,-209
19,674,1504397,-945,-15784,-4021,58,-43,-209
19,675,1504402,-802,-15948,-3945,63,-78,-203
19,676,1504407,-748,-15943,-4136,64,-116,-198
19,677,1504412,-828,-15833,-3999,59,-133,-194
19,678,1504417,-876,-15792,-3891,58,-142,-187
19,679,1504422,-895,-15763,-3798,59,-146,-181
19,680,1504427,-508,-15833,-4103,61,-148,-174
19,681,1504432,-391,-15872,-4012,59,-128,-175
19,682,1504437,-509,-15839,-3774,55,-117,-173
19,683,1504442,-257,-15844,-4230,53,-116,-168
19,684,1504447,-112,-15929,-4346,49,-91,-163
19,685,1504452,-174,-15943,-3720,42,-75,-163
19,686,1504457,-237,-15886,-3486,37,-109,-160
19,687,1504462,-280,-15789,-3686,37,-132,-151
19,688,1504467,-208,-15955,-3946,36,-123,-141
19,689,1504472,80,-16017,-3728,27,-100,-135
19,690,1504477,-34,-16082,-3719,22,-118,-131
19,691,1504482,70,-16045,-3965,23,-142,-125
19,692,1504487,121,-16066,-4207,16,-140,-120
19,693,1504492,160,-16013,-4234,14,-131,-116
19,694,1504497,222,-15924,-4065,10,-134,-111
19,695,1504502,238,-15956,-4085,7,-148,-104
19,696,1504507,239,-16065,-4272,7,-146,-98
19,697,1504512,227,-16002,-4388,6,-109,-95
19,698,1504517,292,-15993,-4290,3,-62,-93
19,699,1504522,314,-16038,-4208,1,-43,-89
19,700,1504527,348,-15959,-4149,-3,-55,-86
19,701,1504532,370,-15801,-4100,-4,-83,-81
19,702,1504537,229,-15790,-4237,-5,-89,-74
19,703,1504542,131,-15841,-4353,-3,-74,-70
19,704,1504547,130,-15827,-4370,-5,-44,-69
19,705,1504552,232,-15795,-4307,-6,-19,-62
19,706,1504557,375,-15936,-4318,-9,-6,-60
19,707,1504562,559,-16053,-4292,-13,5,-57
19,708,1504567,528,-16060,-4069,-15,18,-55
19,709,1504572,502,-16001,-3807,-16,21,-54
19,710,1504577,449,-15890,-3866,-16,18,-49
19,711,1504582,475,-15797,-4230,-17,26,-47
19,712,1504587,203,-15785,-3790,-21,44,-47
19,713,1504592,276,-15657,-3910,-17,36,-40
19,714,1504597,723,-15775,-4003,-20,27,-36
19,715,1504602,574,-15655,-3794,-21,9,-35
19,716,1504607,560,-15594,-3807,-20,-32,-33
19,717,1504612,469,-15606,-4197,-22,-69,-28
19,718,1504617,514,-15760,-4261,-19,-67,-20
19,719,1504622,807,-15838,-4270,-21,-51,-20
19,720,1504627,792,-16000,-4120,-26,-28,-20
19,721,1504632,574,-16162,-4080,-25,-14,-21
19,722,1504637,390,-16025,-4115,-27,-1,-25
19,723,1504642,201,-15829,-4189,-29,27,-26
19,724,1504647,88,-15785,-4127,-24,57,-25
19,725,1504652,254,-15742,-3943,-28,72,-20
19,726,1504657,430,-15736,-3900,-27,68,-18
19,727,1504662,441,-15885,-3971,-24,57,-16
19,728,1504667,372,-15936,-3972,-25,48,-16
19,729,1504672,396,-15949,-3765,-29,40,-17
19,730,1504677,568,-15899,-3821,-27,34,-13
19,731,1504682,506,-15965,-4012,-23,45,-13
19,732,1504687,272,-16066,-3993,-24,57,-18
19,733,1504692,291,-16000,-4013,-26,47,-16
19,734,1504697,467,-15923,-4135,-25,36,-16
19,735,1504702,614,-15846,-4221,-22,37,-13
19,736,1504707,714,-15991,-4207,-25,33,-13
19,737,1504712,685,-16101,-4099,-23,18,-17
19,738,1504717,572,-16067,-4042,-21,8,-15
19,739,1504722,449,-15972,-4003,-21,13,-16
19,740,1504727,432,-15938,-4035,-20,32,-11
19,741,1504732,557,-15962,-3754,-20,51,-8
19,742,1504737,685,-15958,-3226,-23,39,-11
19,743,1504742,795,-15955,-3060,-17,-2,-10
19,744,1504747,805,-15913,-3387,-13,-35,-5
19,745,1504752,814,-15936,-3838,-15,-41,-4
19,746,1504757,773,-15831,-3966,-14,-34,-6
19,747,1504762,703,-15676,-3868,-20,-39,-6
19,748,1504767,711,-15630,-3923,-22,-54,-6
19,749,1504772,720,-15611,-4080,-20,-56,-7
19,750,1504777,751,-15612,-4138,-18,-39,-3
19,751,1504782,746,-15631,-3993,-16,-19,-4
19,752,1504787,756,-15656,-3819,-13,-16,-3
19,753,1504792,804,-15674,-3812,-12,-30,-1
19,754,1504797,875,-15815,-3918,-11,-46,-1
19,755,1504802,838,-15938,-3916,-9,-40,-1
19,756,1504807,801,-15976,-3925,-11,-25,-7
19,757,1504812,733,-15847,-3994,-8,-20,-8
19,758,1504817,641,-15777,-3914,-5,-19,-9
19,759,1504822,568,-15783,-3803,-6,-32,-10
19,760,1504827,595,-15881,-3791,-7,-44,-5
19,761,1504832,629,-15928,-3903,-1,-45,-4
19,762,1504837,691,-15942,-3985,0,-33,-7
19,763,1504842,769,-16250,-3895,0,-26,-13
19,764,1504847,768,-16395,-3763,0,-23,-17
19,765,1504852,703,-16290,-3612,-2,-8,-17
19,766,1504857,581,-16214,-3723,-2,18,-20
19,767,1504862,588,-16191,-3817,-5,46,-25
19,768,1504867,742,-16190,-3487,-7,53,-25
19,769,1504872,861,-16091,-3192,-6,27,-23
19,770,1504877,846,-16035,-3401,-5,-5,-23
19,771,1504882,848,-16023,-3826,-3,-10,-25
19,772,1504887,751,-15895,-3927,-4,17,-26
19,773,1504892,623,-15829,-3837,-5,30,-27
19,774,1504897,615,-15786,-3765,-7,25,-25
19,775,1504902,787,-15813,-3952,-9,7,-22
19,776,1504907,928,-15808,-3921,-5,29,-24
19,777,1504912,1019,-15875,-3651,-5,46,-26
19,778,1504917,933,-15822,-3369,-8,15,-28
19,779,1504922,829,-15794,-3539,-4,-48,-26
19,780,1504927,829,-15743,-3838,-3,-69,-21
19,781,1504932,747,-15698,-3796,-2,-46,-21
19,782,1504937,639,-15840,-3728,-2,-45,-22
19,783,1504942,686,-15886,-3839,-2,-58,-24
19,784,1504947,754,-15940,-3950,-2,-69,-22
19,785,1504952,751,-16044,-4086,1,-68,-21
19,786,1504957,698,-16104,-4072,1,-49,-21
19,787,1504962,515,-16091,-3848,-1,-28,-25
19,788,1504967,457,-16053,-3725,-1,-21,-26
19,789,1504972,525,-16079,-3981,1,-15,-25
19,790,1504977,532,-16102,-4021,4,9,-28
19,791,1504982,456,-16067,-3681,2,27,-31
19,792,1504987,505,-16023,-3509,2,16,-31
19,793,1504992,677,-16054,-3630,6,3,-30
19,794,1504997,739,-16062,-3759,7,7,-31
19,795,1505002,615,-16060,-3714,6,10,-37
19,796,1505007,494,-15936,-3603,6,-4,-37
19,797,1505012,526,-15867,-3733,9,-38,-33
19,798,1505017,685,-15902,-3911,7,-53,-28
19,799,1505022,795,-15968,-3944,7,-54,-28
19,800,1505027,781,-15945,-3683,8,-60,-32
19,801,1505032,607,-15879,-3570,10,-72,-35
19,802,1505037,458,-15859,-3785,14,-88,-29
19,803,1505042,477,-15873,-4064,15,-81,-26
19,804,1505047,611,-15881,-4127,14,-60,-27
19,805,1505052,814,-15982,-3992,17,-43,-28
19,806,1505057,872,-16041,-3921,18,-45,-29
19,807,1505062,782,-16083,-4045,17,-57,-29
19,808,1505067,634,-16145,-4107,15,-63,-33
19,809,1505072,574,-16052,-3911,15,-53,-36
19,810,1505077,423,-15970,-3777,18,-41,-35
19,811,1505082,369,-15969,-3862,21,-31,-34
19,812,1505087,478,-15870,-4007,20,-15,-33
19,813,1505092,541,-15867,-4021,19,2,-32
19,814,1505097,548,-15908,-3750,18,4,-36
19,815,1505102,571,-16013,-3538,20,-6,-36
19,816,1505107,654,-15899,-3565,22,-12,-33
19,817,1505112,627,-15852,-3732,23,-6,-31
19,818,1505117,572,-15806,-3808,19,5,-34
19,819,1505122,603,-15699,-3764,18,-7,-31
19,820,1505127,699,-15706,-3648,14,-39,-30
19,821,1505132,640,-15836,-3819,16,-63,-25
19,822,1505137,570,-15911,-3971,18,-61,-25
19,823,1505142,506,-15939,-4048,22,-40,-23
19,824,1505147,551,-15987,-3937,20,-21,-24
19,825,1505152,712,-15969,-3811,19,-25,-23
19,826,1505157,818,-15986,-3901,22,-46,-21
19,827,1505162,763,-15960,-4130,22,-63,-21
19,828,1505167,672,-15917,-4244,20,-67,-23
19,829,1505172,573,-15869,-4138,17,-61,-18
19,830,1505177,502,-15804,-4156,21,-54,-16
19,831,1505182,572,-15837,-4280,21,-41,-15
19,832,1505187,652,-15915,-4255,20,-9,-15
19,833,1505192,695,-15985,-4044,20,14,-16
19,834,1505197,671,-15993,-3657,16,15,-16
19,835,1505202,585,-15994,-3647,17,-5,-17
19,836,1505207,476,-15945,-3819,17,-15,-14
19,837,1505212,477,-15983,-3702,14,-7,-12
19,838,1505217,505,-15962,-3710,18,-5,-8
19,839,1505222,502,-15993,-3950,15,5,-8
19,840,1505227,429,-15937,-3995,12,23,-8
19,841,1505232,458,-15907,-3934,9,33,-11
19,842,1505237,541,-15890,-3863,9,29,-9
19,843,1505242,605,-15862,-3795,11,8,-7
19,844,1505247,637,-15748,-3780,11,-21,-5
19,845,1505252,670,-15807,-3850,8,-43,-2
19,846,1505257,767,-15907,-3972,6,-50,-2
19,847,1505262,842,-16024,-4141,8,-42,1
19,848,1505267,827,-16030,-4189,5,-25,2
19,849,1505272,795,-15993,-4025,4,-8,-2
19,850,1505277,658,-15908,-3898,1,1,-3
19,851,1505282,639,-15930,-3993,2,-2,1
19,852,1505287,724,-15931,-4067,2,-6,4
19,853,1505292,815,-15882,-3990,0,-7,5
19,854,1505297,778,-15822,-3838,-1,-18,9
19,855,1505302,737,-15849,-3943,2,-36,8
19,856,1505307,689,-15887,-4188,3,-43,11
19,857,1505312,699,-15912,-4118,0,-21,10
19,858,1505317,687,-15903,-3905,-2,-2,7
19,859,1505322,646,-15875,-3877,-3,2,9
19,860,1505327,601,-15918,-3912,-5,1,12
19,861,1505332,672,-15964,-3840,-5,-5,13
19,862,1505337,732,-16028,-3776,-9,-14,11
19,863,1505342,782,-16024,-3745,-8,-20,8
19,864,1505347,746,-16006,-3816,-7,-23,8
19,865,1505352,614,-15965,-3908,-8,-20,10
19,866,1505357,681,-16001,-3981,-11,-15,9
19,867,1505362,811,-15969,-3921,-13,-11,7
19,868,1505367,784,-15972,-3786,-17,-11,8
19,869,1505372,715,-16058,-3774,-14,-21,8
19,870,1505377,824,-16132,-4032,-12,-30,8
19,871,1505382,875,-16045,-3932,-13,-22,5
19,872,1505387,685,-16026,-3728,-15,-19,2
19,873,1505392,553,-16007,-3794,-13,-29,5
19,874,1505397,808,-15934,-4039,-14,-33,1
19,875,1505402,834,-15937,-3979,-14,-19,1
19,876,1505407,739,-15983,-3833,-14,-15,-1
19,877,1505412,747,-15932,-3747,-17,-31,1
19,878,1505417,867,-15968,-3877,-18,-43,0
19,879,1505422,915,-16044,-4025,-16,-46,1
19,880,1505427,902,-16060,-3972,-15,-38,-1
19,881,1505432,917,-16015,-3946,-15,-31,-4
19,882,1505437,765,-16067,-4008,-14,-23,-7
19,883,1505442,622,-16060,-4075,-11,-4,-6
19,884,1505447,612,-16006,-4047,-12,25,-9
19,885,1505452,641,-15988,-3948,-13,43,-14
19,886,1505457,718,-15997,-3769,-13,41,-13
19,887,1505462,793,-15966,-3612,-14,21,-13
19,888,1505467,769,-15905,-3556,-14,-2,-11
19,889,1505472,644,-15940,-3711,-8,-19,-9
19,890,1505477,670,-15926,-3851,-8,-16,-14
19,891,1505482,757,-15908,-3715,-9,-5,-18
19,892,1505487,707,-15939,-3526,-9,-2,-20
19,893,1505492,700,-15955,-3483,-8,-11,-22
19,894,1505497,734,-15941,-3623,-9,-15,-20
19,895,1505502,799,-15928,-3757,-11,-13,-22
19,896,1505507,820,-15895,-3648,-8,-20,-21
19,897,1505512,739,-15929,-3578,-8,-40,-21
19,898,1505517,719,-15932,-3829,-3,-66,-19
19,899,1505522,799,-15890,-4148,-1,-68,-16
19,900,1505527,766,-15899,-4128,-3,-52,-19
19,901,1505532,721,-15892,-3922,-1,-43,-20
19,902,1505537,649,-15908,-3928,-1,-57,-19
19,903,1505542,599,-15923,-4133,3,-69,-20
19,904,1505547,547,-15892,-4222,8,-58,-18
19,905,1505552,535,-15882,-4182,8,-41,-21
19,906,1505557,636,-15952,-4015,9,-38,-18
19,907,1505562,604,-15966,-3973,11,-42,-20
19,908,1505567,598,-15923,-4024,14,-44,-23
19,909,1505572,598,-15790,-4044,16,-24,-23
19,910,1505577,685,-15863,-4006,17,-12,-22
19,911,1505582,687,-15973,-3881,16,-6,-24
19,912,1505587,724,-16042,-3733,19,-14,-22
19,913,1505592,728,-16009,-3582,18,-17,-22
19,914,1505597,676,-15954,-3552,16,-8,-25
19,915,1505602,616,-15974,-3602,19,-4,-20
19,916,1505607,614,-15964,-3668,21,-8,-18
19,917,1505612,642,-15874,-3635,16,-18,-16
19,918,1505617,685,-15783,-3627,14,-38,-13
19,919,1505622,734,-15807,-3792,15,-55,-11
19,920,1505627,717,-15828,-4003,15,-54,-8
19,921,1505632,774,-15862,-4023,16,-38,-6
19,922,1505637,752,-15882,-3944,14,-20,-4
19,923,1505642,813,-15877,-3889,15,-11,-3
19,924,1505647,929,-15944,-3967,16,-7,1
19,925,1505652,898,-16003,-3979,13,3,-4
19,926,1505657,722,-15983,-3889,12,11,-4
19,927,1505662,573,-15961,-3906,14,13,-5
19,928,1505667,580,-15960,-4166,14,16,-2
19,929,1505672,687,-16014,-4184,11,26,1
19,930,1505677,710,-16120,-3828,7,28,2
19,931,1505682,755,-16157,-3682,7,15,-1
19,932,1505687,852,-16104,-3842,9,6,-1
19,933,1505692,744,-16091,-3967,11,17,3
19,934,1505697,613,-16073,-3820,10,25,1
19,935,1505702,644,-16089,-3727,9,11,-1
19,936,1505707,830,-16143,-3797,6,-15,4
19,937,1505712,893,-16145,-3838,6,-31,5
19,938,1505717,838,-16072,-3854,7,-39,6
19,939,1505722,857,-15943,-3963,7,-44,6
19,940,1505727,809,-15866,-4046,6,-45,6
19,941,1505732,735,-15930,-4145,6,-40,7
19,942,1505737,725,-15962,-4132,2,-33,8
19,943,1505742,775,-15929,-4051,1,-24,7
19,944,1505747,776,-15886,-3982,2,-21,7
19,945,1505752,785,-15918,-3975,3,-20,7
19,946,1505757,866,-15986,-3991,-1,-22,5
19,947,1505762,927,-16016,-4161,-2,-19,2
19,948,1505767,920,-15997,-4216,-1,-10,2
19,949,1505772,741,-15877,-4098,-6,3,1
19,950,1505777,702,-15832,-3970,-5,6,-2
19,951,1505782,721,-15852,-4012,-5,8,-2
19,952,1505787,830,-15864,-3932,-9,16,-4
19,953,1505792,815,-15827,-3719,-9,17,-6
19,954,1505797,814,-15811,-3687,-9,9,-5
19,955,1505802,771,-15808,-3952,-6,-3,-5
19,956,1505807,709,-15762,-4059,-9,7,-9
19,957,1505812,624,-15737,-3929,-13,25,-9
19,958,1505817,613,-15777,-3719,-16,36,-11
19,959,1505822,636,-15867,-3670,-15,30,-11
19,960,1505827,797,-15955,-3878,-15,22,-12
19,961,1505832,797,-15938,-3999,-17,24,-11
19,962,1505837,780,-15960,-3949,-19,21,-13
19,963,1505842,673,-15992,-3897,-20,10,-16
19,964,1505847,637,-15998,-3944,-22,-2,-17
19,965,1505852,602,-15981,-3997,-18,5,-17
19,966,1505857,678,-15996,-3976,-18,17,-17
19,967,1505862,804,-16039,-3904,-20,16,-19
19,968,1505867,839,-15990,-3842,-19,1,-21
19,969,1505872,879,-16003,-4039,-20,-23,-21
19,970,1505877,873,-15986,-4137,-18,-38,-21
19,971,1505882,777,-15936,-4205,-18,-35,-19
19,972,1505887,733,-15990,-4211,-18,-28,-18
19,973,1505892,806,-15979,-4078,-15,-28,-17
19,974,1505897,824,-15967,-4014,-16,-28,-20
19,975,1505902,914,-15914,-4216,-15,-27,-21
19,976,1505907,884,-15904,-4194,-18,-17,-25
19,977,1505912,599,-15753,-3814,-18,-7,-27
19,978,1505917,571,-15651,-3641,-19,-15,-22
19,979,1505922,728,-15646,-3659,-16,-20,-18
19,980,1505927,726,-15698,-3727,-14,-23,-22
19,981,1505932,695,-15785,-3855,-14,-40,-18
19,982,1505937,687,-15790,-3912,-16,-58,-15
19,983,1505942,592,-15925,-3903,-18,-48,-19
19,984,1505947,628,-16074,-3916,-17,-27,-20
19,985,1505952,831,-16182,-3843,-18,-12,-20
19,986,1505957,1007,-16158,-3722,-22,-20,-20
19,987,1505962,948,-16182,-3756,-20,-41,-20
19,988,1505967,711,-16124,-3830,-22,-49,-20
19,989,1505972,628,-16035,-3821,-22,-37,-17
19,990,1505977,690,-15983,-3869,-23,-6,-16
19,991,1505982,771,-15988,-3771,-23,20,-16
19,992,1505987,806,-15972,-3654,-24,17,-15
19,993,1505992,908,-15953,-3704,-25,-5,-12
19,994,1505997,978,-15964,-3743,-27,-19,-12
19,995,1506002,863,-15980,-3794,-25,-22,-14
19,996,1506007,656,-16023,-3894,-24,-23,-12
19,997,1506012,486,-15907,-4077,-25,-17,-18
19,998,1506017,380,-15870,-4284,-23,-5,-13
19,999,1506022,466,-15853,-4261,-21,8,-8
