event_id,seq,ts_ms,ax,ay,az,gx,gy,gz
2,0,77797,-1554,-15823,-2465,17,-49,-3
2,1,77802,-1550,-15829,-2567,19,-61,-3
2,2,77807,-1545,-15873,-2592,22,-58,-7
2,3,77812,-1551,-15902,-2569,24,-55,-8
2,4,77817,-1554,-15955,-2640,26,-48,-10
2,5,77822,-1468,-16011,-2726,26,-35,-14
2,6,77827,-1415,-16023,-2848,27,-6,-19
2,7,77832,-1352,-15992,-2765,24,26,-17
2,8,77837,-1410,-15937,-2526,26,47,-18
2,9,77842,-1501,-15918,-2424,27,52,-24
2,10,77847,-1532,-15921,-2441,26,50,-23
2,11,77852,-1472,-15923,-2410,28,54,-20
2,12,77857,-1453,-15939,-2298,26,64,-25
2,13,77862,-1446,-16020,-2249,26,63,-25
2,14,77867,-1357,-16134,-2233,27,63,-22
2,15,77872,-1260,-16239,-2192,28,61,-22
2,16,77877,-1280,-16324,-2095,30,53,-20
2,17,77882,-1291,-16328,-2092,26,33,-22
2,18,77887,-1246,-16328,-2227,25,5,-17
2,19,77892,-1087,-16353,-2292,26,-11,-11
2,20,77897,-1141,-16394,-2357,22,-18,-9
2,21,77902,-1220,-16454,-2410,22,-28,-8
2,22,77907,-1283,-16507,-2535,25,-32,-9
2,23,77912,-1310,-16527,-2580,24,-20,-9
2,24,77917,-1299,-16515,-2584,22,-8,-4
2,25,77922,-1262,-16554,-2549,24,9,-6
2,26,77927,-1246,-16546,-2591,24,13,-5
2,27,77932,-1286,-16500,-2640,24,10,-3
2,28,77937,-1293,-16499,-2627,23,8,-2
2,29,77942,-1393,-16567,-2597,21,6,1
2,30,77947,-1361,-16540,-2599,22,14,1
2,31,77952,-1346,-16504,-2572,22,27,2
2,32,77957,-1373,-16483,-2445,19,35,3
2,33,77962,-1484,-16455,-2375,19,30,4
2,34,77967,-1518,-16442,-2359,20,16,1
2,35,77972,-1470,-16387,-2378,19,6,3
2,36,77977,-1453,-16372,-2462,17,5,10
2,37,77982,-1467,-16354,-2524,19,11,8
2,38,77987,-1471,-16333,-2526,19,11,6
2,39,77992,-1470,-16310,-2522,18,11,8
2,40,77997,-1367,-16322,-2543,15,9,9
2,41,78002,-1268,-16355,-2521,14,10,11
2,42,78007,-1271,-16331,-2545,13,18,11
2,43,78012,-1353,-16252,-2549,11,20,13
2,44,78017,-1386,-16205,-2570,11,12,12
2,45,78022,-1366,-16150,-2543,12,0,15
2,46,78027,-1402,-16112,-2551,11,-6,16
2,47,78032,-1528,-16106,-2596,9,-7,16
2,48,78037,-1570,-16131,-2614,11,-3,14
2,49,78042,-1486,-16137,-2736,9,6,13
2,50,78047,-1528,-16122,-2414,12,18,10
2,51,78052,-1497,-16237,-2439,11,16,9
2,52,78057,-1460,-16383,-2358,10,6,10
2,53,78062,-1407,-16413,-2248,8,5,12
2,54,78067,-1365,-16418,-2253,6,6,11
2,55,78072,-1299,-16434,-2251,5,7,11
2,56,78077,-1300,-16416,-2256,2,4,13
2,57,78082,-1305,-16423,-2247,1,-10,17
2,58,78087,-1283,-16453,-2284,1,-24,18
2,59,78092,-1260,-16382,-2348,1,-33,14
2,60,78097,-1241,-16307,-2425,1,-32,17
2,61,78102,-1255,-16256,-2511,1,-24,18
2,62,78107,-1328,-16165,-2585,1,-13,15
2,63,78112,-1291,-16166,-2635,5,-3,17
2,64,78117,-1279,-16104,-2663,6,4,13
2,65,78122,-1268,-16065,-2703,8,17,12
2,66,78127,-1308,-16072,-2735,8,31,9
2,67,78132,-1299,-16058,-2660,6,38,7
2,68,78137,-1342,-16099,-2593,10,31,8
2,69,78142,-1279,-16161,-2522,7,23,9
2,70,78147,-1260,-16156,-2476,7,19,7
2,71,78152,-1287,-16180,-2471,8,23,6
2,72,78157,-1308,-16150,-2570,11,21,9
2,73,78162,-1266,-16182,-2595,9,21,9
2,74,78167,-1221,-16146,-2476,8,20,10
2,75,78172,-1186,-16120,-2363,6,11,11
2,76,78177,-1133,-16117,-2390,8,2,9
2,77,78182,-1115,-16115,-2467,9,-2,11
2,78,78187,-1178,-16137,-2418,11,-7,12
2,79,78192,-1263,-16097,-2304,7,-18,13
2,80,78197,-1299,-16109,-2347,9,-31,13
2,81,78202,-1264,-16102,-2486,11,-36,12
2,82,78207,-1254,-16092,-2597,11,-24,13
2,83,78212,-1302,-16123,-2599,9,-7,11
2,84,78217,-1338,-16082,-2546,9,4,10
2,85,78222,-1418,-16054,-2569,6,10,5
2,86,78227,-1423,-16072,-2618,10,17,6
2,87,78232,-1376,-16033,-2730,13,26,6
2,88,78237,-1433,-16003,-2707,10,34,5
2,89,78242,-1468,-16031,-2605,11,32,6
2,90,78247,-1402,-16062,-2583,13,25,7
2,91,78252,-1283,-16064,-2663,14,15,7
2,92,78257,-1286,-16129,-2724,15,14,2
2,93,78262,-1365,-16175,-2646,14,17,2
2,94,78267,-1342,-16219,-2528,13,15,2
2,95,78272,-1323,-16246,-2550,12,9,3
2,96,78277,-1295,-16286,-2507,10,13,3
2,97,78282,-1385,-16341,-2467,7,16,2
2,98,78287,-1473,-16352,-2460,10,6,3
2,99,78292,-1442,-16392,-2513,11,-3,3
2,100,78297,-1386,-16423,-2551,11,-9,3
2,101,78302,-1422,-16368,-2516,9,-15,4
2,102,78307,-1464,-16344,-2500,8,-14,2
2,103,78312,-1439,-16382,-2620,9,-17,2
2,104,78317,-1403,-16341,-2759,11,-12,5
2,105,78322,-1448,-16283,-2780,8,1,0
2,106,78327,-1445,-16213,-2727,9,10,-1
2,107,78332,-1376,-16222,-2731,11,19,-1
2,108,78337,-1291,-16230,-2747,10,28,-1
2,109,78342,-1258,-16251,-2780,12,38,0
2,110,78347,-1301,-16264,-2718,9,48,-4
2,111,78352,-1302,-16245,-2648,7,44,-3
2,112,78357,-1339,-16189,-2645,9,36,-2
2,113,78362,-1313,-16177,-2611,9,34,-2
2,114,78367,-1251,-16264,-2594,9,35,1
2,115,78372,-1174,-16300,-2553,10,36,5
2,116,78377,-1134,-16252,-2486,9,32,4
2,117,78382,-1130,-16230,-2341,9,22,4
2,118,78387,-1117,-16254,-2363,8,2,7
2,119,78392,-1108,-16233,-2331,6,-7,10
2,120,78397,-1169,-16294,-2350,6,-18,16
2,121,78402,-1185,-16277,-2362,3,-23,14
2,122,78407,-1191,-16219,-2434,-1,-23,13
2,123,78412,-1267,-16178,-2408,0,-21,18
2,124,78417,-1338,-16168,-2460,-3,-21,16
2,125,78422,-1302,-16156,-2427,-3,-19,15
2,126,78427,-1307,-16167,-2475,-3,-11,16
2,127,78432,-1297,-16114,-2533,-6,6,17
2,128,78437,-1263,-16052,-2570,-7,18,15
2,129,78442,-1300,-16045,-2533,-7,27,13
2,130,78447,-1297,-16033,-2504,-9,25,14
2,131,78452,-1243,-16078,-2509,-10,22,18
2,132,78457,-1246,-16086,-2504,-9,19,18
2,133,78462,-1311,-16072,-2498,-13,18,17
2,134,78467,-1315,-16056,-2552,-10,14,18
2,135,78472,-1295,-16054,-2498,-8,2,19
2,136,78477,-1313,-16012,-2428,-12,-12,18
2,137,78482,-1267,-15981,-2440,-12,-25,21
2,138,78487,-1221,-16028,-2460,-12,-30,18
2,139,78492,-1205,-16118,-2585,-15,-32,16
2,140,78497,-1218,-16107,-2489,-12,-30,18
2,141,78502,-1271,-16119,-2434,-13,-34,17
2,142,78507,-1350,-16131,-2492,-14,-46,18
2,143,78512,-1315,-16123,-2610,-13,-49,21
2,144,78517,-1225,-16124,-2690,-18,-39,19
2,145,78522,-1304,-16075,-2562,-16,-21,15
2,146,78527,-1406,-16071,-2549,-14,-20,17
2,147,78532,-1384,-16070,-2624,-15,-24,17
2,148,78537,-1322,-16066,-2725,-16,-11,13
2,149,78542,-1235,-16038,-2755,-14,15,9
2,150,78547,-1225,-16058,-2703,-12,32,7
2,151,78552,-1201,-16044,-2628,-12,39,7
2,152,78557,-1186,-16035,-2549,-10,39,7
2,153,78562,-1112,-16156,-2533,-8,32,5
2,154,78567,-1101,-16210,-2566,-8,22,7
2,155,78572,-991,-16262,-2524,-6,19,6
2,156,78577,-989,-16263,-2332,-9,6,9
2,157,78582,-1051,-16300,-2055,-11,-19,9
2,158,78587,-1100,-16330,-2142,-10,-55,14
2,159,78592,-1083,-16361,-2346,-9,-86,16
2,160,78597,-1140,-16362,-2445,-8,-96,17
2,161,78602,-1190,-16411,-2452,-10,-97,16
2,162,78607,-1209,-16399,-2408,-9,-94,14
2,163,78612,-1258,-16340,-2480,-9,-85,12
2,164,78617,-1369,-16314,-2614,-9,-74,9
2,165,78622,-1409,-16319,-2656,-8,-58,3
2,166,78627,-1454,-16232,-2666,-9,-31,3
2,167,78632,-1451,-16211,-2567,-11,-12,1
2,168,78637,-1457,-16237,-2438,-10,-6,0
2,169,78642,-1385,-16275,-2430,-10,-8,-1
2,170,78647,-1383,-16249,-2539,-7,-5,-4
2,171,78652,-1403,-16241,-2561,-5,-2,-6
2,172,78657,-1431,-16281,-2516,-5,0,-10
2,173,78662,-1406,-16282,-2449,-5,-3,-7
2,174,78667,-1301,-16272,-2491,-5,-9,-9
2,175,78672,-1292,-16305,-2508,-8,-17,-8
2,176,78677,-1330,-16338,-2527,-5,-22,-13
2,177,78682,-1398,-16320,-2518,-5,-33,-14
2,178,78687,-1438,-16280,-2468,-7,-45,-13
2,179,78692,-1382,-16254,-2445,-7,-56,-11
2,180,78697,-1365,-16235,-2564,-8,-58,-12
2,181,78702,-1427,-16208,-2535,-8,-51,-17
2,182,78707,-1501,-16182,-2542,-6,-50,-18
2,183,78712,-1536,-16099,-2577,-5,-49,-21
2,184,78717,-1523,-16126,-2660,-3,-42,-22
2,185,78722,-1435,-16092,-2657,-4,-20,-23
2,186,78727,-1430,-16068,-2639,-7,-1,-24
2,187,78732,-1440,-16077,-2569,-4,11,-27
2,188,78737,-1383,-16037,-2514,-6,11,-29
2,189,78742,-1406,-16049,-2504,-7,7,-31
2,190,78747,-1396,-16066,-2493,-8,6,-31
2,191,78752,-1410,-16119,-2543,-6,5,-35
2,192,78757,-1375,-16133,-2591,-3,2,-33
2,193,78762,-1269,-16145,-2649,-4,3,-31
2,194,78767,-1290,-16166,-2663,-3,8,-35
2,195,78772,-1343,-16186,-2635,0,12,-34
2,196,78777,-1391,-16135,-2680,-1,8,-34
2,197,78782,-1293,-16120,-2564,-2,4,-35
2,198,78787,-1319,-16086,-2517,-5,-7,-31
2,199,78792,-1336,-16108,-2556,-1,-16,-31
2,200,78797,-1338,-16096,-2642,2,-24,-29
2,201,78802,-1300,-16133,-2692,2,-31,-28
2,202,78807,-1316,-16135,-2618,1,-31,-30
2,203,78812,-1435,-16104,-2504,-2,-29,-33
2,204,78817,-1518,-16139,-2480,1,-30,-36
2,205,78822,-1491,-16143,-2625,3,-27,-32
2,206,78827,-1479,-16189,-2603,1,-14,-32
2,207,78832,-1479,-16148,-2429,0,-7,-33
2,208,78837,-1499,-16142,-2416,4,-10,-34
2,209,78842,-1503,-16144,-2482,3,-15,-35
2,210,78847,-1430,-16194,-2580,3,-15,-32
2,211,78852,-1359,-16227,-2526,7,-1,-32
2,212,78857,-1360,-16223,-2566,5,7,-33
2,213,78862,-1391,-16213,-2521,6,15,-35
2,214,78867,-1351,-16237,-2523,8,18,-35
2,215,78872,-1280,-16259,-2591,6,17,-34
2,216,78877,-1238,-16244,-2647,7,22,-32
2,217,78882,-1265,-16224,-2607,6,29,-32
2,218,78887,-1336,-16267,-2505,7,29,-32
2,219,78892,-1295,-16266,-2527,8,18,-26
2,220,78897,-1281,-16272,-2564,9,11,-24
2,221,78902,-1366,-16278,-2488,8,10,-25
2,222,78907,-1429,-16248,-2454,8,10,-26
2,223,78912,-1418,-16295,-2434,9,9,-27
2,224,78917,-1385,-16297,-2442,9,9,-24
2,225,78922,-1328,-16302,-2393,11,9,-24
2,226,78927,-1335,-16228,-2355,10,-2,-20
2,227,78932,-1363,-16159,-2399,7,-14,-16
2,228,78937,-1323,-16167,-2470,9,-22,-15
2,229,78942,-1261,-16088,-2515,8,-28,-14
2,230,78947,-1230,-16036,-2597,11,-30,-13
2,231,78952,-1214,-15988,-2617,12,-29,-14
2,232,78957,-1276,-15971,-2637,14,-31,-13
2,233,78962,-1338,-15882,-2710,12,-37,-11
2,234,78967,-1373,-15881,-2876,12,-37,-10
2,235,78972,-1323,-15843,-2742,16,-17,-11
2,236,78977,-1301,-15883,-2659,18,-2,-8
2,237,78982,-1354,-15936,-2581,17,8,-8
2,238,78987,-1355,-16043,-2639,20,9,-5
2,239,78992,-1239,-15998,-2574,21,8,-9
2,240,78997,-1271,-16049,-2517,21,4,-7
2,241,79002,-1354,-16072,-2424,22,-7,-7
2,242,79007,-1424,-16146,-2494,23,-12,-4
2,243,79012,-1275,-16210,-2528,23,-13,-5
2,244,79017,-1224,-16218,-2486,26,-11,-1
2,245,79022,-1245,-16264,-2407,22,-12,-1
2,246,79027,-1265,-16281,-2372,20,-19,-2
2,247,79032,-1282,-16289,-2412,23,-34,0
2,248,79037,-1233,-16304,-2418,24,-42,5
2,249,79042,-1290,-16269,-2326,21,-37,7
2,250,79047,-1329,-16211,-2296,19,-38,8
2,251,79052,-1391,-16200,-2365,20,-46,9
2,252,79057,-1369,-16256,-2482,19,-43,8
2,253,79062,-1328,-16238,-2469,20,-35,8
2,254,79067,-1369,-16237,-2399,20,-24,10
2,255,79072,-1466,-16246,-2346,18,-16,4
2,256,79077,-1490,-16266,-2391,21,-11,3
2,257,79082,-1481,-16269,-2446,22,-10,5
2,258,79087,-1438,-16286,-2437,23,-2,4
2,259,79092,-1428,-16297,-2412,22,0,4
2,260,79097,-1348,-16313,-2436,21,-1,2
2,261,79102,-1372,-16370,-2412,21,1,1
2,262,79107,-1371,-16369,-2409,20,0,5
2,263,79112,-1334,-16357,-2390,19,-1,5
2,264,79117,-1255,-16368,-2417,19,1,4
2,265,79122,-1223,-16355,-2414,20,0,6
2,266,79127,-1232,-16325,-2359,21,-1,7
2,267,79132,-1204,-16356,-2389,20,-16,9
2,268,79137,-1191,-16332,-2455,19,-27,7
2,269,79142,-1153,-16311,-2437,18,-32,11
2,270,79147,-1284,-16214,-2402,19,-40,14
2,271,79152,-1324,-16232,-2461,20,-44,10
2,272,79157,-1369,-16177,-2450,19,-45,13
2,273,79162,-1431,-16189,-2414,19,-45,14
2,274,79167,-1447,-16187,-2407,22,-41,15
2,275,79172,-1392,-16190,-2501,22,-33,12
2,276,79177,-1464,-16208,-2507,19,-19,8
2,277,79182,-1519,-16200,-2492,19,0,6
2,278,79187,-1507,-16190,-2516,20,16,5
2,279,79192,-1460,-16215,-2599,18,31,1
2,280,79197,-1395,-16181,-2550,17,51,1
2,281,79202,-1394,-16202,-2500,18,65,3
2,282,79207,-1377,-16135,-2406,18,67,-2
2,283,79212,-1311,-16127,-2448,18,61,-1
2,284,79217,-1239,-16152,-2447,17,58,-2
2,285,79222,-1207,-16161,-2431,18,55,0
2,286,79227,-1182,-16145,-2434,17,45,2
2,287,79232,-1148,-16149,-2462,16,25,7
2,288,79237,-1158,-16149,-2429,17,6,9
2,289,79242,-1116,-16087,-2412,15,-12,9
2,290,79247,-1115,-16141,-2411,16,-29,12
2,291,79252,-1146,-16161,-2504,18,-45,15
2,292,79257,-1304,-16153,-2575,17,-48,15
2,293,79262,-1333,-16180,-2555,16,-46,14
2,294,79267,-1397,-16181,-2485,14,-45,9
2,295,79272,-1403,-16151,-2544,16,-41,8
2,296,79277,-1443,-16107,-2506,19,-29,10
2,297,79282,-1427,-16148,-2526,19,-22,8
2,298,79287,-1405,-16172,-2496,17,-15,5
2,299,79292,-1410,-16155,-2461,19,-11,3
2,300,79297,-1378,-16164,-2465,20,-7,3
2,301,79302,-1364,-16218,-2524,16,1,4
2,302,79307,-1353,-16225,-2587,18,15,1
2,303,79312,-1378,-16267,-2489,19,28,-1
2,304,79317,-1347,-16286,-2377,15,32,1
2,305,79322,-1277,-16226,-2411,16,30,-3
2,306,79327,-1240,-16235,-2410,12,35,0
2,307,79332,-1204,-16198,-2342,12,35,0
2,308,79337,-1205,-16212,-2270,11,18,-1
2,309,79342,-1142,-16202,-2312,12,-11,5
2,310,79347,-1109,-16201,-2363,11,-32,7
2,311,79352,-1103,-16137,-2392,8,-49,6
2,312,79357,-1214,-16149,-2489,7,-68,9
2,313,79362,-1335,-16184,-2474,10,-81,11
2,314,79367,-1361,-16186,-2531,12,-81,10
2,315,79372,-1392,-16191,-2550,11,-70,8
2,316,79377,-1372,-16184,-2596,12,-54,6
2,317,79382,-1466,-16219,-2537,9,-37,2
2,318,79387,-1525,-16243,-2487,7,-25,1
2,319,79392,-1491,-16275,-2421,10,-21,-2
2,320,79397,-1474,-16253,-2485,8,-18,-8
2,321,79402,-1513,-16278,-2433,8,-3,-7
2,322,79407,-1492,-16354,-2498,5,8,-6
2,323,79412,-1405,-16261,-2443,5,19,-9
2,324,79417,-1336,-16277,-2466,5,20,-10
2,325,79422,-1255,-16236,-2389,2,26,-10
2,326,79427,-1280,-16238,-2410,-1,28,-11
2,327,79432,-1272,-16247,-2361,-2,21,-9
2,328,79437,-1222,-16192,-2364,1,10,-7
2,329,79442,-1198,-16176,-2368,2,-3,-6
2,330,79447,-1209,-16145,-2391,0,-20,-6
2,331,79452,-1212,-16131,-2400,0,-38,-7
2,332,79457,-1308,-16149,-2416,1,-53,-7
2,333,79462,-1332,-16153,-2442,1,-61,-6
2,334,79467,-1277,-16153,-2489,0,-62,-4
2,335,79472,-1282,-16181,-2576,4,-54,-8
2,336,79477,-1362,-16178,-2552,1,-41,-11
2,337,79482,-1418,-16218,-2490,-2,-29,-12
2,338,79487,-1376,-16250,-2443,-1,-22,-10
2,339,79492,-1336,-16296,-2415,-5,-18,-13
2,340,79497,-1367,-16308,-2455,-5,-12,-15
2,341,79502,-1428,-16288,-2481,-5,-4,-14
2,342,79507,-1444,-16260,-2521,-5,1,-17
2,343,79512,-1372,-16144,-2569,-6,4,-18
2,344,79517,-1353,-16064,-2537,-9,12,-21
2,345,79522,-1319,-16055,-2544,-8,22,-22
2,346,79527,-1330,-16053,-2415,-6,24,-21
2,347,79532,-1242,-16092,-2397,-9,17,-22
2,348,79537,-1191,-16078,-2364,-6,9,-22
2,349,79542,-1153,-16091,-2425,-5,4,-20
2,350,79547,-1222,-16132,-2290,-7,-3,-21
2,351,79552,-1253,-16174,-2246,-9,-18,-20
2,352,79557,-1179,-16223,-2306,-9,-32,-21
2,353,79562,-1118,-16310,-2398,-8,-37,-16
2,354,79567,-1116,-16362,-2409,-7,-27,-17
2,355,79572,-1226,-16362,-2394,-10,-24,-19
2,356,79577,-1267,-16305,-2380,-9,-29,-17
2,357,79582,-1328,-16301,-2444,-12,-27,-18
2,358,79587,-1359,-16323,-2455,-14,-19,-21
2,359,79592,-1422,-16331,-2400,-12,-5,-22
2,360,79597,-1472,-16341,-2422,-13,8,-21
2,361,79602,-1492,-16359,-2519,-13,14,-22
2,362,79607,-1445,-16270,-2467,-14,15,-22
2,363,79612,-1416,-16222,-2314,-19,12,-23
2,364,79617,-1424,-16176,-2260,-16,-1,-24
2,365,79622,-1451,-16192,-2424,-15,-10,-20
2,366,79627,-1393,-16180,-2503,-14,-4,-22
2,367,79632,-1375,-16200,-2482,-13,3,-24
2,368,79637,-1314,-16171,-2389,-19,7,-25
2,369,79642,-1281,-16146,-2397,-19,0,-23
2,370,79647,-1285,-16167,-2453,-16,-8,-25
2,371,79652,-1265,-16136,-2530,-16,-6,-22
2,372,79657,-1262,-16134,-2558,-18,1,-21
2,373,79662,-1215,-16172,-2518,-17,3,-18
2,374,79667,-1222,-16152,-2458,-18,2,-19
2,375,79672,-1230,-16183,-2461,-19,-9,-20
2,376,79677,-1234,-16182,-2478,-14,-21,-15
2,377,79682,-1250,-16186,-2461,-14,-25,-14
2,378,79687,-1327,-16135,-2377,-18,-24,-15
2,379,79692,-1348,-16133,-2379,-16,-24,-13
2,380,79697,-1432,-16145,-2418,-16,-25,-14
2,381,79702,-1466,-16167,-2418,-15,-23,-12
2,382,79707,-1471,-16158,-2425,-14,-16,-14
2,383,79712,-1428,-16176,-2449,-14,-7,-12
2,384,79717,-1423,-16189,-2384,-16,9,-10
2,385,79722,-1422,-16196,-2343,-17,13,-12
2,386,79727,-1387,-16235,-2342,-16,9,-11
2,387,79732,-1320,-16202,-2339,-16,4,-10
2,388,79737,-1274,-16243,-2367,-14,3,-6
2,389,79742,-1307,-16279,-2403,-13,8,-3
2,390,79747,-1321,-16289,-2459,-12,13,-5
2,391,79752,-1278,-16293,-2494,-14,18,-3
2,392,79757,-1207,-16291,-2474,-14,20,1
2,393,79762,-1211,-16267,-2424,-14,20,3
2,394,79767,-1207,-16248,-2323,-14,15,7
2,395,79772,-1234,-16229,-2308,-12,3,13
2,396,79777,-1294,-16240,-2374,-10,-10,13
2,397,79782,-1278,-16253,-2479,-5,-22,17
2,398,79787,-1295,-16203,-2433,-5,-25,22
2,399,79792,-1382,-16183,-2388,-4,-36,25
2,400,79797,-1479,-16235,-2377,-4,-53,30
2,401,79802,-1524,-16239,-2434,-2,-59,32
2,402,79807,-1509,-16224,-2441,-2,-50,35
2,403,79812,-1538,-16168,-2364,-1,-39,34
2,404,79817,-1672,-16184,-2478,-1,-36,37
2,405,79822,-1677,-16156,-2417,-2,-30,41
2,406,79827,-1630,-16189,-2472,1,-31,44
2,407,79832,-1591,-16142,-2435,1,-20,46
2,408,79837,-1650,-16063,-2451,0,-8,48
2,409,79842,-1749,-16055,-2476,2,6,50
2,410,79847,-1763,-16091,-2468,3,18,54
2,411,79852,-1693,-16102,-2328,1,30,60
2,412,79857,-1625,-16167,-2204,2,41,66
2,413,79862,-1609,-16297,-2103,2,47,72
2,414,79867,-1655,-16409,-2171,4,43,80
2,415,79872,-1525,-16447,-2183,8,34,89
2,416,79877,-1374,-16494,-2191,4,22,96
2,417,79882,-1667,-16450,-2155,9,-30,112
2,418,79887,-1744,-16345,-2373,11,-54,122
2,419,79892,-1756,-16323,-2611,11,-65,131
2,420,79897,-1775,-16315,-2668,14,-61,139
2,421,79902,-1831,-16236,-2630,15,-61,150
2,422,79907,-1965,-16173,-2561,17,-74,158
2,423,79912,-2106,-16135,-2659,21,-85,165
2,424,79917,-2227,-16085,-2767,26,-87,175
2,425,79922,-2261,-16035,-2682,30,-69,183
2,426,79927,-2404,-16026,-2536,29,-54,191
2,427,79932,-2566,-16102,-2374,32,-43,198
2,428,79937,-2689,-16176,-2336,37,-43,207
2,429,79942,-2674,-16184,-2353,36,-38,217
2,430,79947,-2554,-16126,-2325,35,-13,228
2,431,79952,-2379,-16161,-2337,36,30,238
2,432,79957,-2348,-16239,-2190,35,66,246
2,433,79962,-2439,-16270,-1981,31,88,253
2,434,79967,-2501,-16282,-1899,30,90,265
2,435,79972,-2421,-16337,-1975,29,96,279
2,436,79977,-2240,-16393,-2165,30,119,293
2,437,79982,-2193,-16395,-2182,30,148,311
2,438,79987,-2215,-16388,-2116,27,158,324
2,439,79992,-2297,-16366,-2118,28,135,337
2,440,79997,-2454,-16226,-2337,33,100,352
2,441,80002,-2830,-16129,-3973,55,93,364
2,442,80007,-2182,-17066,-4546,97,229,361
2,443,80012,-2301,-16562,-6094,34,423,380
2,444,80017,-2939,-16168,-884,0,648,409
2,445,80022,-2557,-15714,1260,38,636,391
2,446,80027,-2544,-16039,-1619,56,440,422
2,447,80032,-3409,-16128,-2067,55,354,456
2,448,80037,-3062,-15998,-1549,50,199,477
2,449,80042,-2603,-15783,-771,41,65,503
2,450,80047,-2466,-15912,-1815,54,-21,520
2,451,80052,-2893,-16070,-2995,60,33,534
2,452,80057,-3234,-16047,-3286,57,147,544
2,453,80062,-3303,-15885,-2357,56,213,565
2,454,80067,-2943,-15773,-1741,54,188,582
2,455,80072,-2738,-15891,-1861,61,161,594
2,456,80077,-2752,-15990,-2294,68,159,608
2,457,80082,-2993,-16019,-2288,62,165,628
2,458,80087,-3023,-16003,-1921,60,137,646
2,459,80092,-2741,-16042,-1810,59,82,667
2,460,80097,-2711,-16298,-2022,64,39,686
2,461,80102,-2983,-16568,-2207,66,21,700
2,462,80107,-3277,-16649,-2219,68,16,716
2,463,80112,-3388,-16538,-2093,63,13,731
2,464,80117,-3537,-16514,-1893,64,4,747
2,465,80122,-3827,-16556,-1791,65,-3,760
2,466,80127,-4065,-16608,-1814,66,-10,773
2,467,80132,-4195,-16596,-1863,66,-12,786
2,468,80137,-4213,-16562,-1983,64,-1,798
2,469,80142,-4101,-16501,-2133,63,36,807
2,470,80147,-4029,-16416,-2236,61,87,813
2,471,80152,-3919,-16265,-2324,59,141,819
2,472,80157,-3920,-16087,-2398,58,184,827
2,473,80162,-4033,-15971,-2302,55,212,833
2,474,80167,-3983,-15967,-2121,57,222,843
2,475,80172,-4008,-16120,-1957,56,214,851
2,476,80177,-4043,-16181,-1717,50,192,858
2,477,80182,-4204,-16082,-1561,50,157,863
2,478,80187,-4356,-15804,-1705,49,108,876
2,479,80192,-4420,-16112,-2110,58,80,885
2,480,80197,-4205,-15969,-2649,52,72,896
2,481,80202,-4141,-15745,-2015,46,99,898
2,482,80207,-4306,-15742,-1887,47,72,902
2,483,80212,-4443,-15488,-2095,50,34,907
2,484,80217,-4354,-15572,-2518,54,4,918
2,485,80222,-4452,-15297,-2439,52,7,922
2,486,80227,-4311,-15233,-2302,57,-3,930
2,487,80232,-4457,-15129,-2212,62,-14,934
2,488,80237,-4379,-15136,-2589,67,-28,943
2,489,80242,-4223,-15122,-2870,66,-22,948
2,490,80247,-4297,-15030,-2493,70,-3,952
2,491,80252,-4451,-15098,-2516,74,-12,951
2,492,80257,-4481,-15195,-2607,75,-15,954
2,493,80262,-4553,-15187,-2402,79,-3,952
2,494,80267,-4796,-15174,-2237,80,-9,950
2,495,80272,-5087,-15172,-2202,84,-27,948
2,496,80277,-5098,-15133,-2246,89,-41,947
2,497,80282,-5081,-15066,-2226,88,-37,942
2,498,80287,-5154,-15053,-2191,91,-25,933
2,499,80292,-5286,-15110,-2253,95,-16,931
2,500,80297,-5236,-15171,-2293,94,-6,923
2,501,80302,-5035,-15084,-2274,94,8,916
2,502,80307,-4906,-15026,-2193,98,31,911
2,503,80312,-4869,-15024,-2189,97,46,904
2,504,80317,-4871,-15038,-2279,95,35,902
2,505,80322,-4694,-14929,-2379,96,20,894
2,506,80327,-4625,-14889,-2207,98,-1,885
2,507,80332,-4807,-14989,-2105,101,-36,875
2,508,80337,-5042,-15200,-2158,101,-74,865
2,509,80342,-5256,-15395,-2241,104,-103,857
2,510,80347,-5496,-15405,-2126,104,-112,842
2,511,80352,-5682,-15383,-1920,106,-119,828
2,512,80357,-5551,-15419,-2073,111,-114,813
2,513,80362,-5157,-15230,-2739,115,-77,798
2,514,80367,-6273,-15130,-2961,111,-43,784
2,515,80372,-6509,-14821,-2264,111,-6,744
2,516,80377,-6095,-14948,-2317,109,-35,734
2,517,80382,-5604,-14858,-2160,115,-1,711
2,518,80387,-5593,-15108,-2953,121,13,687
2,519,80392,-6274,-14941,-2322,116,77,650
2,520,80397,-6426,-15027,-2438,113,36,631
2,521,80402,-5718,-15057,-2637,112,36,604
2,522,80407,-5461,-15124,-3281,112,64,584
2,523,80412,-5767,-15170,-2697,110,168,549
2,524,80417,-6248,-15188,-2629,107,208,516
2,525,80422,-6093,-15169,-2695,105,219,492
2,526,80427,-5666,-15078,-2848,105,237,462
2,527,80432,-5549,-15098,-2618,103,287,429
2,528,80437,-5721,-15065,-2228,97,318,396
2,529,80442,-5715,-14937,-2020,96,304,366
2,530,80447,-5544,-14691,-2216,96,263,337
2,531,80452,-5479,-14600,-2329,95,236,305
2,532,80457,-5565,-14577,-2447,91,220,272
2,533,80462,-5688,-14470,-2561,91,206,241
2,534,80467,-5587,-14435,-2754,92,192,205
2,535,80472,-5561,-14419,-2954,93,185,168
2,536,80477,-5257,-14406,-3062,88,187,132
2,537,80482,-5143,-14241,-2919,83,195,89
2,538,80487,-5186,-14067,-2860,79,191,47
2,539,80492,-5366,-13990,-3138,80,188,3
2,540,80497,-5348,-14239,-3350,81,200,-35
2,541,80502,-5330,-14733,-3208,76,229,-77
2,542,80507,-5122,-14708,-2733,65,267,-125
2,543,80512,-5111,-14588,-2124,60,308,-175
2,544,80517,-5108,-14572,-2148,62,336,-222
2,545,80522,-4938,-14737,-2574,59,371,-265
2,546,80527,-4626,-14873,-2609,52,405,-307
2,547,80532,-4417,-14929,-1848,42,416,-356
2,548,80537,-4200,-15136,-1572,42,369,-398
2,549,80542,-4032,-15442,-1861,40,317,-443
2,550,80547,-4085,-15658,-1959,33,283,-490
2,551,80552,-4134,-15790,-1684,26,249,-531
2,552,80557,-3886,-15921,-1725,18,190,-571
2,553,80562,-3442,-16021,-2002,15,143,-611
2,554,80567,-3365,-15936,-2098,8,112,-656
2,555,80572,-3805,-15853,-2141,0,69,-708
2,556,80577,-4169,-15812,-2283,-3,5,-752
2,557,80582,-4168,-15784,-2537,-5,-40,-798
2,558,80587,-3962,-15719,-2527,-11,-37,-849
2,559,80592,-3979,-15600,-2319,-17,-7,-905
2,560,80597,-4342,-15585,-2309,-23,-10,-956
2,561,80602,-4436,-15528,-2622,-25,-41,-1009
2,562,80607,-4218,-15579,-2910,-31,-48,-1054
2,563,80612,-4097,-15626,-2624,-36,-29,-1108
2,564,80617,-3977,-15787,-2507,-43,-35,-1212
2,565,80622,-3999,-15936,-2761,-45,-54,-1261
2,566,80627,-3730,-15888,-2998,-46,-66,-1301
2,567,80632,-3233,-15877,-2942,-50,-61,-1349
2,568,80637,-3106,-15956,-2631,-55,-69,-1399
2,569,80642,-3313,-16167,-2196,-54,-109,-1448
2,570,80647,-3279,-16377,-2057,-53,-190,-1490
2,571,80652,-2760,-16527,-2181,-56,-263,-1528
2,572,80657,-2441,-16820,-2251,-60,-318,-1567
2,573,80662,-2467,-17041,-1944,-66,-365,-1608
2,574,80667,-2444,-17226,-2131,-71,-419,-1638
2,575,80672,-2213,-17231,-2453,-76,-458,-1671
2,576,80677,-2183,-17175,-2337,-83,-465,-1706
2,577,80682,-2570,-17052,-2078,-91,-479,-1746
2,578,80687,-2776,-17013,-2340,-99,-495,-1784
2,579,80692,-2734,-17063,-2512,-102,-453,-1819
2,580,80697,-2730,-17205,-2284,-107,-386,-1856
2,581,80702,-2493,-17277,-2182,-117,-345,-1895
2,582,80707,-2362,-17556,-1950,-121,-322,-1914
2,583,80712,-2111,-17740,-1855,-126,-305,-1943
2,584,80717,-1849,-17962,-1703,-128,-294,-1968
2,585,80722,-1888,-17759,-1455,-137,-330,-1996
2,586,80727,-2190,-17814,-1362,-137,-409,-2011
2,587,80732,-2497,-17604,-1731,-132,-509,-2037
2,588,80737,-2616,-17804,-1347,-132,-585,-2049
2,589,80742,-2539,-17633,-1826,-150,-705,-2062
2,590,80747,-2533,-18130,-2034,-149,-764,-2058
2,591,80752,-2278,-18103,-2668,-157,-729,-2091
2,592,80757,-2255,-18223,-2395,-166,-577,-2109
2,593,80762,-2510,-18257,-2242,-172,-445,-2124
2,594,80767,-2329,-18298,-2117,-183,-365,-2127
2,595,80772,-1976,-18243,-1591,-189,-308,-2129
2,596,80777,-1952,-18325,-1238,-189,-294,-2132
2,597,80782,-1709,-18181,-1447,-187,-311,-2131
2,598,80787,-1771,-18085,-1864,-192,-332,-2112
2,599,80792,-1197,-9434,-5990,-241,-393,-2120
2,600,80797,-2722,3161,4122,-108,424,-2351
2,601,80802,5760,-12863,-15488,-517,-3566,-1815
2,602,80807,4074,-7474,6630,60,603,-762
2,603,80812,24861,-17169,-5433,-278,629,-1175
2,604,80817,-10199,-19310,11311,-89,1448,-1865
2,605,80822,-18369,-21353,4003,-99,-846,-1902
2,606,80827,-18311,-13481,-12177,-116,-3192,-1271
2,607,80832,15850,-20132,-15925,-216,-2239,-1191
2,608,80837,11340,-17627,1535,-260,239,-1617
2,609,80842,-3894,-20175,-311,-275,249,-1665
2,610,80847,-17197,-17230,-1431,-225,245,-1525
2,611,80852,-5315,-16446,-3563,-183,165,-1274
2,612,80857,7581,-17456,-754,-202,285,-1180
2,613,80862,6839,-19104,1857,-208,148,-1275
2,614,80867,-3184,-17993,966,-224,-293,-1366
2,615,80872,-7252,-15965,-3416,-206,-798,-1252
2,616,80877,-1262,-15871,-5815,-201,-796,-1077
2,617,80882,3775,-15928,-2763,-232,-418,-1028
2,618,80887,2096,-16952,-2145,-243,-338,-1008
2,619,80892,-2784,-16177,-1533,-219,-385,-1003
2,620,80897,-3052,-15603,-3256,-202,-595,-921
2,621,80902,-56,-15551,-4218,-205,-642,-843
2,622,80907,1484,-16016,-3321,-224,-485,-794
2,623,80912,-299,-16005,-2846,-241,-347,-759
2,624,80917,-2333,-15398,-1975,-226,-279,-719
2,625,80922,-1816,-15188,-2860,-217,-378,-641
2,626,80927,-378,-15030,-3401,-228,-403,-567
2,627,80932,203,-15747,-2319,-238,-335,-525
2,628,80937,-599,-15498,-2144,-243,-302,-486
2,629,80942,-1491,-15276,-2453,-233,-271,-442
2,630,80947,-1984,-15405,-3478,-238,-267,-382
2,631,80952,-1086,-15511,-3113,-246,-176,-310
2,632,80957,-109,-15572,-2850,-252,-87,-255
2,633,80962,-467,-15624,-2303,-257,-6,-206
2,634,80967,-943,-15434,-2088,-257,-6,-159
2,635,80972,-912,-15358,-2639,-257,-82,-95
2,636,80977,-314,-15242,-2807,-259,-126,-39
2,637,80982,-338,-15353,-2757,-259,-181,72
2,638,80987,-520,-15412,-2975,-256,-227,122
2,639,80992,-397,-15420,-3100,-254,-261,167
2,640,80997,-361,-15458,-2998,-257,-281,220
2,641,81002,-435,-15499,-3021,-252,-291,267
2,642,81007,-515,-15503,-3132,-250,-276,313
2,643,81012,3010,-10680,-3715,-260,-252,360
2,644,81017,-4910,-17341,2629,-256,-448,476
2,645,81022,-3807,-16340,-4577,-165,-1044,574
2,646,81027,2869,-15544,-9048,-171,-550,613
2,647,81032,1527,-16342,-8298,-222,24,563
2,648,81037,-2781,-15615,-1455,-260,511,553
2,649,81042,-3524,-14747,803,-257,410,666
2,650,81047,303,-15331,-1846,-211,198,737
2,651,81052,2010,-15542,-2889,-197,96,732
2,652,81057,956,-16014,-3273,-220,-104,749
2,653,81062,-1460,-15722,-2107,-231,-208,773
2,654,81067,-1277,-15199,-2878,-208,-273,800
2,655,81072,-303,-15610,-4286,-199,-173,845
2,656,81077,281,-16051,-4453,-204,13,859
2,657,81082,-305,-16113,-3166,-210,128,868
2,658,81087,-704,-15988,-2433,-203,67,883
2,659,81092,-462,-16041,-3031,-199,-22,905
2,660,81097,13,-16308,-3502,-197,-5,922
2,661,81102,96,-16444,-3233,-199,40,926
2,662,81107,-329,-16330,-2538,-198,44,936
2,663,81112,-502,-16184,-2759,-191,-14,951
2,664,81117,-301,-16158,-3159,-183,-56,977
2,665,81122,134,-16038,-3508,-184,-86,984
2,666,81127,184,-15969,-3497,-183,-107,987
2,667,81132,-168,-15965,-3391,-184,-111,988
2,668,81137,-551,-16027,-3394,-178,-92,990
2,669,81142,-487,-15997,-3694,-169,-64,988
2,670,81147,-313,-16051,-3850,-167,-24,989
2,671,81152,-322,-16021,-3509,-167,29,985
2,672,81157,-429,-16053,-3294,-164,45,987
2,673,81162,-539,-16087,-3371,-160,35,982
2,674,81167,-524,-16072,-3660,-155,28,974
2,675,81172,-540,-16126,-3808,-151,44,969
2,676,81177,-551,-16084,-3641,-154,67,955
2,677,81182,-606,-16074,-3538,-152,63,955
2,678,81187,-583,-16025,-3544,-148,65,944
2,679,81192,-575,-16073,-3684,-146,77,933
2,680,81197,-643,-15985,-3673,-144,91,920
2,681,81202,-564,-15934,-3813,-141,85,911
2,682,81207,-470,-15674,-3881,-139,79,895
2,683,81212,-521,-15681,-3890,-134,75,883
2,684,81217,-764,-15591,-3943,-130,68,869
2,685,81222,-967,-15694,-3967,-124,63,852
2,686,81227,-1089,-15707,-3997,-122,71,832
2,687,81232,-946,-15770,-3892,-114,75,819
2,688,81237,-852,-15890,-3691,-113,85,803
2,689,81242,-932,-15889,-3695,-110,92,784
2,690,81247,-1027,-15967,-3592,-105,106,764
2,691,81252,-1026,-15988,-3727,-106,112,745
2,692,81257,-924,-15972,-3838,-102,125,727
2,693,81262,-889,-15936,-3889,-101,141,709
2,694,81267,-937,-16005,-3741,-98,145,685
2,695,81272,-1109,-16084,-3504,-98,125,663
2,696,81277,-1182,-16058,-3558,-96,98,643
2,697,81282,-1171,-16119,-3739,-95,87,625
2,698,81287,-1088,-16075,-3840,-94,95,606
2,699,81292,-1116,-16015,-3840,-93,111,584
2,700,81297,-1291,-15882,-3815,-93,121,562
2,701,81302,-1334,-15764,-3849,-91,120,540
2,702,81307,-1180,-15664,-3928,-85,116,523
2,703,81312,-1064,-15642,-4054,-85,122,500
2,704,81317,-1085,-15614,-3906,-81,134,476
2,705,81322,-1237,-15645,-3872,-79,135,461
2,706,81327,-1173,-15716,-3956,-73,126,441
2,707,81332,-1093,-15640,-4061,-69,101,416
2,708,81337,-1247,-15662,-4127,-66,81,399
2,709,81342,-1439,-15538,-3977,-61,70,377
2,710,81347,-1516,-15544,-4011,-57,43,363
2,711,81352,-1329,-15467,-4199,-53,5,326
2,712,81357,-1577,-15543,-4075,-49,-5,304
2,713,81362,-1742,-15441,-4115,-41,-29,281
2,714,81367,-1815,-15474,-4281,-39,-49,268
2,715,81372,-1829,-15465,-4301,-36,-39,244
2,716,81377,-1996,-15569,-4163,-37,-22,221
2,717,81382,-2029,-15599,-4194,-35,-15,198
2,718,81387,-1978,-15585,-4186,-30,6,179
2,719,81392,-1862,-15595,-4193,-29,38,164
2,720,81397,-1797,-15664,-4111,-28,65,146
2,721,81402,-1708,-15634,-4003,-26,68,126
2,722,81407,-1850,-15655,-3863,-27,60,111
2,723,81412,-1977,-15557,-3720,-22,33,94
2,724,81417,-1946,-15523,-3950,-19,2,83
2,725,81422,-1845,-15483,-4182,-13,-5,67
2,726,81427,-1864,-15468,-4172,-13,7,52
2,727,81432,-1934,-15572,-4121,-12,10,43
2,728,81437,-1941,-15435,-4111,-9,3,20
2,729,81442,-2087,-15459,-4302,-6,-6,8
2,730,81447,-2205,-15434,-4291,-3,13,-4
2,731,81452,-2307,-15414,-4170,-2,30,-13
2,732,81457,-2063,-15447,-4109,-2,29,-23
2,733,81462,-1933,-15619,-4288,1,25,-31
2,734,81467,-1916,-15455,-4051,5,29,-50
2,735,81472,-2204,-15567,-4112,6,12,-57
2,736,81477,-2372,-15366,-4017,15,-5,-69
2,737,81482,-2509,-15396,-4306,18,-18,-73
2,738,81487,-2409,-15483,-4269,16,1,-81
2,739,81492,-2322,-15645,-4124,16,10,-86
2,740,81497,-2214,-15650,-4027,17,8,-96
2,741,81502,-2342,-15667,-4191,20,1,-110
2,742,81507,-2538,-15448,-4310,24,10,-124
2,743,81512,-2580,-15542,-4463,26,27,-120
2,744,81517,-2481,-15539,-4105,22,49,-122
2,745,81522,-2419,-15648,-3868,25,47,-131
2,746,81527,-2429,-15617,-3850,28,34,-142
2,747,81532,-2516,-15583,-4223,31,25,-146
2,748,81537,-2574,-15596,-4318,37,40,-146
2,749,81542,-2409,-15554,-4099,36,44,-150
2,750,81547,-2252,-15645,-4013,35,37,-153
2,751,81552,-2208,-15629,-3857,37,33,-155
2,752,81557,-2314,-15715,-4060,39,29,-150
2,753,81562,-2341,-15667,-4193,39,28,-153
2,754,81567,-2284,-15637,-4274,39,35,-152
2,755,81572,-2240,-15679,-4074,40,52,-152
2,756,81577,-2228,-15598,-4079,41,47,-159
2,757,81582,-2286,-15575,-4142,46,37,-157
2,758,81587,-2385,-15516,-4368,48,28,-155
2,759,81592,-2492,-15530,-4281,50,31,-153
2,760,81597,-2464,-15470,-4270,49,24,-154
2,761,81602,-2449,-15523,-4335,53,15,-156
2,762,81607,-2454,-15492,-4268,54,22,-155
2,763,81612,-2610,-15618,-4266,51,19,-149
2,764,81617,-2583,-15560,-4111,54,11,-152
2,765,81622,-2469,-15589,-4128,57,1,-150
2,766,81627,-2511,-15608,-4035,55,6,-151
2,767,81632,-2592,-15629,-4078,59,8,-148
2,768,81637,-2498,-15659,-4068,60,17,-145
2,769,81642,-2472,-15677,-4019,56,22,-142
2,770,81647,-2390,-15672,-3908,54,19,-137
2,771,81652,-2266,-15766,-3900,54,8,-132
2,772,81657,-2088,-15580,-3829,53,-8,-131
2,773,81662,-2211,-15810,-3913,49,-27,-114
2,774,81667,-2163,-15685,-3770,47,-37,-117
2,775,81672,-2204,-15724,-4038,49,-67,-112
2,776,81677,-2281,-15577,-4090,48,-60,-111
2,777,81682,-2432,-15506,-4123,48,-44,-109
2,778,81687,-2473,-15600,-4131,48,-39,-104
2,779,81692,-2353,-15632,-4113,52,-38,-105
2,780,81697,-2287,-15698,-4053,50,-35,-103
2,781,81702,-2386,-15906,-3916,48,-26,-95
2,782,81707,-2414,-15840,-3876,47,-31,-98
2,783,81712,-2390,-15826,-4099,48,-40,-93
2,784,81717,-2269,-15853,-4004,41,-30,-78
2,785,81722,-2233,-15850,-4065,39,-46,-72
2,786,81727,-2308,-15847,-4137,39,-52,-70
2,787,81732,-2364,-15859,-4211,37,-48,-72
2,788,81737,-2360,-15891,-4215,36,-33,-72
2,789,81742,-2336,-15976,-4131,34,-7,-71
2,790,81747,-2301,-15995,-3995,35,10,-67
2,791,81752,-2286,-15998,-3910,35,19,-62
2,792,81757,-2304,-15928,-4041,32,14,-57
2,793,81762,-2303,-15911,-4005,30,13,-54
2,794,81767,-2310,-15895,-3980,28,9,-50
2,795,81772,-2293,-15817,-3881,27,4,-46
2,796,81777,-2225,-15768,-3952,27,1,-42
2,797,81782,-2243,-15780,-4038,25,11,-37
2,798,81787,-2360,-15790,-4015,23,11,-30
2,799,81792,-2335,-15736,-3972,21,2,-25
2,800,81797,-2152,-15672,-4022,21,-15,-21
2,801,81802,-2076,-15688,-4037,20,-21,-19
2,802,81807,-2139,-15728,-4051,22,-26,-16
2,803,81812,-2241,-15743,-4089,21,-28,-14
2,804,81817,-2265,-15781,-4126,16,-25,-11
2,805,81822,-2245,-15754,-4139,17,-18,-7
2,806,81827,-2273,-15757,-4138,17,-10,-2
2,807,81832,-2319,-15784,-4105,13,-8,0
2,808,81837,-2306,-15727,-4061,13,-10,4
2,809,81842,-2333,-15724,-4033,10,-7,6
2,810,81847,-2366,-15734,-3951,9,-4,6
2,811,81852,-2392,-15699,-3967,11,-4,14
2,812,81857,-2354,-15748,-3899,8,4,16
2,813,81862,-2230,-15789,-3777,5,5,18
2,814,81867,-2242,-15826,-3767,2,-1,22
2,815,81872,-2293,-15839,-3799,2,-13,24
2,816,81877,-2301,-15797,-3828,3,-16,25
2,817,81882,-2214,-15794,-3897,2,-7,32
2,818,81887,-2147,-15834,-3861,-1,7,36
2,819,81892,-2140,-15860,-3899,-5,12,35
2,820,81897,-2254,-15830,-3917,-5,8,34
2,821,81902,-2312,-15797,-3951,-2,2,34
2,822,81907,-2241,-15777,-4004,-4,2,39
2,823,81912,-2189,-15806,-4014,-6,9,43
2,824,81917,-2148,-15829,-3951,-6,19,41
2,825,81922,-2222,-15843,-3948,-3,16,45
2,826,81927,-2362,-15825,-3879,-5,3,49
2,827,81932,-2327,-15805,-3986,-6,-7,51
2,828,81937,-2213,-15844,-4112,-4,-5,54
2,829,81942,-2199,-15785,-4044,-5,2,54
2,830,81947,-2312,-15725,-4004,-6,4,52
2,831,81952,-2324,-15756,-3997,-6,0,56
2,832,81957,-2274,-15793,-4006,-4,-6,62
2,833,81962,-2225,-15835,-4018,-5,-6,62
2,834,81967,-2225,-15799,-3916,-7,1,60
2,835,81972,-2227,-15801,-3781,-5,5,62
2,836,81977,-2295,-15843,-3833,-4,-1,64
2,837,81982,-2263,-15836,-3914,-5,0,64
2,838,81987,-2221,-15813,-3889,-5,7,63
2,839,81992,-2269,-15807,-3823,-6,20,66
2,840,81997,-2298,-15770,-3807,-6,24,67
2,841,82002,-2356,-15744,-3823,-4,16,69
2,842,82007,-2329,-15772,-3873,-3,8,70
2,843,82012,-2245,-15804,-3884,-4,4,69
2,844,82017,-2239,-15761,-3882,-4,10,69
2,845,82022,-2247,-15761,-3893,-3,11,69
2,846,82027,-2313,-15710,-3950,-3,10,70
2,847,82032,-2291,-15676,-3918,-1,6,70
2,848,82037,-2263,-15676,-3961,-2,8,69
2,849,82042,-2274,-15671,-4006,0,10,70
2,850,82047,-2302,-15691,-4012,1,13,71
2,851,82052,-2230,-15740,-4054,1,20,71
2,852,82057,-2241,-15701,-4010,2,22,66
2,853,82062,-2373,-15682,-3929,-2,17,68
2,854,82067,-2421,-15679,-3977,0,15,67
2,855,82072,-2360,-15655,-4011,2,23,65
2,856,82077,-2320,-15694,-3976,0,32,64
2,857,82082,-2218,-15620,-3907,3,39,66
2,858,82087,-2233,-15646,-3900,4,25,67
2,859,82092,-2225,-15690,-3915,2,12,66
2,860,82097,-2243,-15678,-3937,6,2,62
2,861,82102,-2210,-15676,-3948,8,-3,61
2,862,82107,-2276,-15642,-3910,8,-3,62
2,863,82112,-2354,-15622,-3920,10,-4,62
2,864,82117,-2377,-15611,-3950,11,-11,61
2,865,82122,-2367,-15647,-3993,13,-19,59
2,866,82127,-2282,-15697,-3953,12,-24,60
2,867,82132,-2306,-15652,-3805,12,-28,61
2,868,82137,-2431,-15712,-3781,12,-36,60
2,869,82142,-2424,-15774,-3817,13,-39,59
2,870,82147,-2350,-15842,-3875,12,-39,58
2,871,82152,-2270,-15873,-3814,13,-33,55
2,872,82157,-2310,-15929,-3715,12,-27,54
2,873,82162,-2370,-15925,-3765,10,-27,49
2,874,82167,-2526,-15958,-3875,10,-26,44
2,875,82172,-2496,-15893,-3973,12,-15,42
2,876,82177,-2477,-15812,-3945,12,8,39
2,877,82182,-2417,-15796,-3872,12,29,33
2,878,82187,-2434,-15834,-3860,13,41,32
2,879,82192,-2479,-15814,-3850,13,42,27
2,880,82197,-2453,-15836,-3731,16,42,25
2,881,82202,-2307,-15852,-3781,18,42,23
2,882,82207,-2236,-15847,-3971,17,50,25
2,883,82212,-2260,-15843,-3948,16,57,22
2,884,82217,-2309,-15827,-3849,18,54,20
2,885,82222,-2263,-15704,-3746,17,36,19
2,886,82227,-2214,-15682,-3831,18,16,21
2,887,82232,-2175,-15668,-3934,19,7,20
2,888,82237,-2221,-15663,-3946,20,0,19
2,889,82242,-2283,-15687,-3919,23,-8,16
2,890,82247,-2304,-15706,-3939,25,-21,15
2,891,82252,-2281,-15651,-4009,27,-22,13
2,892,82257,-2178,-15720,-4084,27,-12,11
2,893,82262,-2280,-15694,-3980,24,-1,8
2,894,82267,-2431,-15737,-3801,24,0,10
2,895,82272,-2426,-15748,-3738,23,-15,12
2,896,82277,-2321,-15793,-3818,24,-27,12
2,897,82282,-2254,-15791,-3897,24,-24,13
2,898,82287,-2327,-15788,-3871,27,-15,7
2,899,82292,-2391,-15786,-3913,28,-7,4
2,900,82297,-2382,-15798,-3906,28,-11,5
2,901,82302,-2346,-15817,-3965,27,-10,0
2,902,82307,-2294,-15833,-4000,28,-5,-1
2,903,82312,-2334,-15797,-4046,28,6,-2
2,904,82317,-2369,-15743,-3966,30,13,-2
2,905,82322,-2408,-15699,-3931,29,10,-2
2,906,82327,-2328,-15650,-3946,27,-4,-3
2,907,82332,-2308,-15576,-4007,26,-18,-4
2,908,82337,-2351,-15562,-3963,27,-27,2
2,909,82342,-2424,-15534,-3927,26,-38,6
2,910,82347,-2413,-15544,-3854,24,-50,5
2,911,82352,-2423,-15506,-3887,27,-56,3
2,912,82357,-2528,-15476,-3951,31,-53,-3
2,913,82362,-2546,-15536,-4037,32,-40,-5
2,914,82367,-2552,-15650,-3930,28,-13,-7
2,915,82372,-2477,-15712,-3851,29,4,-5
2,916,82377,-2397,-15793,-3809,30,13,-6
2,917,82382,-2444,-15818,-3805,24,14,-7
2,918,82387,-2496,-15770,-3773,21,5,-5
2,919,82392,-2478,-15752,-3784,21,-3,-3
2,920,82397,-2509,-15756,-3809,22,-7,1
2,921,82402,-2528,-15783,-3875,21,-5,-3
2,922,82407,-2518,-15748,-4038,19,6,-6
2,923,82412,-2515,-15742,-4023,19,19,-4
2,924,82417,-2475,-15760,-3950,19,27,-6
2,925,82422,-2496,-15686,-3843,19,27,-6
2,926,82427,-2467,-15663,-3881,19,15,-4
2,927,82432,-2470,-15717,-3901,19,6,-6
2,928,82437,-2427,-15730,-3874,15,7,-4
2,929,82442,-2381,-15770,-3800,16,5,-1
2,930,82447,-2387,-15825,-3828,16,-4,-1
2,931,82452,-2507,-15795,-3883,17,-21,-3
2,932,82457,-2516,-15753,-3914,18,-23,-2
2,933,82462,-2475,-15777,-3896,16,-18,-1
2,934,82467,-2422,-15848,-3868,16,-11,2
2,935,82472,-2412,-15990,-3712,14,-8,5
2,936,82477,-2427,-16098,-3588,10,-10,5
2,937,82482,-2472,-16071,-3641,8,-16,6
2,938,82487,-2450,-16074,-3735,11,-12,7
2,939,82492,-2451,-16030,-3797,8,0,7
2,940,82497,-2435,-16018,-3711,8,13,9
2,941,82502,-2409,-15996,-3684,8,7,9
2,942,82507,-2422,-15900,-3780,7,-8,10
2,943,82512,-2463,-15874,-3867,7,-9,6
2,944,82517,-2541,-15909,-3846,5,-4,8
2,945,82522,-2578,-15929,-3807,6,-1,5
2,946,82527,-2535,-15909,-3823,6,6,5
2,947,82532,-2519,-15917,-3878,4,16,3
2,948,82537,-2555,-15852,-3893,6,18,8
2,949,82542,-2561,-15822,-3930,6,13,7
2,950,82547,-2536,-15781,-3943,6,11,7
2,951,82552,-2457,-15723,-3999,6,6,6
2,952,82557,-2450,-15667,-4063,3,7,8
2,953,82562,-2458,-15670,-4097,2,13,7
2,954,82567,-2452,-15729,-3947,3,11,10
2,955,82572,-2476,-15791,-3722,1,4,13
2,956,82577,-2472,-15840,-3568,-3,-8,13
2,957,82582,-2493,-15875,-3653,-3,-17,12
2,958,82587,-2495,-15814,-3820,0,-19,17
2,959,82592,-2527,-15741,-3933,-2,-12,17
2,960,82597,-2517,-15682,-3911,-3,-7,18
2,961,82602,-2440,-15647,-3882,-5,-8,20
2,962,82607,-2361,-15664,-3974,-6,-9,17
2,963,82612,-2380,-15676,-4008,-6,-5,16
2,964,82617,-2454,-15675,-3980,-7,4,15
2,965,82622,-2454,-15660,-3873,-5,1,18
2,966,82627,-2421,-15725,-3845,-6,-8,18
2,967,82632,-2354,-15706,-3864,-8,-17,21
2,968,82637,-2450,-15713,-3880,-8,-25,20
2,969,82642,-2550,-15699,-3883,-7,-35,22
2,970,82647,-2585,-15735,-3944,-7,-40,22
2,971,82652,-2622,-15730,-3950,-9,-31,20
2,972,82657,-2567,-15706,-3971,-10,-13,16
2,973,82662,-2580,-15756,-3957,-8,8,16
2,974,82667,-2622,-15706,-3895,-8,22,13
2,975,82672,-2600,-15727,-3819,-10,28,13
2,976,82677,-2603,-15751,-3666,-11,21,13
2,977,82682,-2587,-15784,-3608,-16,10,14
2,978,82687,-2455,-15846,-3599,-16,0,19
2,979,82692,-2400,-15896,-3695,-18,-9,21
2,980,82697,-2435,-15877,-3771,-18,-14,20
2,981,82702,-2429,-15845,-3811,-18,-14,18
2,982,82707,-2403,-15858,-3786,-21,-12,19
2,983,82712,-2432,-15869,-3796,-22,-8,20
2,984,82717,-2453,-15894,-3792,-20,-4,20
2,985,82722,-2474,-15869,-3830,-21,-7,24
2,986,82727,-2449,-15881,-3829,-24,-8,21
2,987,82732,-2427,-15826,-3806,-23,-12,20
2,988,82737,-2487,-15829,-3829,-22,-13,23
2,989,82742,-2533,-15848,-3886,-22,-15,23
2,990,82747,-2546,-15852,-3835,-23,-18,20
2,991,82752,-2566,-15787,-3808,-23,-19,21
2,992,82757,-2604,-15783,-3897,-24,-16,21
2,993,82762,-2677,-15785,-3954,-22,-4,19
2,994,82767,-2662,-15798,-3923,-21,6,16
2,995,82772,-2580,-15799,-3825,-22,15,15
2,996,82777,-2538,-15822,-3771,-28,16,16
2,997,82782,-2533,-15838,-3749,-25,11,15
2,998,82787,-2547,-15842,-3729,-25,3,14
2,999,82792,-2510,-15833,-3871,-25,-4,15
