event_id,seq,ts_ms,ax,ay,az,gx,gy,gz
1,0,53091,1553,-16640,-2711,74,8,65
1,1,53096,1480,-16574,-2639,69,3,66
1,2,53101,1541,-16556,-2728,67,-7,64
1,3,53106,1578,-16550,-2776,57,-8,68
1,4,53111,1590,-16579,-2651,58,-16,69
1,5,53116,1609,-16627,-2603,54,-29,70
1,6,53121,1602,-16561,-2633,54,-48,71
1,7,53126,1594,-16568,-2683,55,-61,72
1,8,53131,1574,-16545,-2761,51,-74,69
1,9,53136,1557,-16536,-2742,49,-87,75
1,10,53141,1593,-16450,-2689,44,-98,75
1,11,53146,1616,-16402,-2736,49,-115,74
1,12,53151,1574,-16409,-3001,46,-132,75
1,13,53156,1526,-16384,-3015,37,-134,77
1,14,53161,1496,-16324,-3033,37,-139,77
1,15,53166,1550,-16218,-3097,35,-135,76
1,16,53171,1616,-16147,-3105,31,-132,77
1,17,53176,1437,-16237,-2986,33,-127,78
1,18,53181,1354,-16301,-2864,31,-129,76
1,19,53186,1381,-16352,-2953,30,-134,76
1,20,53191,1336,-16380,-2840,25,-128,79
1,21,53196,1286,-16352,-2966,24,-128,80
1,22,53201,1262,-16269,-2983,18,-118,79
1,23,53206,1260,-16272,-2948,17,-112,75
1,24,53211,1315,-16354,-2844,18,-111,75
1,25,53216,1356,-16331,-2831,17,-119,74
1,26,53221,1276,-16313,-2796,14,-124,75
1,27,53226,1112,-16317,-2605,10,-124,74
1,28,53231,979,-16428,-2618,9,-139,75
1,29,53236,971,-16392,-2620,5,-147,72
1,30,53241,1009,-16378,-2708,6,-156,72
1,31,53246,980,-16446,-2879,5,-159,70
1,32,53251,959,-16488,-3095,5,-156,71
1,33,53256,907,-16460,-3042,1,-137,67
1,34,53261,870,-16443,-2987,-3,-120,68
1,35,53266,932,-16397,-2940,-6,-102,65
1,36,53271,943,-16372,-2936,-6,-82,62
1,37,53276,915,-16320,-2922,-7,-74,58
1,38,53281,891,-16280,-2878,-9,-67,57
1,39,53286,904,-16227,-2868,-10,-62,58
1,40,53291,968,-16236,-2743,-9,-60,56
1,41,53296,948,-16357,-2601,-9,-65,55
1,42,53301,879,-16392,-2585,-11,-72,53
1,43,53306,898,-16422,-2566,-11,-77,52
1,44,53311,818,-16565,-2516,-14,-81,50
1,45,53316,842,-16624,-2528,-14,-79,49
1,46,53321,818,-16679,-2429,-24,-63,46
1,47,53326,736,-16718,-2488,-26,-59,43
1,48,53331,727,-16691,-2483,-30,-49,39
1,49,53336,699,-16665,-2476,-31,-39,41
1,50,53341,782,-16623,-2486,-30,-35,40
1,51,53346,757,-16569,-2462,-33,-32,37
1,52,53351,764,-16576,-2524,-38,-34,37
1,53,53356,807,-16537,-2561,-36,-36,34
1,54,53361,866,-16491,-2598,-36,-33,34
1,55,53366,830,-16519,-2701,-37,-32,32
1,56,53371,753,-16452,-2708,-37,-28,30
1,57,53376,707,-16401,-2823,-38,-27,28
1,58,53381,754,-16391,-2899,-40,-21,28
1,59,53386,774,-16428,-2866,-37,-9,27
1,60,53391,735,-16473,-2779,-38,-4,22
1,61,53396,701,-16488,-2714,-39,-4,18
1,62,53401,724,-16501,-2812,-38,-7,15
1,63,53406,771,-16425,-2853,-39,-5,17
1,64,53411,807,-16361,-2775,-41,-4,17
1,65,53416,848,-16360,-2691,-40,-12,15
1,66,53421,856,-16368,-2634,-38,-22,15
1,67,53426,857,-16362,-2561,-35,-35,16
1,68,53431,781,-16367,-2569,-35,-55,14
1,69,53436,744,-16408,-2590,-33,-70,10
1,70,53441,713,-16348,-2678,-30,-82,12
1,71,53446,695,-16318,-2741,-29,-85,10
1,72,53451,726,-16272,-2808,-29,-77,7
1,73,53456,668,-16245,-2862,-30,-68,6
1,74,53461,641,-16212,-2895,-31,-54,8
1,75,53466,628,-16152,-2920,-28,-41,3
1,76,53471,645,-16143,-2876,-29,-24,1
1,77,53476,637,-16094,-2845,-29,-10,-1
1,78,53481,673,-16077,-2909,-27,4,-5
1,79,53486,745,-16007,-2876,-28,18,-8
1,80,53491,813,-15964,-2799,-32,33,-7
1,81,53496,877,-15991,-2777,-35,37,-7
1,82,53501,893,-16001,-2753,-38,32,-6
1,83,53506,862,-16000,-2690,-36,24,-8
1,84,53511,845,-16064,-2718,-35,15,-9
1,85,53516,716,-16052,-2620,-34,9,-9
1,86,53521,596,-16056,-2619,-32,-6,-6
1,87,53526,644,-16023,-2544,-28,-17,-4
1,88,53531,722,-16018,-2741,-22,-32,-4
1,89,53536,740,-16006,-2858,-21,-32,-11
1,90,53541,688,-16075,-2862,-25,-29,-11
1,91,53546,688,-16059,-2854,-25,-27,-10
1,92,53551,713,-16074,-2811,-19,-22,-10
1,93,53556,685,-16153,-2695,-22,-15,-13
1,94,53561,630,-16187,-2679,-21,-9,-16
1,95,53566,576,-16048,-2712,-21,-2,-15
1,96,53571,703,-15985,-2764,-24,10,-16
1,97,53576,752,-15987,-2847,-25,20,-16
1,98,53581,721,-15997,-2884,-24,28,-17
1,99,53586,743,-16036,-2839,-24,30,-19
1,100,53591,779,-16033,-2845,-25,29,-23
1,101,53596,789,-16014,-2890,-23,28,-21
1,102,53601,782,-16077,-2862,-17,30,-18
1,103,53606,790,-16118,-2762,-19,31,-19
1,104,53611,747,-16136,-2692,-21,24,-18
1,105,53616,734,-16163,-2706,-17,10,-22
1,106,53621,802,-16205,-2765,-18,-4,-23
1,107,53626,767,-16179,-2802,-14,-10,-19
1,108,53631,835,-16080,-2812,-13,-13,-21
1,109,53636,832,-16018,-2833,-12,-20,-21
1,110,53641,792,-16059,-2916,-11,-22,-21
1,111,53646,709,-16124,-2822,-10,-22,-21
1,112,53651,688,-16163,-2772,-10,-18,-20
1,113,53656,658,-16158,-2723,-9,-12,-24
1,114,53661,595,-16139,-2790,-11,-4,-24
1,115,53666,558,-16131,-2845,-12,5,-24
1,116,53671,572,-16124,-2815,-13,15,-26
1,117,53676,652,-16101,-2794,-16,23,-28
1,118,53681,688,-16118,-2874,-18,34,-30
1,119,53686,706,-16113,-2897,-17,46,-30
1,120,53691,710,-16116,-2887,-17,46,-29
1,121,53696,809,-16102,-2893,-18,42,-28
1,122,53701,820,-16134,-2741,-18,40,-28
1,123,53706,743,-16129,-2772,-17,33,-31
1,124,53711,702,-16162,-2760,-18,31,-32
1,125,53716,770,-16169,-2729,-18,27,-32
1,126,53721,772,-16182,-2724,-17,19,-30
1,127,53726,744,-16196,-2778,-18,18,-31
1,128,53731,761,-16215,-2828,-16,16,-32
1,129,53736,737,-16243,-2798,-15,15,-31
1,130,53741,725,-16164,-2797,-16,21,-34
1,131,53746,818,-16195,-2881,-14,33,-33
1,132,53751,846,-16163,-2938,-14,45,-31
1,133,53756,860,-16171,-2983,-18,61,-33
1,134,53761,896,-16151,-2955,-20,75,-32
1,135,53766,967,-16128,-2916,-23,83,-33
1,136,53771,1031,-16066,-2931,-25,87,-32
1,137,53776,1091,-16031,-2877,-28,87,-33
1,138,53781,1058,-16017,-2845,-30,81,-30
1,139,53786,1039,-16028,-2812,-33,70,-29
1,140,53791,1044,-16027,-2798,-33,55,-26
1,141,53796,1067,-16023,-2828,-34,43,-24
1,142,53801,1090,-16070,-2821,-30,35,-26
1,143,53806,1116,-16059,-2917,-25,22,-24
1,144,53811,1085,-16063,-2987,-19,10,-19
1,145,53816,1036,-16068,-2950,-17,-1,-14
1,146,53821,1079,-16113,-2938,-14,-7,-15
1,147,53826,1054,-16148,-2957,-15,-10,-11
1,148,53831,1036,-16188,-2950,-15,-12,-11
1,149,53836,1027,-16245,-2946,-15,-8,-14
1,150,53841,1016,-16271,-3054,-19,2,-13
1,151,53846,1065,-16245,-3066,-19,14,-12
1,152,53851,1112,-16156,-3072,-19,25,-11
1,153,53856,1127,-16177,-3073,-24,42,-9
1,154,53861,1162,-16156,-3050,-23,56,-6
1,155,53866,1187,-16141,-3053,-24,64,-9
1,156,53871,1167,-16120,-3069,-25,70,-8
1,157,53876,1226,-16123,-3016,-27,67,-4
1,158,53881,1280,-16085,-2961,-27,60,-1
1,159,53886,1291,-16108,-2963,-27,48,2
1,160,53891,1340,-16082,-2909,-25,35,3
1,161,53896,1344,-16041,-2932,-26,26,4
1,162,53901,1328,-16020,-2943,-23,10,8
1,163,53906,1388,-16082,-2872,-21,-6,11
1,164,53911,1308,-16150,-2816,-20,-24,14
1,165,53916,1224,-16149,-2719,-17,-44,17
1,166,53921,1169,-16136,-2849,-18,-62,19
1,167,53926,1155,-16143,-2968,-16,-67,23
1,168,53931,1167,-16080,-3016,-15,-73,26
1,169,53936,1137,-16063,-3062,-14,-71,29
1,170,53941,1084,-16139,-3016,-12,-70,28
1,171,53946,964,-16154,-3085,-11,-66,27
1,172,53951,920,-16190,-3063,-13,-57,27
1,173,53956,904,-16156,-3104,-19,-43,28
1,174,53961,908,-16043,-3136,-19,-28,25
1,175,53966,948,-15952,-3182,-19,-10,23
1,176,53971,1011,-15977,-3237,-21,3,24
1,177,53976,1004,-15964,-3199,-23,15,23
1,178,53981,1020,-15933,-3177,-26,20,21
1,179,53986,1047,-15902,-3236,-28,18,23
1,180,53991,1084,-15863,-3195,-26,15,23
1,181,53996,1141,-15844,-3225,-23,10,24
1,182,54001,1109,-15912,-3098,-24,1,27
1,183,54006,1079,-15958,-3031,-23,-11,27
1,184,54011,1064,-16021,-2948,-23,-26,25
1,185,54016,990,-16092,-2949,-21,-37,27
1,186,54021,1034,-16073,-2992,-19,-45,30
1,187,54026,967,-16098,-3009,-18,-49,31
1,188,54031,889,-16081,-2984,-16,-55,32
1,189,54036,924,-16067,-3061,-18,-61,31
1,190,54041,984,-16093,-3100,-18,-53,32
1,191,54046,974,-16067,-3110,-20,-41,30
1,192,54051,925,-16103,-3107,-21,-34,28
1,193,54056,845,-16081,-3076,-27,-31,27
1,194,54061,891,-16027,-3147,-29,-19,24
1,195,54066,911,-15995,-3136,-33,-8,26
1,196,54071,960,-15996,-3166,-32,0,24
1,197,54076,965,-16037,-3174,-33,7,20
1,198,54081,975,-16037,-3192,-29,11,19
1,199,54086,976,-16063,-3173,-26,14,17
1,200,54091,995,-16062,-3103,-28,19,18
1,201,54096,997,-16072,-3058,-28,16,17
1,202,54101,941,-16086,-2964,-31,11,17
1,203,54106,965,-16062,-3008,-32,5,16
1,204,54111,957,-16028,-3075,-34,2,16
1,205,54116,1006,-16019,-3088,-37,2,16
1,206,54121,1035,-16000,-3079,-35,-4,13
1,207,54126,985,-15982,-3112,-34,-14,16
1,208,54131,970,-15986,-3107,-34,-16,15
1,209,54136,943,-15929,-3104,-33,-18,15
1,210,54141,918,-15934,-3087,-35,-21,15
1,211,54146,866,-15939,-3106,-33,-23,11
1,212,54151,849,-15962,-3103,-32,-21,12
1,213,54156,861,-16004,-3137,-32,-20,10
1,214,54161,837,-16074,-3149,-33,-13,10
1,215,54166,888,-16122,-3205,-33,-9,11
1,216,54171,916,-16163,-3194,-36,-5,8
1,217,54176,866,-16161,-3102,-38,4,4
1,218,54181,833,-16142,-3104,-41,7,4
1,219,54186,844,-16134,-3093,-43,9,1
1,220,54191,866,-16084,-3057,-44,15,0
1,221,54196,821,-16073,-3101,-45,17,0
1,222,54201,795,-16066,-3071,-46,20,-1
1,223,54206,740,-16055,-3108,-44,18,-2
1,224,54211,712,-16068,-3122,-45,19,-3
1,225,54216,778,-16056,-3227,-42,16,-2
1,226,54221,861,-16014,-3220,-39,19,-4
1,227,54226,885,-16023,-3265,-40,18,-6
1,228,54231,839,-16015,-3246,-37,13,-10
1,229,54236,793,-16066,-3209,-36,10,-8
1,230,54241,852,-16064,-3221,-39,12,-9
1,231,54246,900,-16056,-3270,-40,17,-12
1,232,54251,862,-16057,-3304,-39,25,-15
1,233,54256,875,-16031,-3406,-38,26,-17
1,234,54261,939,-16036,-3473,-38,34,-17
1,235,54266,1022,-16021,-3440,-41,45,-15
1,236,54271,1098,-15922,-3384,-39,56,-13
1,237,54276,1053,-15894,-3336,-38,61,-14
1,238,54281,1025,-15888,-3300,-42,58,-16
1,239,54286,1017,-15880,-3226,-45,52,-16
1,240,54291,1105,-15830,-3194,-44,41,-15
1,241,54296,1152,-15903,-3186,-41,33,-13
1,242,54301,1097,-16009,-3151,-38,23,-10
1,243,54306,1038,-16128,-3183,-36,12,-12
1,244,54311,1055,-16145,-3182,-33,3,-12
1,245,54316,1093,-16106,-3145,-30,-4,-9
1,246,54321,1037,-16119,-3162,-23,-9,-7
1,247,54326,995,-16146,-3262,-26,-13,-8
1,248,54331,975,-16135,-3153,-27,-14,-7
1,249,54336,1047,-16134,-3170,-25,-11,-6
1,250,54341,1093,-16165,-3136,-27,-9,-3
1,251,54346,1078,-16208,-3206,-29,-7,-3
1,252,54351,972,-16187,-3241,-29,-3,-6
1,253,54356,947,-16147,-3232,-28,-5,-8
1,254,54361,933,-16129,-3213,-26,-1,-6
1,255,54366,998,-16089,-3213,-25,3,-3
1,256,54371,1034,-16027,-3255,-23,7,-4
1,257,54376,1071,-16004,-3269,-23,12,-6
1,258,54381,1072,-15988,-3171,-23,16,-6
1,259,54386,1078,-15953,-3066,-25,13,-5
1,260,54391,1107,-15966,-3020,-25,8,-3
1,261,54396,1061,-15929,-2932,-25,1,-1
1,262,54401,969,-15923,-2826,-26,-6,-2
1,263,54406,928,-15926,-2817,-24,-23,0
1,264,54411,942,-15965,-2865,-24,-43,0
1,265,54416,968,-15956,-3013,-23,-52,3
1,266,54421,948,-15956,-3132,-23,-55,4
1,267,54426,897,-15958,-3171,-24,-52,3
1,268,54431,777,-15985,-3186,-27,-32,3
1,269,54436,803,-16033,-3237,-29,-12,2
1,270,54441,697,-16102,-3176,-31,8,1
1,271,54446,624,-16089,-3197,-30,20,0
1,272,54451,596,-16143,-3268,-32,34,-3
1,273,54456,666,-16202,-3298,-31,54,-7
1,274,54461,813,-16201,-3347,-32,77,-6
1,275,54466,829,-16202,-3386,-34,99,-7
1,276,54471,894,-16246,-3292,-38,116,-10
1,277,54476,969,-16183,-3240,-41,122,-10
1,278,54481,940,-16082,-3113,-44,124,-10
1,279,54486,916,-16081,-3009,-49,120,-13
1,280,54491,903,-16102,-2941,-51,110,-11
1,281,54496,837,-16119,-2893,-55,91,-13
1,282,54501,875,-16099,-2845,-49,62,-12
1,283,54506,909,-16135,-3024,-42,31,-9
1,284,54511,943,-16086,-3152,-44,15,-10
1,285,54516,904,-16156,-3251,-45,10,-8
1,286,54521,901,-16189,-3209,-45,8,-8
1,287,54526,944,-16255,-3243,-43,9,-9
1,288,54531,984,-16321,-3373,-49,18,-8
1,289,54536,968,-16294,-3405,-51,28,-11
1,290,54541,973,-16294,-3371,-50,35,-11
1,291,54546,934,-16270,-3333,-51,37,-12
1,292,54551,932,-16265,-3306,-51,33,-13
1,293,54556,954,-16284,-3253,-54,28,-12
1,294,54561,862,-16347,-3152,-54,23,-9
1,295,54566,725,-16402,-3183,-54,9,-11
1,296,54571,714,-16419,-3283,-54,-3,-11
1,297,54576,779,-16416,-3392,-54,2,-12
1,298,54581,909,-16448,-3549,-52,12,-13
1,299,54586,895,-16372,-3558,-52,34,-12
1,300,54591,964,-16394,-3566,-48,42,-13
1,301,54596,1024,-16446,-3416,-47,47,-15
1,302,54601,969,-16466,-3255,-49,46,-14
1,303,54606,964,-16475,-3229,-55,41,-15
1,304,54611,949,-16522,-3181,-59,37,-15
1,305,54616,915,-16574,-3153,-60,24,-16
1,306,54621,946,-16555,-3252,-60,10,-15
1,307,54626,1022,-16581,-3286,-60,-2,-11
1,308,54631,1064,-16534,-3154,-54,-16,-7
1,309,54636,1138,-16488,-3252,-46,-32,-6
1,310,54641,1055,-16557,-3268,-43,-40,-7
1,311,54646,954,-16581,-3183,-45,-50,-3
1,312,54651,887,-16565,-3135,-47,-62,-7
1,313,54656,878,-16546,-3077,-44,-73,-3
1,314,54661,893,-16509,-3152,-41,-75,-3
1,315,54666,890,-16375,-3314,-43,-77,-6
1,316,54671,922,-16314,-3479,-43,-72,-4
1,317,54676,950,-16301,-3492,-40,-57,-1
1,318,54681,961,-16264,-3427,-38,-46,-3
1,319,54686,933,-16163,-3308,-38,-39,-3
1,320,54691,925,-16153,-3316,-38,-36,-4
1,321,54696,957,-16054,-3358,-39,-26,-4
1,322,54701,963,-15993,-3354,-40,-26,-1
1,323,54706,953,-15960,-3347,-43,-25,-1
1,324,54711,991,-15947,-3300,-38,-30,0
1,325,54716,970,-16016,-3253,-37,-39,0
1,326,54721,949,-16082,-3173,-34,-41,3
1,327,54726,875,-16097,-3197,-32,-48,3
1,328,54731,905,-16131,-3197,-28,-58,6
1,329,54736,977,-16188,-3221,-25,-61,7
1,330,54741,981,-16236,-3172,-27,-65,11
1,331,54746,963,-16244,-3151,-28,-73,11
1,332,54751,956,-16182,-3204,-27,-74,12
1,333,54756,939,-16165,-3241,-24,-72,13
1,334,54761,928,-16187,-3247,-26,-72,11
1,335,54766,897,-16122,-3231,-31,-76,11
1,336,54771,846,-16102,-3222,-29,-75,10
1,337,54776,806,-16077,-3302,-29,-73,11
1,338,54781,808,-16071,-3393,-29,-64,12
1,339,54786,787,-16001,-3432,-29,-52,13
1,340,54791,798,-15941,-3473,-26,-42,13
1,341,54796,820,-15938,-3469,-22,-32,13
1,342,54801,850,-15948,-3553,-23,-24,13
1,343,54806,817,-15894,-3531,-24,-18,13
1,344,54811,920,-15785,-3581,-23,-14,12
1,345,54816,960,-15767,-3586,-23,-8,13
1,346,54821,912,-15769,-3547,-22,-14,10
1,347,54826,877,-15817,-3507,-22,-23,10
1,348,54831,876,-15819,-3444,-24,-34,13
1,349,54836,906,-15801,-3285,-17,-45,12
1,350,54841,768,-15897,-3249,-9,-67,14
1,351,54846,618,-16000,-3259,-8,-89,13
1,352,54851,662,-16040,-3354,-10,-102,14
1,353,54856,763,-16045,-3487,-9,-102,15
1,354,54861,809,-15979,-3640,-7,-87,15
1,355,54866,809,-16026,-3693,-8,-69,16
1,356,54871,795,-16114,-3672,-10,-57,13
1,357,54876,783,-16136,-3607,-9,-51,12
1,358,54881,758,-16081,-3546,-5,-39,12
1,359,54886,751,-16075,-3667,-3,-23,10
1,360,54891,693,-16095,-3697,-5,-9,10
1,361,54896,660,-16085,-3656,-9,4,8
1,362,54901,706,-16076,-3683,-13,16,7
1,363,54906,783,-16084,-3776,-11,28,6
1,364,54911,856,-16087,-3883,-6,45,5
1,365,54916,853,-16099,-3892,-6,58,2
1,366,54921,908,-16109,-3871,-2,66,3
1,367,54926,949,-16098,-3725,-2,71,2
1,368,54931,998,-16139,-3636,-5,72,3
1,369,54936,992,-16155,-3529,-4,71,1
1,370,54941,963,-16171,-3487,-6,55,2
1,371,54946,932,-16166,-3399,-5,45,5
1,372,54951,970,-16128,-3476,-2,33,6
1,373,54956,1056,-16105,-3527,-1,26,7
1,374,54961,1072,-16097,-3480,4,24,12
1,375,54966,988,-16052,-3513,10,17,11
1,376,54971,913,-16055,-3479,15,6,13
1,377,54976,931,-16001,-3447,15,-3,13
1,378,54981,914,-16021,-3363,13,-9,15
1,379,54986,818,-16036,-3380,13,-15,14
1,380,54991,864,-16008,-3506,14,-18,13
1,381,54996,888,-16018,-3559,16,-16,14
1,382,55001,908,-16044,-3573,14,-8,16
1,383,55006,816,-16031,-3468,13,-3,15
1,384,55011,711,-15985,-3388,16,0,13
1,385,55016,743,-16022,-3437,16,6,14
1,386,55021,803,-16041,-3428,16,13,18
1,387,55026,814,-16096,-3308,14,15,19
1,388,55031,823,-16080,-3291,7,10,17
1,389,55036,849,-16017,-3330,7,6,18
1,390,55041,921,-15980,-3405,11,4,23
1,391,55046,836,-15936,-3399,12,4,23
1,392,55051,674,-15993,-3265,11,-6,25
1,393,55056,647,-16000,-3215,8,-21,26
1,394,55061,764,-15970,-3299,7,-30,31
1,395,55066,751,-15952,-3273,11,-30,35
1,396,55071,522,-16060,-3248,15,-36,39
1,397,55076,508,-16115,-3378,11,-38,43
1,398,55081,806,-16059,-3492,10,-31,52
1,399,55086,899,-16015,-3302,14,-11,51
1,400,55091,658,-16013,-3479,14,-1,54
1,401,55096,463,-16037,-3833,15,11,57
1,402,55101,664,-15899,-3880,12,36,67
1,403,55106,850,-15863,-3868,2,71,70
1,404,55111,778,-15927,-3638,-1,117,74
1,405,55116,487,-16028,-3907,-2,143,79
1,406,55121,338,-16006,-4181,-4,176,84
1,407,55126,396,-16037,-4000,-8,213,92
1,408,55131,433,-16010,-3622,-13,240,99
1,409,55136,362,-15988,-3226,-19,255,105
1,410,55141,289,-15898,-3274,-16,249,113
1,411,55146,218,-15891,-3518,-13,250,123
1,412,55151,127,-15942,-3629,-12,252,131
1,413,55156,71,-16047,-3578,-17,244,140
1,414,55161,115,-16110,-3374,-20,233,150
1,415,55166,304,-16118,-3409,-17,243,166
1,416,55171,112,-16157,-3797,-22,274,177
1,417,55176,-17,-16300,-4358,-23,310,186
1,418,55181,123,-16258,-4241,-28,346,196
1,419,55186,283,-16167,-3680,-37,357,204
1,420,55191,314,-16085,-3274,-39,339,211
1,421,55196,224,-16063,-3248,-33,311,223
1,422,55201,241,-15975,-3393,-29,281,239
1,423,55206,230,-15865,-3367,-32,249,254
1,424,55211,166,-15845,-3084,-34,200,268
1,425,55216,186,-15856,-2817,-36,137,282
1,426,55221,339,-15802,-2987,-35,84,296
1,427,55226,330,-15687,-3198,-36,53,308
1,428,55231,227,-15678,-3362,-40,28,322
1,429,55236,-15,-15736,-3158,-33,-15,337
1,430,55241,-49,-15810,-3116,-23,-80,352
1,431,55246,37,-15850,-3318,-19,-130,362
1,432,55251,91,-15835,-3619,-16,-146,373
1,433,55256,-49,-15839,-3760,-17,-140,385
1,434,55261,-181,-15889,-3787,-16,-137,397
1,435,55266,-226,-15965,-3799,-11,-145,407
1,436,55271,-166,-16003,-3716,-11,-145,420
1,437,55276,-217,-16021,-3915,-19,-136,424
1,438,55281,-319,-15979,-3872,-27,-101,431
1,439,55286,-481,-16003,-3901,-30,-68,439
1,440,55291,-445,-15988,-3876,-38,-40,450
1,441,55296,-259,-15919,-3905,-39,-15,462
1,442,55301,-168,-15917,-3702,-46,14,465
1,443,55306,-168,-15943,-3672,-49,23,472
1,444,55311,-329,-15928,-3826,-55,29,481
1,445,55316,-285,-15878,-3448,-51,34,496
1,446,55321,-250,-15878,-3598,-54,14,508
1,447,55326,-92,-15874,-3619,-59,7,517
1,448,55331,-166,-15919,-3484,-62,-1,526
1,449,55336,-263,-15869,-3515,-60,-16,532
1,450,55341,-350,-15878,-3789,-61,-33,540
1,451,55346,-348,-15919,-3777,-65,-29,547
1,452,55351,-457,-15963,-3747,-69,-22,554
1,453,55356,-506,-16023,-3695,-71,-14,562
1,454,55361,-653,-16030,-3597,-75,-4,565
1,455,55366,-754,-16027,-3597,-76,2,572
1,456,55371,-693,-16002,-3719,-78,7,575
1,457,55376,-588,-16003,-3803,-81,27,573
1,458,55381,-669,-16059,-3803,-87,47,578
1,459,55386,-808,-16081,-3753,-88,58,579
1,460,55391,-878,-16108,-3645,-91,57,578
1,461,55396,-828,-16222,-3660,-94,63,582
1,462,55401,-754,-16268,-3670,-94,68,584
1,463,55406,-730,-16295,-3580,-98,64,582
1,464,55411,-862,-16271,-3583,-101,54,582
1,465,55416,-923,-16236,-3657,-100,38,582
1,466,55421,-982,-16214,-3723,-100,24,582
1,467,55426,-1090,-16284,-3685,-100,20,581
1,468,55431,-1272,-16436,-3586,-103,10,582
1,469,55436,-1262,-16456,-3575,-98,-5,583
1,470,55441,-1004,-16367,-3703,-95,-4,586
1,471,55446,-758,-16283,-3807,-93,8,581
1,472,55451,-885,-16236,-3981,-97,10,573
1,473,55456,-1199,-16241,-3915,-104,9,564
1,474,55461,-1302,-16213,-3723,-105,2,567
1,475,55466,-1271,-16251,-3702,-104,-6,564
1,476,55471,-1194,-16293,-3743,-105,-10,557
1,477,55476,-1304,-16275,-3731,-102,-8,551
1,478,55481,-1469,-16223,-3811,-101,-9,543
1,479,55486,-1463,-16122,-4088,-99,-9,537
1,480,55491,-1423,-16098,-4104,-101,6,533
1,481,55496,-1351,-16109,-3993,-102,20,526
1,482,55501,-1312,-16042,-3949,-101,26,516
1,483,55506,-1485,-16026,-3945,-98,26,508
1,484,55511,-1683,-15954,-3928,-99,25,497
1,485,55516,-1669,-15877,-3924,-95,21,491
1,486,55521,-1577,-15844,-4031,-91,28,480
1,487,55526,-1454,-15833,-4041,-91,44,467
1,488,55531,-1501,-15830,-4090,-88,57,459
1,489,55536,-1663,-15785,-3948,-89,65,433
1,490,55541,-1648,-15827,-3812,-86,63,424
1,491,55546,-1590,-15928,-3605,-85,58,415
1,492,55551,-1624,-15929,-3624,-87,43,403
1,493,55556,-1616,-15886,-3480,-84,35,391
1,494,55561,-1768,-15846,-3380,-81,16,383
1,495,55566,-1705,-15793,-3495,-77,-6,372
1,496,55571,-1767,-15819,-3564,-76,-26,359
1,497,55576,-1836,-15750,-3552,-75,-46,347
1,498,55581,-1834,-15707,-3681,-73,-53,330
1,499,55586,-1875,-15649,-3906,-64,-50,315
1,500,55591,-1947,-15596,-3985,-63,-44,303
1,501,55596,-1929,-15620,-4031,-63,-36,287
1,502,55601,-1912,-15636,-4085,-60,-29,267
1,503,55606,-1990,-15675,-3982,-54,-18,252
1,504,55611,-2054,-15629,-3978,-52,-9,235
1,505,55616,-2004,-15579,-4145,-49,8,218
1,506,55621,-1951,-15514,-4199,-46,28,199
1,507,55626,-1911,-15504,-4103,-42,41,182
1,508,55631,-1874,-15502,-4021,-40,43,167
1,509,55636,-1819,-15475,-4072,-31,42,148
1,510,55641,-1780,-15460,-4027,-26,42,131
1,511,55646,-1719,-15379,-4014,-21,46,113
1,512,55651,-1668,-15306,-4035,-18,46,93
1,513,55656,-1619,-15281,-3977,-12,42,80
1,514,55661,-1668,-15351,-3870,-4,33,64
1,515,55666,-1788,-15376,-3782,-2,15,42
1,516,55671,-1845,-15513,-3693,2,1,23
1,517,55676,-1847,-15579,-3600,9,-6,10
1,518,55681,-1825,-15713,-3513,13,-1,-8
1,519,55686,-1705,-15810,-3599,14,2,-24
1,520,55691,-1597,-15845,-3687,17,7,-45
1,521,55696,-1642,-15870,-3687,22,9,-66
1,522,55701,-1792,-15864,-3646,26,-3,-88
1,523,55706,-1871,-15927,-3691,32,-20,-107
1,524,55711,-1914,-15950,-3683,37,-32,-126
1,525,55716,-1914,-15995,-3652,41,-38,-148
1,526,55721,-1895,-16067,-3732,49,-43,-168
1,527,55726,-1894,-16028,-3851,54,-45,-188
1,528,55731,-1933,-16057,-3923,62,-48,-213
1,529,55736,-1923,-16032,-4003,71,-51,-235
1,530,55741,-1839,-16021,-4039,79,-49,-254
1,531,55746,-1783,-16072,-3953,85,-37,-277
1,532,55751,-1765,-16119,-3857,90,-27,-301
1,533,55756,-1721,-16145,-3892,92,-25,-320
1,534,55761,-1708,-16129,-3892,91,-20,-340
1,535,55766,-1591,-16208,-3795,92,-16,-361
1,536,55771,-1460,-16182,-3706,90,-12,-385
1,537,55776,-1355,-16189,-3721,91,-11,-405
1,538,55781,-1279,-16172,-3696,96,-13,-425
1,539,55786,-1279,-16163,-3732,98,-19,-442
1,540,55791,-1363,-16185,-3690,101,-29,-461
1,541,55796,-1462,-16253,-3574,109,-47,-478
1,542,55801,-1394,-16253,-3775,113,-62,-494
1,543,55806,-1286,-16271,-3857,110,-56,-513
1,544,55811,-1197,-16298,-3943,109,-40,-531
1,545,55816,-1115,-16275,-3966,113,-23,-552
1,546,55821,-1088,-16267,-3895,109,-5,-572
1,547,55826,-1133,-16228,-3869,114,1,-591
1,548,55831,-1074,-16181,-3870,109,8,-608
1,549,55836,-926,-16190,-3960,108,18,-625
1,550,55841,-897,-16223,-3857,104,29,-644
1,551,55846,-951,-16172,-3683,103,35,-659
1,552,55851,-928,-16174,-3482,108,29,-675
1,553,55856,-872,-16205,-3576,111,7,-694
1,554,55861,-828,-16198,-3583,110,-10,-712
1,555,55866,-767,-16212,-3631,110,-30,-724
1,556,55871,-558,-16192,-3763,113,-48,-737
1,557,55876,-372,-16129,-3690,109,-52,-754
1,558,55881,-406,-16114,-3787,106,-62,-769
1,559,55886,-503,-16096,-3548,101,-77,-781
1,560,55891,-620,-16007,-3333,101,-107,-797
1,561,55896,-671,-15944,-3370,103,-140,-806
1,562,55901,-659,-15935,-3546,104,-167,-818
1,563,55906,-498,-16133,-4005,99,-147,-852
1,564,55911,-200,-16346,-4527,92,-118,-863
1,565,55916,-198,-16427,-4180,78,-55,-877
1,566,55921,4,-16411,-3927,70,-8,-889
1,567,55926,24,-16363,-3990,70,25,-902
1,568,55931,-5,-16324,-3805,60,50,-913
1,569,55936,-10,-16254,-3409,54,53,-922
1,570,55941,213,-16248,-3237,47,35,-928
1,571,55946,334,-16351,-3048,43,11,-935
1,572,55951,367,-16388,-3075,44,-29,-944
1,573,55956,363,-16290,-3528,42,-75,-948
1,574,55961,453,-16267,-3660,39,-100,-948
1,575,55966,612,-16222,-3537,33,-116,-950
1,576,55971,675,-16319,-3465,31,-135,-955
1,577,55976,734,-16362,-3669,31,-154,-958
1,578,55981,805,-16377,-3812,28,-161,-960
1,579,55986,761,-16355,-3830,22,-165,-963
1,580,55991,687,-16275,-3693,20,-167,-965
1,581,55996,560,-16309,-3600,19,-178,-967
1,582,56001,542,-16318,-3811,17,-185,-967
1,583,56006,623,-16396,-4158,16,-174,-969
1,584,56011,702,-16409,-4246,16,-147,-967
1,585,56016,932,-16444,-4279,8,-115,-969
1,586,56021,1001,-16529,-4103,6,-90,-968
1,587,56026,949,-16617,-3864,6,-77,-963
1,588,56031,863,-16667,-3652,3,-71,-960
1,589,56036,1070,-16639,-3580,1,-70,-958
1,590,56041,1311,-16599,-3497,3,-73,-951
1,591,56046,1444,-16605,-3342,0,-87,-945
1,592,56051,1364,-16622,-3316,2,-116,-939
1,593,56056,1326,-16659,-3310,4,-146,-927
1,594,56061,1471,-16583,-3424,4,-167,-917
1,595,56066,1723,-16652,-3575,5,-182,-901
1,596,56071,1693,-16669,-3277,0,-179,-890
1,597,56076,1560,-16574,-3351,-1,-191,-887
1,598,56081,1516,-16361,-3512,0,-195,-879
1,599,56086,5280,-21235,-3453,3,-189,-866
1,600,56091,-11819,-7481,16860,-153,-49,-768
1,601,56113,2551,-16786,-6441,-442,-708,230
1,602,56113,1040,-13478,7383,-308,50,109
1,603,56114,1040,-13478,7383,-308,50,109
1,604,56115,1040,-13478,7383,-308,50,109
1,605,56116,1040,-13478,7383,-308,50,109
1,606,56121,-3675,-15948,-4865,-115,-3,182
1,607,56126,-3129,-16739,-14467,-33,357,215
1,608,56131,912,-17115,-14533,-216,925,271
1,609,56136,2838,-16527,-3380,-403,1526,252
1,610,56141,2038,-16030,4565,-374,1619,215
1,611,56146,-156,-15705,3247,-180,1278,200
1,612,56151,-998,-16001,-2615,-123,692,226
1,613,56156,-482,-15939,-3329,-182,390,257
1,614,56161,1234,-15967,-283,-261,156,294
1,615,56166,2537,-16264,1393,-226,-123,316
1,616,56171,2525,-16180,-1404,-122,-389,309
1,617,56176,928,-16311,-6380,-69,-501,298
1,618,56181,-416,-16527,-7937,-115,-400,303
1,619,56186,-173,-15843,-5812,-174,-228,317
1,620,56191,1498,-16167,-3568,-173,-76,339
1,621,56196,2156,-16155,-4370,-123,22,323
1,622,56201,773,-16165,-5490,-103,145,294
1,623,56206,-1064,-16085,-5166,-126,227,285
1,624,56211,-336,-15919,-3848,-139,215,299
1,625,56216,1137,-15760,-1986,-133,179,310
1,626,56221,1465,-15972,-2002,-98,106,296
1,627,56226,420,-15989,-3435,-72,39,273
1,628,56231,-420,-15790,-4286,-73,-13,265
1,629,56236,-165,-15654,-3803,-86,-47,276
1,630,56241,983,-15766,-3395,-78,-64,285
1,631,56246,1561,-15877,-3774,-59,-49,273
1,632,56251,1023,-15832,-3983,-47,-5,255
1,633,56256,-43,-15660,-4218,-46,1,243
1,634,56261,-150,-15488,-4222,-42,-16,243
1,635,56266,622,-15381,-3970,-39,-7,250
1,636,56271,1304,-15489,-3680,-33,25,246
1,637,56276,487,-15481,-3966,-17,37,218
1,638,56281,256,-15403,-4032,-13,11,220
1,639,56286,841,-15428,-3993,-12,9,226
1,640,56291,1372,-15446,-3791,-10,32,229
1,641,56296,1250,-15492,-3551,-5,54,219
1,642,56301,802,-15452,-3487,2,39,211
1,643,56306,638,-15471,-3790,9,4,214
1,644,56311,868,-15510,-3870,14,-22,224
1,645,56316,1191,-15391,-3616,14,-17,223
1,646,56321,1256,-15425,-3523,22,-18,220
1,647,56326,1107,-15412,-3789,29,-26,216
1,648,56331,878,-15498,-3983,27,-30,214
1,649,56336,756,-15474,-3754,27,-28,214
1,650,56341,867,-15551,-3656,31,-30,216
1,651,56346,1016,-15581,-3815,35,-25,211
1,652,56351,1066,-15477,-3972,40,-6,205
1,653,56356,800,-15480,-3946,43,15,201
1,654,56361,663,-15515,-3927,43,21,198
1,655,56366,711,-15543,-3835,48,25,199
1,656,56371,930,-15581,-3822,54,25,197
1,657,56376,1019,-15627,-3893,60,29,185
1,658,56381,870,-15624,-3875,61,29,178
1,659,56386,643,-15598,-3889,63,20,174
1,660,56391,712,-15602,-3901,66,12,170
1,661,56396,875,-15682,-3867,67,4,164
1,662,56401,830,-15729,-3747,67,0,154
1,663,56406,671,-15782,-3793,74,-14,149
1,664,56411,562,-15754,-3839,85,-26,145
1,665,56416,678,-15747,-3950,86,-37,146
1,666,56421,778,-15846,-3842,91,-38,146
1,667,56426,747,-15979,-3672,95,-42,138
1,668,56431,603,-15982,-3761,101,-54,131
1,669,56436,576,-15988,-3884,100,-59,128
1,670,56441,636,-15974,-3887,98,-52,124
1,671,56446,660,-15979,-3854,95,-44,122
1,672,56451,654,-16061,-3883,92,-37,117
1,673,56456,669,-16087,-3926,87,-25,108
1,674,56461,614,-16098,-4050,89,-9,100
1,675,56466,646,-16153,-4167,87,8,96
1,676,56471,618,-16175,-4162,84,35,89
1,677,56476,575,-16228,-3995,82,60,86
1,678,56481,522,-16233,-3982,82,75,81
1,679,56486,528,-16194,-4054,78,91,73
1,680,56491,549,-16187,-4075,77,106,69
1,681,56496,576,-16142,-3992,76,118,68
1,682,56501,532,-16101,-3872,76,122,63
1,683,56506,571,-16100,-3926,79,120,56
1,684,56511,596,-16115,-3895,80,118,55
1,685,56516,632,-16129,-3823,77,114,44
1,686,56521,598,-16099,-3715,79,108,41
1,687,56526,568,-16077,-3657,84,90,39
1,688,56531,566,-16143,-3679,90,70,36
1,689,56536,599,-16096,-3636,94,53,29
1,690,56541,636,-16160,-3642,94,29,30
1,691,56546,635,-16156,-3704,100,5,25
1,692,56551,643,-16180,-3772,102,-12,21
1,693,56556,586,-16251,-3834,100,-25,20
1,694,56561,610,-16248,-3873,101,-28,18
1,695,56566,661,-16249,-3829,98,-23,12
1,696,56571,694,-16279,-3818,91,-9,11
1,697,56576,698,-16265,-3778,91,-3,10
1,698,56581,671,-16238,-3795,91,-3,6
1,699,56586,598,-16237,-3776,91,6,3
1,700,56591,578,-16207,-3765,86,6,1
1,701,56596,596,-16206,-3849,83,6,-2
1,702,56601,650,-16165,-3804,82,14,-1
1,703,56606,703,-16066,-3806,78,20,-1
1,704,56611,720,-16123,-3812,77,22,-3
1,705,56616,624,-16088,-3800,78,23,-5
1,706,56621,638,-16017,-3909,74,21,-6
1,707,56626,694,-16008,-3928,70,27,-7
1,708,56631,747,-15953,-3922,65,38,-9
1,709,56636,697,-15988,-3812,62,48,-11
1,710,56641,598,-16017,-3710,58,54,-12
1,711,56646,670,-16053,-3801,50,68,-15
1,712,56651,690,-16060,-3719,46,80,-18
1,713,56656,680,-16033,-3670,48,81,-17
1,714,56661,603,-16071,-3594,46,80,-19
1,715,56666,582,-16089,-3575,44,77,-22
1,716,56671,624,-16102,-3543,44,72,-21
1,717,56676,605,-16080,-3531,44,61,-22
1,718,56681,661,-16071,-3523,45,52,-25
1,719,56686,645,-16113,-3634,42,41,-25
1,720,56691,664,-16133,-3694,43,35,-26
1,721,56696,700,-16066,-3631,42,32,-24
1,722,56701,701,-16106,-3585,39,29,-24
1,723,56706,704,-16121,-3523,40,21,-27
1,724,56711,652,-16113,-3596,39,11,-28
1,725,56716,626,-16066,-3643,35,2,-29
1,726,56721,714,-16060,-3582,34,-2,-26
1,727,56726,719,-16051,-3529,33,-2,-27
1,728,56731,761,-16054,-3549,32,-13,-29
1,729,56736,721,-16064,-3569,31,-20,-27
1,730,56741,740,-16119,-3561,30,-23,-30
1,731,56746,686,-16169,-3543,27,-29,-27
1,732,56751,672,-16205,-3516,27,-35,-28
1,733,56756,656,-16144,-3539,25,-36,-28
1,734,56761,589,-16150,-3532,21,-38,-30
1,735,56766,547,-16177,-3479,18,-45,-28
1,736,56771,460,-16185,-3485,16,-40,-31
1,737,56776,452,-16167,-3603,15,-37,-34
1,738,56781,496,-16153,-3636,14,-30,-31
1,739,56786,509,-16109,-3565,11,-19,-32
1,740,56791,476,-16124,-3584,10,-16,-33
1,741,56796,490,-16110,-3568,7,-11,-36
1,742,56801,546,-16088,-3597,4,-3,-36
1,743,56806,612,-16068,-3665,1,6,-38
1,744,56811,626,-16072,-3612,-3,11,-40
1,745,56816,623,-16060,-3585,-8,10,-39
1,746,56821,622,-15994,-3564,-7,4,-39
1,747,56826,606,-16018,-3527,-9,-3,-38
1,748,56831,602,-16083,-3519,-4,-10,-38
1,749,56836,550,-16108,-3478,-8,-21,-39
1,750,56841,526,-16107,-3495,-8,-31,-38
1,751,56846,478,-16038,-3551,-6,-35,-38
1,752,56851,510,-16015,-3641,-9,-35,-38
1,753,56856,535,-16086,-3699,-9,-28,-37
1,754,56861,487,-16031,-3647,-12,-21,-37
1,755,56866,482,-16018,-3592,-15,-18,-38
1,756,56871,447,-15988,-3643,-13,-17,-38
1,757,56876,469,-15961,-3589,-13,-13,-40
1,758,56881,507,-16002,-3540,-13,-12,-39
1,759,56886,555,-16001,-3521,-14,-15,-37
1,760,56891,534,-16009,-3510,-17,-19,-36
1,761,56896,547,-16006,-3487,-14,-26,-37
1,762,56901,485,-16014,-3486,-13,-33,-36
1,763,56906,406,-15963,-3563,-15,-33,-38
1,764,56911,454,-15968,-3562,-14,-33,-37
1,765,56916,476,-15960,-3563,-15,-26,-39
1,766,56921,420,-16020,-3439,-15,-21,-38
1,767,56926,360,-16031,-3417,-16,-25,-40
1,768,56931,391,-16146,-3504,-17,-27,-38
1,769,56936,504,-16165,-3532,-17,-18,-41
1,770,56941,562,-16129,-3493,-17,-12,-40
1,771,56946,520,-16032,-3509,-19,-8,-40
1,772,56951,516,-16037,-3564,-17,-6,-39
1,773,56956,514,-16064,-3569,-19,-10,-37
1,774,56961,518,-16050,-3516,-19,-14,-38
1,775,56966,514,-16020,-3559,-21,-17,-38
1,776,56971,492,-15986,-3568,-18,-24,-36
1,777,56976,485,-16001,-3580,-15,-36,-35
1,778,56981,524,-16017,-3640,-13,-45,-33
1,779,56986,582,-15973,-3653,-9,-45,-34
1,780,56991,591,-15986,-3663,-8,-42,-38
1,781,56996,499,-15954,-3720,-11,-41,-32
1,782,57001,498,-15958,-3642,-9,-39,-30
1,783,57006,501,-15947,-3566,-10,-42,-30
1,784,57011,416,-15950,-3586,-6,-38,-27
1,785,57016,407,-15957,-3576,-7,-36,-27
1,786,57021,465,-16007,-3610,-9,-30,-28
1,787,57026,487,-16007,-3586,-7,-24,-25
1,788,57031,509,-16080,-3556,-5,-16,-23
1,789,57036,458,-16098,-3549,-5,-8,-24
1,790,57041,423,-16129,-3480,-5,-1,-27
1,791,57046,423,-16149,-3522,-6,8,-25
1,792,57051,464,-16096,-3576,-8,21,-25
1,793,57056,505,-16032,-3585,-9,31,-26
1,794,57061,575,-15993,-3642,-10,38,-25
1,795,57066,599,-15966,-3665,-10,42,-25
1,796,57071,605,-15926,-3599,-9,42,-22
1,797,57076,575,-15940,-3554,-7,38,-20
1,798,57081,564,-15915,-3555,-10,35,-21
1,799,57086,524,-15950,-3500,-7,27,-18
1,800,57091,517,-16000,-3528,-7,19,-20
1,801,57096,528,-15998,-3477,-6,11,-17
1,802,57101,521,-15980,-3513,0,3,-17
1,803,57106,569,-15954,-3568,-1,-2,-15
1,804,57111,569,-15953,-3588,2,-1,-14
1,805,57116,505,-15966,-3509,3,-6,-14
1,806,57121,531,-15935,-3548,1,-7,-13
1,807,57126,636,-15904,-3517,2,-6,-13
1,808,57131,660,-15903,-3558,5,-3,-10
1,809,57136,637,-15906,-3602,3,1,-11
1,810,57141,637,-15893,-3660,2,0,-10
1,811,57146,678,-15865,-3659,1,3,-7
1,812,57151,697,-15870,-3605,3,7,-5
1,813,57156,720,-15931,-3606,4,8,-6
1,814,57161,743,-15918,-3608,3,9,-7
1,815,57166,714,-15951,-3658,1,8,-7
1,816,57171,691,-16017,-3629,3,5,-1
1,817,57176,679,-16091,-3484,3,1,0
1,818,57181,702,-16097,-3483,1,-5,0
1,819,57186,732,-16107,-3523,-2,-8,3
1,820,57191,758,-16097,-3632,3,-11,5
1,821,57196,734,-16092,-3689,4,-10,7
1,822,57201,704,-16106,-3668,3,-8,9
1,823,57206,743,-16062,-3625,2,-9,11
1,824,57211,779,-16050,-3556,5,-11,10
1,825,57216,733,-16039,-3527,3,-9,11
1,826,57221,639,-16103,-3571,-3,-9,12
1,827,57226,627,-16102,-3617,-3,-9,13
1,828,57231,699,-16074,-3565,-1,-9,14
1,829,57236,665,-16097,-3489,-2,-5,13
1,830,57241,666,-16112,-3555,-1,-4,14
1,831,57246,596,-16109,-3564,-2,-1,16
1,832,57251,642,-16067,-3600,-3,-1,16
1,833,57256,693,-16079,-3578,1,0,19
1,834,57261,749,-16117,-3542,1,3,19
1,835,57266,711,-16119,-3562,1,1,18
1,836,57271,716,-16112,-3534,1,-5,21
1,837,57276,677,-16141,-3501,-1,-9,21
1,838,57281,612,-16151,-3489,-4,-10,23
1,839,57286,611,-16152,-3542,-6,-9,24
1,840,57291,678,-16094,-3588,-4,-5,26
1,841,57296,662,-16039,-3639,-3,-3,26
1,842,57301,621,-16041,-3586,-4,-4,23
1,843,57306,582,-16035,-3587,-4,-7,24
1,844,57311,581,-16024,-3598,-7,-10,23
1,845,57316,631,-16015,-3621,-7,-8,24
1,846,57321,589,-16054,-3655,-3,-6,25
1,847,57326,564,-16058,-3717,-3,-5,24
1,848,57331,589,-16008,-3690,-4,-7,26
1,849,57336,627,-16026,-3662,-3,-8,26
1,850,57341,622,-16025,-3641,-4,-8,29
1,851,57346,552,-16087,-3588,-4,-10,28
1,852,57351,454,-16205,-3546,-7,-14,24
1,853,57356,464,-16230,-3538,-9,-19,23
1,854,57361,530,-16193,-3546,-9,-16,23
1,855,57366,556,-16155,-3578,-9,-13,25
1,856,57371,538,-16154,-3638,-8,-12,23
1,857,57376,515,-16135,-3672,-8,-14,21
1,858,57381,509,-16106,-3539,-8,-15,19
1,859,57386,477,-16093,-3653,-8,-12,23
1,860,57391,410,-16071,-3675,-8,-9,21
1,861,57396,457,-16026,-3643,-9,-8,16
1,862,57401,451,-16005,-3706,-10,-6,16
1,863,57406,474,-16019,-3704,-9,-5,17
1,864,57411,454,-16007,-3697,-10,-2,17
1,865,57416,404,-16015,-3682,-8,-4,16
1,866,57421,396,-16006,-3663,-10,-2,15
1,867,57426,388,-16005,-3723,-12,2,13
1,868,57431,447,-15966,-3743,-11,6,9
1,869,57436,404,-15937,-3705,-8,9,9
1,870,57441,451,-15919,-3716,-12,11,9
1,871,57446,483,-15957,-3641,-12,10,9
1,872,57451,476,-16010,-3626,-12,6,7
1,873,57456,499,-16031,-3609,-14,3,5
1,874,57461,547,-16042,-3545,-13,2,6
1,875,57466,510,-16112,-3541,-14,-4,5
1,876,57471,441,-16173,-3540,-16,-11,5
1,877,57476,448,-16158,-3613,-15,-10,3
1,878,57481,506,-16118,-3650,-13,-5,2
1,879,57486,539,-16088,-3635,-12,1,4
1,880,57491,565,-16120,-3683,-11,6,5
1,881,57496,571,-16088,-3654,-14,9,3
1,882,57501,609,-16013,-3648,-16,10,2
1,883,57506,658,-16003,-3605,-20,13,3
1,884,57511,620,-15975,-3636,-21,14,0
1,885,57516,565,-16003,-3625,-21,10,-1
1,886,57521,558,-16041,-3648,-21,5,-2
1,887,57526,612,-16007,-3672,-21,3,0
1,888,57531,652,-16004,-3671,-20,8,-3
1,889,57536,615,-15994,-3615,-18,10,-2
1,890,57541,611,-15984,-3628,-16,7,-1
1,891,57546,665,-15994,-3616,-14,1,-3
1,892,57551,687,-16032,-3558,-17,-1,-4
1,893,57556,693,-16064,-3594,-16,-5,-2
1,894,57561,638,-16050,-3623,-16,-13,-1
1,895,57566,655,-16035,-3641,-15,-17,-1
1,896,57571,748,-16002,-3615,-17,-14,-1
1,897,57576,724,-15925,-3630,-19,-12,-5
1,898,57581,728,-15897,-3629,-20,-15,-3
1,899,57586,662,-15959,-3561,-20,-21,-4
1,900,57591,543,-15980,-3538,-18,-29,-5
1,901,57596,580,-16054,-3570,-21,-30,-5
1,902,57601,560,-16006,-3580,-23,-32,-5
1,903,57606,541,-15965,-3609,-17,-33,-4
1,904,57611,568,-15937,-3731,-18,-28,-6
1,905,57616,566,-15933,-3728,-14,-27,-2
1,906,57621,528,-15927,-3654,-13,-26,-4
1,907,57626,522,-15968,-3633,-14,-24,-4
1,908,57631,568,-15993,-3694,-16,-21,-7
1,909,57636,624,-15990,-3708,-19,-17,-9
1,910,57641,625,-16048,-3710,-20,-14,-9
1,911,57646,503,-16012,-3601,-24,-11,-10
1,912,57651,514,-15999,-3682,-20,-8,-7
1,913,57656,570,-15983,-3739,-19,-5,-10
1,914,57661,623,-15920,-3730,-16,-3,-11
1,915,57666,591,-15948,-3665,-15,-2,-13
1,916,57671,543,-16055,-3572,-18,-5,-13
1,917,57676,540,-16056,-3540,-20,-13,-13
1,918,57681,646,-16135,-3508,-19,-18,-14
1,919,57686,654,-16103,-3557,-18,-16,-13
1,920,57691,581,-16094,-3649,-16,-20,-12
1,921,57696,582,-16058,-3747,-16,-25,-12
1,922,57701,568,-15974,-3713,-14,-27,-14
1,923,57706,622,-15959,-3728,-14,-28,-16
1,924,57711,613,-15954,-3732,-10,-28,-15
1,925,57716,555,-15907,-3722,-9,-31,-15
1,926,57721,494,-15922,-3718,-9,-35,-15
1,927,57726,440,-15969,-3666,-10,-39,-16
1,928,57731,474,-16065,-3575,-10,-38,-14
1,929,57736,420,-16143,-3647,-9,-38,-16
1,930,57741,400,-16097,-3695,-6,-30,-19
1,931,57746,438,-16105,-3755,-5,-21,-18
1,932,57751,458,-16046,-3689,-5,-11,-20
1,933,57756,549,-16024,-3672,-10,-4,-20
1,934,57761,514,-16008,-3704,-10,1,-21
1,935,57766,490,-16013,-3702,-7,3,-21
1,936,57771,499,-15944,-3750,-6,4,-22
1,937,57776,513,-15948,-3693,-7,2,-22
1,938,57781,578,-16005,-3646,-6,-5,-19
1,939,57786,541,-16002,-3625,-4,-7,-23
1,940,57791,506,-16030,-3649,-1,-3,-23
1,941,57796,543,-16086,-3598,-1,0,-24
1,942,57801,564,-16085,-3657,-1,0,-25
1,943,57806,639,-16063,-3737,-2,5,-23
1,944,57811,653,-16021,-3727,-3,12,-23
1,945,57816,611,-15984,-3668,-3,15,-23
1,946,57821,578,-15958,-3653,-5,11,-23
1,947,57826,606,-15934,-3612,-4,2,-22
1,948,57831,604,-15943,-3599,-1,-6,-23
1,949,57836,549,-15917,-3649,-1,-7,-22
1,950,57841,566,-15934,-3676,-1,-9,-21
1,951,57846,550,-15951,-3694,-3,-15,-20
1,952,57851,534,-15951,-3638,1,-14,-22
1,953,57856,572,-15980,-3649,2,-14,-22
1,954,57861,587,-16004,-3689,4,-10,-20
1,955,57866,580,-15928,-3701,8,-12,-19
1,956,57871,601,-15926,-3652,5,-14,-20
1,957,57876,584,-15980,-3640,2,-15,-19
1,958,57881,567,-16013,-3662,5,-18,-19
1,959,57886,524,-16033,-3647,5,-18,-20
1,960,57891,579,-16009,-3680,5,-12,-18
1,961,57896,613,-15990,-3712,4,-9,-20
1,962,57901,559,-15976,-3690,6,-4,-19
1,963,57906,512,-16017,-3694,6,-1,-17
1,964,57911,554,-16025,-3679,3,0,-17
1,965,57916,615,-16046,-3609,3,3,-18
1,966,57921,574,-16083,-3619,4,5,-22
1,967,57926,543,-16074,-3676,4,2,-18
1,968,57931,596,-16017,-3727,3,1,-16
1,969,57936,642,-15958,-3764,5,3,-15
1,970,57941,636,-15959,-3749,7,4,-15
1,971,57946,567,-16017,-3614,6,2,-16
1,972,57951,513,-16019,-3533,4,-3,-15
1,973,57956,459,-16017,-3603,6,-4,-14
1,974,57961,538,-16020,-3676,5,7,-16
1,975,57966,553,-15985,-3741,4,17,-12
1,976,57971,612,-15927,-3815,4,23,-14
1,977,57976,641,-15957,-3810,5,34,-14
1,978,57981,650,-15896,-3766,5,41,-17
1,979,57986,648,-15868,-3703,3,45,-15
1,980,57991,685,-15898,-3609,0,44,-13
1,981,57996,662,-15924,-3571,1,32,-13
1,982,58001,626,-15957,-3600,3,18,-12
1,983,58006,593,-16039,-3650,3,7,-12
1,984,58011,547,-16010,-3694,1,3,-13
1,985,58016,589,-15971,-3740,3,3,-10
1,986,58021,652,-15947,-3685,6,3,-8
1,987,58026,711,-15954,-3717,8,2,-8
1,988,58031,709,-15968,-3693,10,3,-6
1,989,58036,703,-16000,-3701,10,2,-6
1,990,58041,686,-16019,-3677,7,-5,-4
1,991,58046,688,-16029,-3619,5,-14,-3
1,992,58051,681,-16034,-3630,3,-14,-2
1,993,58056,645,-16043,-3675,1,-15,-3
1,994,58061,607,-16081,-3684,2,-16,-4
1,995,58066,603,-16034,-3666,3,-18,-1
1,996,58071,608,-16067,-3657,4,-19,0
1,997,58076,660,-16126,-3691,5,-16,0
1,998,58081,654,-16121,-3695,6,-12,-1
1,999,58086,653,-16084,-3678,5,-9,2
