event_id,seq,ts_ms,ax,ay,az,gx,gy,gz
1,0,188342,-1098,-16410,860,5,-74,-21
1,1,188347,-1136,-16351,864,4,-63,-25
1,2,188352,-1087,-16311,841,4,-49,-26
1,3,188357,-1086,-16355,889,7,-26,-23
1,4,188362,-996,-16347,922,5,-8,-24
1,5,188367,-968,-16383,986,6,14,-25
1,6,188372,-993,-16435,1000,5,32,-24
1,7,188377,-1005,-16407,987,5,45,-23
1,8,188382,-994,-16420,944,3,51,-25
1,9,188387,-996,-16515,895,4,61,-24
1,10,188392,-1002,-16581,872,8,66,-21
1,11,188397,-1002,-16606,901,8,61,-21
1,12,188402,-1023,-16565,956,6,49,-22
1,13,188407,-1112,-16532,1008,6,26,-23
1,14,188412,-1105,-16539,1074,7,5,-21
1,15,188417,-1074,-16532,1130,10,-14,-20
1,16,188422,-1077,-16468,1134,7,-34,-22
1,17,188427,-1137,-16409,1114,6,-49,-18
1,18,188432,-1161,-16368,1079,7,-60,-18
1,19,188437,-1148,-16376,1000,7,-65,-19
1,20,188442,-1132,-16366,967,9,-59,-19
1,21,188447,-1042,-16380,972,8,-51,-19
1,22,188452,-937,-16365,986,8,-40,-18
1,23,188457,-1015,-16357,1004,7,-26,-22
1,24,188462,-1006,-16331,1013,8,-13,-20
1,25,188467,-950,-16348,1012,7,2,-19
1,26,188472,-939,-16346,992,6,23,-19
1,27,188477,-929,-16338,997,6,41,-18
1,28,188482,-910,-16323,1056,4,58,-16
1,29,188487,-900,-16352,1006,1,75,-18
1,30,188492,-886,-16368,952,2,89,-17
1,31,188497,-934,-16444,920,1,103,-18
1,32,188502,-961,-16505,857,1,116,-18
1,33,188507,-1071,-16593,792,2,123,-16
1,34,188512,-1106,-16601,804,1,123,-17
1,35,188517,-1181,-16523,905,2,113,-16
1,36,188522,-1179,-16496,1061,-3,90,-17
1,37,188527,-1140,-16460,1234,0,66,-17
1,38,188532,-1021,-16459,1308,1,38,-17
1,39,188537,-1047,-16415,1306,3,9,-16
1,40,188542,-1082,-16402,1253,0,-19,-19
1,41,188547,-1065,-16359,1095,-2,-41,-15
1,42,188552,-1022,-16313,974,-2,-55,-14
1,43,188557,-926,-16356,906,-6,-59,-16
1,44,188562,-851,-16408,868,-5,-50,-15
1,45,188567,-857,-16420,898,-3,-41,-13
1,46,188572,-930,-16412,869,-3,-8,-14
1,47,188577,-870,-16441,831,-5,19,-14
1,48,188582,-842,-16487,855,-4,44,-13
1,49,188587,-801,-16479,903,-7,64,-15
1,50,188592,-839,-16501,962,-7,78,-12
1,51,188597,-835,-16499,894,-6,84,-11
1,52,188602,-841,-16500,835,-6,93,-12
1,53,188607,-878,-16493,798,-8,101,-13
1,54,188612,-974,-16475,814,-10,99,-9
1,55,188617,-1029,-16470,906,-7,88,-10
1,56,188622,-1013,-16485,959,-8,75,-9
1,57,188627,-1022,-16459,956,-9,56,-13
1,58,188632,-1117,-16486,1011,-11,36,-12
1,59,188637,-1182,-16488,1095,-11,9,-12
1,60,188642,-1160,-16454,1206,-9,-19,-9
1,61,188647,-1107,-16465,1163,-9,-43,-10
1,62,188652,-1084,-16422,1097,-13,-59,-11
1,63,188657,-1063,-16408,995,-12,-69,-12
1,64,188662,-1073,-16359,953,-15,-77,-11
1,65,188667,-1024,-16339,882,-12,-78,-12
1,66,188672,-980,-16300,896,-12,-71,-12
1,67,188677,-931,-16308,852,-12,-57,-13
1,68,188682,-877,-16291,813,-13,-36,-14
1,69,188687,-888,-16340,763,-14,-14,-15
1,70,188692,-867,-16372,751,-12,5,-14
1,71,188697,-877,-16400,707,-10,23,-14
1,72,188702,-887,-16453,693,-9,36,-13
1,73,188707,-867,-16474,712,-10,49,-11
1,74,188712,-826,-16495,784,-11,57,-15
1,75,188717,-854,-16513,912,-9,52,-18
1,76,188722,-904,-16496,970,-10,38,-15
1,77,188727,-950,-16467,1020,-7,26,-16
1,78,188732,-965,-16402,1011,-10,15,-16
1,79,188737,-930,-16388,1040,-11,-2,-14
1,80,188742,-941,-16338,1053,-9,-17,-14
1,81,188747,-1000,-16286,1055,-10,-32,-15
1,82,188752,-1043,-16246,1037,-12,-45,-16
1,83,188757,-1020,-16201,972,-11,-53,-17
1,84,188762,-984,-16226,943,-12,-50,-18
1,85,188767,-948,-16199,931,-11,-39,-18
1,86,188772,-919,-16196,893,-13,-31,-18
1,87,188777,-883,-16218,934,-12,-15,-20
1,88,188782,-891,-16199,937,-12,-2,-21
1,89,188787,-914,-16258,957,-13,11,-21
1,90,188792,-859,-16292,958,-11,26,-23
1,91,188797,-828,-16312,914,-9,40,-21
1,92,188802,-861,-16376,850,-7,51,-21
1,93,188807,-863,-16416,792,-11,58,-24
1,94,188812,-865,-16470,776,-12,58,-25
1,95,188817,-855,-16445,784,-11,55,-22
1,96,188822,-910,-16449,838,-9,55,-23
1,97,188827,-996,-16426,817,-6,48,-26
1,98,188832,-984,-16437,930,-8,40,-27
1,99,188837,-1033,-16413,981,-9,28,-25
1,100,188842,-1047,-16368,1005,-8,17,-22
1,101,188847,-997,-16429,1009,-10,5,-25
1,102,188852,-1030,-16453,981,-7,-9,-28
1,103,188857,-1096,-16359,997,-7,-22,-29
1,104,188862,-1093,-16364,1006,-7,-32,-29
1,105,188867,-1067,-16333,991,-7,-40,-29
1,106,188872,-1022,-16376,920,-9,-41,-32
1,107,188877,-1016,-16396,899,-10,-39,-33
1,108,188882,-980,-16415,830,-6,-35,-33
1,109,188887,-974,-16410,850,-5,-28,-35
1,110,188892,-924,-16409,862,-4,-18,-37
1,111,188897,-924,-16439,884,-3,-8,-35
1,112,188902,-904,-16453,886,-4,2,-38
1,113,188907,-858,-16493,898,-5,10,-41
1,114,188912,-810,-16524,901,-3,12,-38
1,115,188917,-823,-16527,858,-3,14,-39
1,116,188922,-839,-16537,893,-3,14,-38
1,117,188927,-852,-16509,919,-3,12,-39
1,118,188932,-866,-16486,931,-2,5,-35
1,119,188937,-855,-16447,955,-2,-5,-37
1,120,188942,-885,-16431,1012,-4,-19,-36
1,121,188947,-921,-16419,1029,-5,-24,-37
1,122,188952,-933,-16385,982,-1,-28,-35
1,123,188957,-874,-16373,937,-3,-24,-34
1,124,188962,-852,-16389,914,-3,-19,-36
1,125,188967,-860,-16384,959,-3,-16,-37
1,126,188972,-831,-16341,969,-4,-14,-38
1,127,188977,-822,-16350,945,-3,-11,-38
1,128,188982,-802,-16349,882,-3,-2,-35
1,129,188987,-777,-16370,834,-5,15,-35
1,130,188992,-806,-16394,828,-6,33,-34
1,131,188997,-788,-16423,859,-5,46,-34
1,132,189002,-783,-16427,887,-4,58,-34
1,133,189007,-785,-16435,979,-5,68,-36
1,134,189012,-797,-16404,954,-7,79,-37
1,135,189017,-749,-16436,965,-6,94,-35
1,136,189022,-770,-16476,946,-2,106,-33
1,137,189027,-830,-16479,939,-8,116,-35
1,138,189032,-836,-16470,859,-8,123,-35
1,139,189037,-885,-16494,708,-7,131,-34
1,140,189042,-899,-16544,689,-5,133,-35
1,141,189047,-910,-16545,795,-6,119,-35
1,142,189052,-994,-16524,852,-7,97,-34
1,143,189057,-1015,-16543,1000,-7,71,-36
1,144,189062,-986,-16539,1039,-6,46,-37
1,145,189067,-974,-16539,1097,-6,15,-35
1,146,189072,-914,-16521,1187,-7,-16,-37
1,147,189077,-877,-16527,1133,-6,-43,-37
1,148,189082,-869,-16495,1052,-7,-65,-36
1,149,189087,-819,-16497,932,-10,-78,-36
1,150,189092,-797,-16512,843,-8,-80,-34
1,151,189097,-746,-16543,783,-5,-70,-33
1,152,189102,-771,-16505,727,-9,-51,-34
1,153,189107,-782,-16513,664,-12,-28,-34
1,154,189112,-706,-16549,637,-10,0,-32
1,155,189117,-685,-16506,629,-7,29,-34
1,156,189122,-654,-16519,702,-7,55,-34
1,157,189127,-657,-16529,784,-11,72,-33
1,158,189132,-701,-16488,855,-9,85,-33
1,159,189137,-708,-16477,845,-10,96,-30
1,160,189142,-733,-16506,843,-10,102,-30
1,161,189147,-752,-16528,871,-11,104,-32
1,162,189152,-762,-16534,926,-10,95,-29
1,163,189157,-800,-16522,965,-12,79,-25
1,164,189162,-776,-16505,993,-13,56,-25
1,165,189167,-796,-16475,1038,-12,32,-27
1,166,189172,-784,-16406,1063,-12,6,-24
1,167,189177,-770,-16364,1090,-14,-13,-20
1,168,189182,-764,-16349,1089,-15,-32,-21
1,169,189187,-756,-16297,968,-13,-49,-19
1,170,189192,-730,-16295,873,-16,-54,-19
1,171,189197,-682,-16288,751,-17,-50,-19
1,172,189202,-654,-16277,700,-14,-39,-18
1,173,189207,-622,-16300,685,-13,-24,-16
1,174,189212,-609,-16339,612,-14,-6,-15
1,175,189217,-634,-16361,618,-11,11,-14
1,176,189222,-656,-16386,633,-11,36,-14
1,177,189227,-671,-16380,623,-9,61,-15
1,178,189232,-684,-16420,631,-9,82,-15
1,179,189237,-683,-16493,657,-10,97,-11
1,180,189242,-715,-16518,702,-6,107,-12
1,181,189247,-756,-16505,782,-9,108,-9
1,182,189252,-790,-16503,902,-8,101,-9
1,183,189257,-827,-16498,957,-7,87,-11
1,184,189262,-867,-16488,943,-8,74,-7
1,185,189267,-949,-16517,948,-8,55,-7
1,186,189272,-916,-16482,990,-9,29,-8
1,187,189277,-965,-16456,1056,-10,7,-7
1,188,189282,-937,-16427,1117,-9,-15,-6
1,189,189287,-908,-16414,1050,-9,-29,-7
1,190,189292,-947,-16452,908,-11,-34,-9
1,191,189297,-975,-16369,846,-11,-39,-8
1,192,189302,-954,-16381,803,-10,-41,-8
1,193,189307,-911,-16382,721,-12,-21,-10
1,194,189312,-883,-16355,725,-9,-10,-10
1,195,189317,-897,-16323,741,-7,2,-10
1,196,189322,-890,-16314,830,-8,10,-10
1,197,189327,-847,-16261,851,-11,19,-9
1,198,189332,-793,-16271,922,-9,29,-8
1,199,189337,-785,-16290,875,-12,36,-11
1,200,189342,-859,-16309,951,-12,39,-15
1,201,189347,-895,-16337,851,-9,39,-13
1,202,189352,-897,-16319,791,-10,34,-10
1,203,189357,-847,-16310,831,-13,29,-9
1,204,189362,-890,-16297,950,-13,21,-9
1,205,189367,-904,-16346,1036,-13,8,-11
1,206,189372,-908,-16381,944,-10,-6,-12
1,207,189377,-929,-16419,853,-10,-17,-12
1,208,189382,-968,-16459,797,-12,-30,-13
1,209,189387,-901,-16421,812,-11,-45,-12
1,210,189392,-826,-16402,925,-13,-53,-8
1,211,189397,-784,-16400,959,-11,-60,-11
1,212,189402,-803,-16422,799,-10,-66,-13
1,213,189407,-820,-16410,757,-9,-63,-10
1,214,189412,-807,-16400,695,-7,-55,-9
1,215,189417,-727,-16395,701,-11,-42,-8
1,216,189422,-719,-16423,715,-12,-30,-9
1,217,189427,-717,-16451,793,-8,-15,-8
1,218,189432,-744,-16446,836,-8,-2,-10
1,219,189437,-763,-16478,795,-6,12,-7
1,220,189442,-783,-16475,764,-9,23,-7
1,221,189447,-734,-16504,778,-9,33,-9
1,222,189452,-724,-16465,773,-6,36,-5
1,223,189457,-765,-16466,783,-9,37,-5
1,224,189462,-813,-16476,877,-10,33,-9
1,225,189467,-841,-16457,867,-10,29,-6
1,226,189472,-822,-16437,812,-9,25,-4
1,227,189477,-809,-16490,780,-7,22,-6
1,228,189482,-799,-16558,724,-9,15,-4
1,229,189487,-823,-16547,754,-10,4,-4
1,230,189492,-835,-16543,830,-9,-11,-4
1,231,189497,-859,-16543,904,-9,-26,-3
1,232,189502,-827,-16510,951,-6,-37,-3
1,233,189507,-810,-16465,954,-6,-44,-5
1,234,189512,-830,-16442,863,-9,-44,-6
1,235,189517,-819,-16407,762,-8,-46,-6
1,236,189522,-774,-16373,794,-7,-42,-5
1,237,189527,-756,-16396,732,-7,-39,-2
1,238,189532,-724,-16392,737,-7,-30,-3
1,239,189537,-722,-16421,797,-5,-22,-4
1,240,189542,-737,-16397,838,-7,-18,-3
1,241,189547,-704,-16394,847,-8,-10,-3
1,242,189552,-668,-16428,790,-4,0,-3
1,243,189557,-678,-16466,721,-5,10,1
1,244,189562,-681,-16500,690,-6,17,0
1,245,189567,-733,-16535,747,-8,18,0
1,246,189572,-801,-16489,744,-8,25,-1
1,247,189577,-772,-16514,785,-5,28,-2
1,248,189582,-770,-16585,812,-6,27,0
1,249,189587,-785,-16602,832,-4,25,0
1,250,189592,-780,-16607,789,-5,21,1
1,251,189597,-820,-16598,875,-5,10,1
1,252,189602,-883,-16594,842,-6,1,0
1,253,189607,-866,-16556,825,-8,-8,0
1,254,189612,-845,-16491,886,-9,-11,-1
1,255,189617,-788,-16493,851,-7,-17,-1
1,256,189622,-803,-16482,788,-5,-23,0
1,257,189627,-797,-16458,767,-6,-26,-1
1,258,189632,-773,-16473,737,-6,-27,-1
1,259,189637,-753,-16488,783,-7,-26,-1
1,260,189642,-702,-16512,844,-6,-26,-1
1,261,189647,-703,-16490,814,-6,-18,2
1,262,189652,-689,-16492,719,-6,-11,2
1,263,189657,-723,-16514,678,-6,1,3
1,264,189662,-802,-16499,612,-7,12,0
1,265,189667,-850,-16537,666,-7,20,1
1,266,189672,-802,-16604,651,-5,46,-1
1,267,189677,-807,-16566,711,-6,53,-1
1,268,189682,-864,-16554,693,-6,52,0
1,269,189687,-894,-16544,741,-3,45,0
1,270,189692,-956,-16550,787,-2,36,0
1,271,189697,-975,-16530,750,-2,23,-2
1,272,189702,-1003,-16505,783,-4,13,-3
1,273,189707,-931,-16491,902,-1,0,-2
1,274,189712,-925,-16444,932,-3,-22,-2
1,275,189717,-971,-16403,932,-7,-45,-3
1,276,189722,-931,-16346,935,-6,-62,-3
1,277,189727,-885,-16365,837,-2,-71,-3
1,278,189732,-865,-16386,743,-1,-75,-4
1,279,189737,-814,-16390,761,-3,-70,-5
1,280,189742,-825,-16371,763,-5,-64,-8
1,281,189747,-794,-16355,741,-2,-60,-7
1,282,189752,-750,-16364,654,-2,-46,-5
1,283,189757,-767,-16396,667,1,-28,-4
1,284,189762,-715,-16426,626,0,-10,-7
1,285,189767,-701,-16409,726,-1,5,-5
1,286,189772,-692,-16406,779,0,16,-5
1,287,189777,-738,-16449,814,0,23,-7
1,288,189782,-738,-16487,735,1,26,-5
1,289,189787,-751,-16559,655,0,34,-6
1,290,189792,-792,-16564,671,0,35,-8
1,291,189797,-817,-16554,758,1,27,-4
1,292,189802,-787,-16485,846,2,16,-3
1,293,189807,-760,-16447,921,1,4,-2
1,294,189812,-850,-16393,973,1,-7,-3
1,295,189817,-831,-16342,947,0,-16,-6
1,296,189822,-813,-16338,819,1,-26,-5
1,297,189827,-825,-16343,776,0,-35,-4
1,298,189832,-774,-16320,825,-1,-42,-2
1,299,189837,-729,-16294,899,0,-46,-3
1,300,189842,-662,-16340,907,2,-45,-5
1,301,189847,-709,-16326,842,0,-46,-1
1,302,189852,-699,-16369,775,0,-40,-4
1,303,189857,-699,-16394,680,1,-31,-2
1,304,189862,-707,-16426,672,0,-17,-1
1,305,189867,-732,-16479,674,0,-1,-1
1,306,189872,-705,-16515,680,0,12,-3
1,307,189877,-751,-16564,653,0,24,-2
1,308,189882,-756,-16570,588,3,33,-2
1,309,189887,-748,-16587,640,6,36,1
1,310,189892,-746,-16572,763,3,37,3
1,311,189897,-725,-16537,855,2,29,1
1,312,189902,-737,-16526,881,3,15,-2
1,313,189907,-739,-16501,871,5,3,2
1,314,189912,-787,-16489,909,3,-12,2
1,315,189917,-813,-16407,951,2,-31,2
1,316,189922,-792,-16391,986,0,-45,0
1,317,189927,-723,-16326,901,1,-56,2
1,318,189932,-722,-16363,808,4,-57,3
1,319,189937,-756,-16432,744,2,-51,3
1,320,189942,-790,-16418,750,-1,-46,0
1,321,189947,-801,-16394,708,1,-38,2
1,322,189952,-732,-16408,679,2,-28,3
1,323,189957,-705,-16428,713,2,-10,2
1,324,189962,-704,-16414,762,1,3,1
1,325,189967,-721,-16375,827,2,11,0
1,326,189972,-754,-16417,860,2,18,2
1,327,189977,-733,-16419,760,2,20,5
1,328,189982,-741,-16437,789,1,26,3
1,329,189987,-693,-16501,788,-1,29,5
1,330,189992,-733,-16495,866,0,25,2
1,331,189997,-756,-16525,796,1,18,1
1,332,190002,-757,-16480,783,2,7,4
1,333,190007,-792,-16446,842,3,2,4
1,334,190012,-862,-16483,825,1,-3,2
1,335,190017,-805,-16469,835,4,-11,4
1,336,190022,-845,-16477,813,2,-18,5
1,337,190027,-884,-16468,808,3,-26,2
1,338,190032,-894,-16423,823,3,-32,1
1,339,190037,-872,-16352,816,3,-34,4
1,340,190042,-790,-16446,839,1,-28,-2
1,341,190047,-794,-16387,865,2,-29,-1
1,342,190052,-830,-16357,845,1,-27,1
1,343,190057,-825,-16344,719,1,-21,0
1,344,190062,-776,-16344,722,1,-11,1
1,345,190067,-750,-16351,723,0,1,-1
1,346,190072,-793,-16351,722,3,9,-2
1,347,190077,-754,-16381,726,2,20,-1
1,348,190082,-761,-16394,689,4,32,-4
1,349,190087,-751,-16425,654,6,34,-1
1,350,190092,-781,-16497,710,5,33,-2
1,351,190097,-760,-16519,762,4,24,1
1,352,190102,-763,-16539,860,6,11,0
1,353,190107,-782,-16517,845,4,-3,-1
1,354,190112,-786,-16537,809,4,-17,1
1,355,190117,-777,-16516,810,4,-29,0
1,356,190122,-779,-16490,761,2,-38,-1
1,357,190127,-800,-16471,720,4,-46,1
1,358,190132,-782,-16453,708,4,-44,0
1,359,190137,-769,-16449,648,4,-39,2
1,360,190142,-785,-16399,684,5,-32,2
1,361,190147,-846,-16324,755,4,-23,0
1,362,190152,-799,-16325,761,6,-13,0
1,363,190157,-770,-16301,756,7,0,-1
1,364,190162,-767,-16319,812,6,9,-1
1,365,190167,-815,-16320,855,5,18,1
1,366,190172,-858,-16322,881,5,24,1
1,367,190177,-877,-16331,835,4,31,0
1,368,190182,-835,-16382,754,4,37,1
1,369,190187,-833,-16396,695,1,49,2
1,370,190192,-858,-16447,696,2,48,-3
1,371,190197,-846,-16524,717,3,42,-3
1,372,190202,-858,-16518,728,3,33,-2
1,373,190207,-858,-16468,664,4,25,-1
1,374,190212,-885,-16452,652,5,17,0
1,375,190217,-886,-16475,655,6,8,-1
1,376,190222,-869,-16522,663,5,-3,2
1,377,190227,-930,-16534,639,4,-15,0
1,378,190232,-958,-16550,549,4,-21,1
1,379,190237,-941,-16557,322,6,-21,2
1,380,190242,-905,-16533,213,10,-10,4
1,381,190247,-838,-16477,176,9,14,2
1,382,190252,-802,-16475,195,9,45,3
1,383,190257,-812,-16471,125,10,74,6
1,384,190262,-788,-16410,73,13,109,9
1,385,190267,-706,-16398,29,14,155,13
1,386,190272,-504,-16382,282,13,205,16
1,387,190277,-614,-16335,360,15,246,15
1,388,190282,-684,-16417,397,16,276,21
1,389,190287,-731,-16463,361,15,300,27
1,390,190292,-663,-16669,477,10,317,32
1,391,190297,-725,-16759,905,7,309,40
1,392,190302,-658,-16675,1331,2,270,47
1,393,190307,-675,-16521,1483,2,210,59
1,394,190312,-736,-16352,1426,-4,150,63
1,395,190317,-1100,-16240,1079,-9,93,73
1,396,190322,-1335,-16249,790,-12,54,85
1,397,190327,-1322,-16212,779,-17,25,92
1,398,190332,-1213,-16121,1009,-26,-10,103
1,399,190337,-1338,-16147,1205,-30,-61,113
1,400,190342,-1584,-16190,1240,-31,-118,119
1,401,190347,-1719,-16141,1274,-40,-174,133
1,402,190352,-1608,-16046,1240,-49,-213,145
1,403,190357,-1462,-15897,1086,-60,-234,157
1,404,190362,-1421,-15996,787,-66,-237,170
1,405,190367,-1527,-16086,492,-73,-233,180
1,406,190372,-1510,-16064,395,-83,-230,198
1,407,190377,-1335,-15915,403,-90,-206,214
1,408,190382,-1175,-16011,585,-97,-162,231
1,409,190387,-1250,-16066,586,-103,-120,246
1,410,190392,-1495,-16159,416,-113,-94,261
1,411,190397,-1654,-16079,326,-121,-83,280
1,412,190402,-1611,-15944,398,-132,-73,301
1,413,190407,-1508,-15875,568,-154,-46,341
1,414,190412,-1651,-15917,565,-163,-56,357
1,415,190417,-1872,-15938,475,-174,-73,375
1,416,190422,-2072,-15950,227,-187,-89,397
1,417,190427,-2034,-16123,85,-196,-97,422
1,418,190432,-1761,-16291,370,-213,-113,448
1,419,190437,-1641,-16303,716,-225,-160,471
1,420,190442,-1750,-16325,725,-229,-224,491
1,421,190447,-1892,-16249,485,-237,-273,514
1,422,190452,-2007,-16222,121,-251,-292,537
1,423,190457,-2098,-16224,-195,-262,-277,562
1,424,190462,-2056,-16269,-386,-271,-240,587
1,425,190467,-2110,-16270,-373,-282,-200,608
1,426,190472,-2231,-16113,-236,-291,-155,630
1,427,190477,-2418,-16002,-201,-303,-116,650
1,428,190482,-2607,-15912,-169,-313,-77,671
1,429,190487,-2723,-15886,-138,-322,-38,694
1,430,190492,-2803,-15777,-127,-336,-17,715
1,431,190497,-3045,-15773,-51,-349,-19,735
1,432,190502,-3294,-15764,69,-358,-42,751
1,433,190507,-3391,-15763,152,-368,-78,774
1,434,190512,-3314,-15701,306,-378,-118,797
1,435,190517,-3225,-15655,282,-392,-154,812
1,436,190522,-3393,-15691,8,-399,-185,826
1,437,190527,-3647,-15618,-432,-406,-204,839
1,438,190532,-3567,-15573,-1175,-412,-195,859
1,439,190537,-3703,-15602,-1013,-422,-139,877
1,440,190542,-3756,-15618,-924,-429,-103,893
1,441,190547,-3620,-15585,-941,-433,-80,905
1,442,190552,-3646,-15519,-718,-439,-65,915
1,443,190557,-3758,-15500,-612,-443,-69,927
1,444,190562,-3902,-15478,-757,-446,-67,936
1,445,190567,-4086,-15501,-987,-452,-59,949
1,446,190572,-4209,-15599,-1018,-457,-49,959
1,447,190577,-4133,-15655,-1077,-459,-51,970
1,448,190582,-4066,-15673,-987,-462,-55,978
1,449,190587,-4597,-16064,-269,-474,-61,973
1,450,190592,-3210,-16272,-1987,-486,-107,937
1,451,190597,-4229,-15393,-571,-473,-9,918
1,452,190602,-5120,-15908,264,-473,-56,967
1,453,190607,-5060,-15899,-2915,-456,-175,1002
1,454,190612,-4263,-15855,-1180,-472,-45,993
1,455,190617,-3882,-16705,440,-484,-61,1000
1,456,190622,-6918,-14161,3683,-490,-180,948
1,457,190627,-4631,-16673,-4836,-437,-621,1099
1,458,190632,-3787,-16969,-1036,-451,-187,988
1,459,190637,-6574,-14058,4329,-529,-159,877
1,460,190642,-5016,-18273,-7242,-426,-651,1110
1,461,190647,-5703,-15038,2530,-475,-216,882
1,462,190652,-4681,-15570,-1632,-493,-584,1015
1,463,190657,-3666,-17807,-1225,-419,-444,1017
1,464,190662,-5267,-14262,743,-478,-382,873
1,465,190667,-4673,-17841,-4150,-436,-538,1043
1,466,190672,-5453,-15710,1835,-432,-317,891
1,467,190677,-4470,-16087,-4336,-448,-601,965
1,468,190682,-3633,-17135,-152,-405,-285,955
1,469,190687,-4624,-15657,446,-442,-312,889
1,470,190692,-4202,-17095,-3292,-390,-370,944
1,471,190697,-5068,-16081,-254,-385,-190,872
1,472,190702,-4659,-16095,-3382,-405,-296,900
1,473,190707,-4356,-16682,-1563,-370,-112,894
1,474,190712,-4755,-15724,-308,-391,-72,845
1,475,190717,-4620,-16537,-2395,-358,-91,867
1,476,190722,-5373,-15988,-219,-347,38,806
1,477,190727,-5479,-15954,-2625,-351,-56,813
1,478,190732,-5095,-16422,-1077,-334,28,805
1,479,190737,-5035,-15807,761,-353,-20,768
1,480,190742,-4502,-16459,-445,-324,-161,779
1,481,190747,-4936,-16224,692,-305,-181,731
1,482,190752,-5331,-16013,-1262,-307,-324,714
1,483,190757,-5415,-16279,-1575,-287,-323,704
1,484,190762,-5630,-15812,-792,-295,-332,674
1,485,190767,-5046,-16189,-1662,-281,-375,673
1,486,190772,-5030,-16151,-402,-259,-309,636
1,487,190777,-5642,-16175,-1665,-230,-294,588
1,488,190782,-5977,-15745,-1085,-228,-257,553
1,489,190787,-5609,-15849,-1659,-217,-265,548
1,490,190792,-5372,-15862,-564,-204,-203,515
1,491,190797,-5320,-15769,-902,-199,-226,486
1,492,190802,-5443,-15903,-1027,-177,-218,463
1,493,190807,-5816,-15570,-773,-171,-214,426
1,494,190812,-5784,-15601,-1524,-160,-232,415
1,495,190817,-5695,-15607,-1059,-150,-179,387
1,496,190822,-5485,-15586,-1181,-143,-175,360
1,497,190827,-5295,-15821,-1021,-130,-171,339
1,498,190832,-5423,-15598,-516,-119,-186,305
1,499,190837,-5439,-15575,-906,-107,-233,284
1,500,190842,-5512,-15468,-677,-95,-232,253
1,501,190847,-5453,-15401,-924,-89,-245,230
1,502,190852,-5418,-15507,-1134,-80,-242,211
1,503,190857,-5371,-15476,-814,-71,-234,180
1,504,190862,-5287,-15500,-1125,-59,-248,156
1,505,190867,-5315,-15516,-989,-46,-234,130
1,506,190872,-5414,-15499,-1189,-37,-226,104
1,507,190877,-5389,-15561,-1261,-24,-200,81
1,508,190882,-5424,-15506,-1019,-18,-172,53
1,509,190887,-5319,-15453,-1079,-9,-162,31
1,510,190892,-5201,-15439,-869,0,-135,1
1,511,190897,-5158,-15387,-726,10,-120,-26
1,512,190902,-5263,-15382,-800,25,-105,-47
1,513,190907,-5360,-15315,-754,29,-71,-75
1,514,190912,-5394,-15246,-1011,37,-36,-101
1,515,190917,-5305,-15278,-1076,46,8,-126
1,516,190922,-5325,-15300,-1144,53,42,-154
1,517,190927,-5312,-15286,-1051,62,66,-180
1,518,190932,-5377,-15219,-753,71,73,-210
1,519,190937,-5437,-15111,-740,80,65,-235
1,520,190942,-5512,-15021,-696,89,64,-262
1,521,190947,-5646,-15015,-643,99,47,-291
1,522,190952,-5596,-15116,-549,107,12,-314
1,523,190957,-5405,-15093,-305,115,-35,-340
1,524,190962,-5159,-15061,-176,120,-83,-369
1,525,190967,-5146,-15121,-169,130,-123,-394
1,526,190972,-5197,-15133,-376,138,-149,-425
1,527,190977,-5267,-15109,-731,148,-149,-453
1,528,190982,-5303,-15163,-1110,153,-115,-477
1,529,190987,-5195,-15207,-1500,161,-54,-504
1,530,190992,-5142,-15420,-1541,169,13,-532
1,531,190997,-5233,-15521,-1420,176,68,-561
1,532,191002,-5327,-15667,-1250,187,98,-589
1,533,191007,-5402,-15762,-1193,202,102,-616
1,534,191012,-5209,-15807,-855,214,89,-638
1,535,191017,-4812,-15857,-356,216,47,-660
1,536,191022,-4556,-15817,163,223,-29,-689
1,537,191027,-4575,-15825,262,234,-125,-718
1,538,191032,-4797,-15877,-194,244,-209,-743
1,539,191037,-4874,-16018,-741,251,-258,-765
1,540,191042,-4685,-16024,-1029,257,-271,-789
1,541,191047,-4352,-16060,-1047,262,-258,-812
1,542,191052,-4243,-16052,-1070,274,-241,-837
1,543,191057,-4253,-16062,-1106,282,-216,-862
1,544,191062,-4240,-16016,-1222,290,-177,-887
1,545,191067,-4128,-16020,-1295,299,-115,-908
1,546,191072,-3996,-16060,-1253,304,-38,-929
1,547,191077,-3869,-16164,-1223,314,32,-948
1,548,191082,-3899,-16221,-1204,323,87,-972
1,549,191087,-3894,-16305,-1072,330,123,-991
1,550,191092,-3835,-16302,-783,338,138,-1009
1,551,191097,-3766,-16333,-269,344,127,-1024
1,552,191102,-3566,-16356,168,349,94,-1041
1,553,191107,-3292,-16361,386,356,41,-1057
1,554,191112,-3160,-16401,226,364,-15,-1072
1,555,191117,-3185,-16446,-103,368,-61,-1089
1,556,191122,-3254,-16497,-491,373,-87,-1103
1,557,191127,-3198,-16438,-774,378,-83,-1117
1,558,191132,-3011,-16380,-873,384,-55,-1129
1,559,191137,-2752,-16356,-798,391,-8,-1140
1,560,191142,-2517,-16129,-325,403,84,-1173
1,561,191147,-2772,-16070,-541,406,132,-1188
1,562,191152,-3003,-16141,-837,415,196,-1198
1,563,191157,-2949,-16166,-874,421,260,-1208
1,564,191162,-2669,-16227,-456,423,295,-1214
1,565,191167,-2601,-16367,62,427,285,-1220
1,566,191172,-2581,-16519,485,439,237,-1229
1,567,191177,-2368,-16619,674,447,165,-1236
1,568,191182,-2045,-16594,825,448,99,-1241
1,569,191187,-1874,-16591,760,452,33,-1248
1,570,191192,-1728,-16545,623,456,-31,-1254
1,571,191197,-1496,-16460,290,457,-77,-1260
1,572,191202,-1382,-16402,2,458,-86,-1264
1,573,191207,-1542,-16441,-405,463,-54,-1273
1,574,191212,-1558,-16458,-658,463,22,-1278
1,575,191217,-1491,-16407,-506,467,112,-1279
1,576,191222,-1165,-16389,-348,471,184,-1281
1,577,191227,-1056,-16302,-31,474,252,-1288
1,578,191232,-1176,-16360,111,478,300,-1294
1,579,191237,-1515,-16288,216,485,330,-1300
1,580,191242,-1595,-16245,348,488,346,-1299
1,581,191247,-1550,-16173,623,488,350,-1301
1,582,191252,-1351,-16188,1080,490,330,-1301
1,583,191257,-1184,-16193,1357,488,280,-1302
1,584,191262,-1100,-16243,1555,490,215,-1304
1,585,191267,-1176,-16227,1383,490,155,-1310
1,586,191272,-1279,-16118,1002,492,104,-1314
1,587,191277,-1249,-16113,671,488,79,-1309
1,588,191282,-930,-16145,760,481,68,-1310
1,589,191287,-593,-16154,934,474,56,-1311
1,590,191292,-513,-16177,906,474,55,-1315
1,591,191297,-652,-16265,597,477,71,-1320
1,592,191302,-753,-16347,324,477,105,-1322
1,593,191307,-559,-16363,326,470,157,-1319
1,594,191312,-317,-16408,610,466,216,-1317
1,595,191317,-140,-16465,818,462,265,-1315
1,596,191322,-85,-16497,865,460,298,-1315
1,597,191327,-6745,-16379,-701,471,318,-1310
1,598,191332,-5465,-24149,-17470,739,1082,-1411
1,599,191337,-5283,-10224,-25839,-184,3355,-2583
1,600,191342,-18474,-9156,28512,-399,13019,-1967
1,601,191364,-31375,-10682,10749,148,1972,-72
1,602,191365,-31375,-10682,10749,148,1972,-72
1,603,191366,-31375,-10682,10749,148,1972,-72
1,604,191367,-31375,-10682,10749,148,1972,-72
1,605,191368,-31375,-10682,10749,148,1972,-72
1,606,191372,-14660,-7459,30941,-206,-1262,124
1,607,191377,1783,-12126,26753,38,-2578,661
1,608,191382,14404,-23017,11585,47,-1663,706
1,609,191387,-1121,-19047,-3898,-51,-1849,291
1,610,191392,-14615,-16207,-7166,-216,-3405,196
1,611,191397,-18024,-10146,-8610,-309,-5214,334
1,612,191402,-3344,-13489,4370,-408,-5448,639
1,613,191407,7075,-17878,13156,-278,-4667,661
1,614,191412,4558,-20280,8370,-78,-4083,457
1,615,191417,-8985,-17573,-14023,-51,-4325,342
1,616,191422,-13585,-16463,-18427,-194,-4008,407
1,617,191427,-6825,-14646,-11644,-251,-3378,460
1,618,191432,6971,-15838,-14079,-276,-2515,458
1,619,191437,7690,-18062,-6338,-164,-521,387
1,620,191442,176,-19110,2693,-96,864,246
1,621,191447,-6925,-17087,-5513,6,872,182
1,622,191452,-5356,-15565,-11424,-6,932,228
1,623,191457,563,-14632,-2037,-156,1471,307
1,624,191462,4322,-16260,11469,-187,1805,365
1,625,191467,2715,-17466,11790,-109,1466,310
1,626,191472,-1437,-17380,4837,-51,899,237
1,627,191477,-4773,-16224,35,-107,326,224
1,628,191482,-3850,-15260,-352,-178,-99,282
1,629,191487,-286,-15641,1471,-211,-313,348
1,630,191492,1789,-16637,5860,-208,-269,336
1,631,191497,989,-17278,4894,-155,-404,286
1,632,191502,-1528,-16770,-474,-112,-623,234
1,633,191507,-3055,-15753,-4661,-152,-695,238
1,634,191512,-583,-15999,1192,-214,-238,304
1,635,191517,1398,-16699,1947,-180,-95,287
1,636,191522,1088,-16988,1254,-140,-5,235
1,637,191527,-1305,-16297,-938,-141,-60,198
1,638,191532,-3037,-15800,-1853,-166,-87,219
1,639,191537,-2438,-15703,476,-190,20,252
1,640,191542,-128,-16287,1805,-196,97,276
1,641,191547,1297,-16935,2453,-175,169,259
1,642,191552,347,-16800,1819,-163,104,216
1,643,191557,-1453,-16281,305,-160,-44,198
1,644,191562,-2324,-15716,-40,-173,-97,208
1,645,191567,-1212,-15774,492,-184,-25,235
1,646,191572,481,-16228,1430,-189,138,249
1,647,191577,957,-16433,1747,-189,253,232
1,648,191582,-95,-16263,746,-183,270,210
1,649,191587,-1452,-15730,-568,-183,278,200
1,650,191592,-1998,-15430,-1249,-188,359,210
1,651,191597,-1355,-15538,-312,-200,530,227
1,652,191602,-519,-15681,1202,-208,667,223
1,653,191607,-479,-15686,2054,-203,678,201
1,654,191612,-1409,-15425,1804,-200,583,178
1,655,191617,-2425,-15120,985,-204,464,175
1,656,191622,-2572,-15098,993,-213,404,185
1,657,191627,-1935,-15312,1401,-224,351,195
1,658,191632,-1306,-15596,2111,-226,281,186
1,659,191637,-1248,-15794,2310,-222,157,174
1,660,191642,-1704,-15716,1502,-220,9,159
1,661,191647,-2079,-15577,793,-226,-73,154
1,662,191652,-1900,-15626,616,-235,-86,160
1,663,191657,-1284,-15730,613,-238,-58,163
1,664,191662,-868,-15951,478,-233,-11,158
1,665,191667,-932,-16017,131,-230,45,144
1,666,191672,-1342,-15931,-407,-226,114,133
1,667,191677,-1657,-15904,-640,-228,221,129
1,668,191682,-1593,-15948,-393,-230,358,133
1,669,191687,-1316,-15905,-184,-232,485,128
1,670,191692,-1303,-15711,-174,-232,583,117
1,671,191697,-1745,-15603,-118,-232,628,99
1,672,191702,-2280,-15623,83,-233,617,87
1,673,191707,-2475,-15837,554,-232,569,85
1,674,191712,-2230,-16073,1212,-233,489,82
1,675,191717,-1861,-16250,1749,-234,378,79
1,676,191722,-1808,-16312,1853,-232,225,64
1,677,191727,-2057,-16258,1437,-231,42,56
1,678,191732,-2249,-16254,887,-233,-123,54
1,679,191737,-2174,-16253,471,-240,-242,52
1,680,191742,-1764,-16406,331,-242,-313,52
1,681,191747,-1350,-16549,219,-239,-350,47
1,682,191752,-1187,-16642,-13,-231,-365,35
1,683,191757,-1389,-16625,-471,-224,-358,23
1,684,191762,-1526,-16610,-991,-222,-305,19
1,685,191767,-1383,-16650,-1094,-223,-207,19
1,686,191772,-1042,-16660,-807,-224,-86,16
1,687,191777,-805,-16727,-500,-221,26,9
1,688,191782,-938,-16805,-381,-216,121,-3
1,689,191787,-1310,-16940,-704,-209,205,-14
1,690,191792,-1569,-17094,-961,-205,282,-21
1,691,191797,-1589,-17121,-825,-206,343,-24
1,692,191802,-1476,-17161,-238,-206,354,-26
1,693,191807,-1376,-17127,451,-206,304,-35
1,694,191812,-1387,-17170,759,-201,197,-43
1,695,191817,-1455,-17270,683,-196,80,-52
1,696,191822,-1507,-17332,400,-194,-33,-52
1,697,191827,-1428,-17445,45,-193,-137,-53
1,698,191832,-1233,-17553,-64,-192,-239,-52
1,699,191837,-925,-17581,-18,-189,-342,-55
1,700,191842,-719,-17424,-64,-183,-423,-55
1,701,191847,-759,-17291,-199,-183,-466,-62
1,702,191852,-850,-17193,-556,-175,-480,-64
1,703,191857,-932,-17085,-904,-169,-453,-67
1,704,191862,-743,-17037,-1066,-168,-394,-69
1,705,191867,-534,-16954,-1049,-167,-315,-71
1,706,191872,-495,-16883,-861,-160,-223,-75
1,707,191877,-693,-16749,-664,-154,-54,-86
1,708,191882,-735,-16726,-789,-150,27,-87
1,709,191887,-669,-16861,-696,-148,94,-88
1,710,191892,-567,-16820,-353,-147,127,-88
1,711,191897,-576,-16661,-56,-145,128,-89
1,712,191902,-798,-16523,104,-140,93,-91
1,713,191907,-1020,-16412,184,-138,48,-96
1,714,191912,-1199,-16355,223,-137,-7,-96
1,715,191917,-1141,-16261,393,-140,-65,-99
1,716,191922,-1013,-16172,499,-138,-128,-99
1,717,191927,-956,-16091,370,-136,-192,-102
1,718,191932,-965,-16005,15,-134,-239,-105
1,719,191937,-1130,-15969,-400,-132,-257,-106
1,720,191942,-1204,-15941,-641,-130,-247,-109
1,721,191947,-1101,-15883,-740,-129,-213,-113
1,722,191952,-998,-15838,-764,-128,-155,-117
1,723,191957,-971,-15846,-753,-123,-96,-120
1,724,191962,-980,-15845,-718,-121,-35,-125
1,725,191967,-1001,-15882,-664,-118,19,-128
1,726,191972,-1001,-15878,-572,-113,55,-129
1,727,191977,-1118,-15900,-469,-115,81,-131
1,728,191982,-1259,-15965,-396,-111,96,-131
1,729,191987,-1273,-15982,-345,-107,98,-136
1,730,191992,-1285,-15953,-276,-106,84,-142
1,731,191997,-1235,-15878,-128,-108,50,-144
1,732,192002,-1236,-15847,-17,-105,-8,-146
1,733,192007,-1296,-15899,-30,-100,-68,-147
1,734,192012,-1214,-15922,-183,-100,-115,-150
1,735,192017,-1124,-15939,-405,-98,-145,-152
1,736,192022,-1097,-15966,-552,-96,-163,-154
1,737,192027,-1063,-15987,-744,-99,-170,-158
1,738,192032,-946,-16057,-936,-96,-169,-158
1,739,192037,-858,-16110,-1029,-95,-158,-160
1,740,192042,-779,-16138,-976,-91,-136,-160
1,741,192047,-708,-16174,-810,-88,-103,-158
1,742,192052,-700,-16233,-654,-85,-70,-159
1,743,192057,-678,-16189,-615,-85,-39,-161
1,744,192062,-624,-16155,-675,-86,-5,-165
1,745,192067,-543,-16106,-702,-84,27,-164
1,746,192072,-496,-16051,-724,-84,61,-159
1,747,192077,-489,-16016,-708,-87,86,-159
1,748,192082,-586,-16035,-782,-87,107,-162
1,749,192087,-703,-16187,-1068,-79,131,-161
1,750,192092,-736,-16276,-1218,-74,158,-163
1,751,192097,-669,-16305,-1169,-78,170,-163
1,752,192102,-620,-16261,-760,-76,162,-163
1,753,192107,-635,-16233,-416,-73,131,-164
1,754,192112,-718,-16222,-408,-70,93,-166
1,755,192117,-745,-16264,-692,-70,67,-163
1,756,192122,-771,-16360,-913,-68,56,-161
1,757,192127,-701,-16284,-871,-67,43,-163
1,758,192132,-622,-16312,-865,-69,17,-158
1,759,192137,-588,-16276,-665,-69,-16,-158
1,760,192142,-656,-16250,-703,-68,-48,-158
1,761,192147,-713,-16227,-828,-64,-63,-158
1,762,192152,-631,-16230,-900,-62,-66,-158
1,763,192157,-542,-16179,-880,-63,-75,-155
1,764,192162,-445,-16130,-727,-64,-85,-154
1,765,192167,-474,-16102,-797,-63,-95,-156
1,766,192172,-610,-16136,-961,-60,-85,-156
1,767,192177,-804,-16164,-1062,-61,-60,-157
1,768,192182,-768,-16156,-1038,-61,-34,-158
1,769,192187,-656,-16139,-788,-62,-20,-155
1,770,192192,-607,-16184,-595,-62,-27,-154
1,771,192197,-624,-16304,-638,-61,-42,-155
1,772,192202,-713,-16385,-702,-60,-68,-152
1,773,192207,-725,-16425,-609,-61,-112,-149
1,774,192212,-670,-16323,-328,-63,-169,-150
1,775,192217,-6655,-24637,2538,-24,-230,-160
1,776,192222,4769,-24140,-2779,352,52,-183
1,777,192227,6620,-8405,-31327,-97,-108,-134
1,778,192232,-5504,-23949,14243,-368,1463,-96
1,779,192237,-3748,-15231,-1534,-2,-280,-30
1,780,192242,-772,-16432,14636,-147,393,-69
1,781,192247,-2414,-15435,5164,-55,-337,-99
1,782,192252,-4023,-14695,-4749,21,-485,-109
1,783,192257,-2386,-15125,-1433,-101,-339,-63
1,784,192262,214,-15340,1548,-117,-530,-35
1,785,192267,1483,-18058,-106,-69,-877,-30
1,786,192272,1571,-17955,-4016,-5,-682,-69
1,787,192277,-1372,-15496,-7113,-61,-314,-93
1,788,192282,-4571,-17007,632,-101,-85,-83
1,789,192287,-2572,-16417,-2211,-71,-412,-38
1,790,192292,1613,-16239,-2276,-95,-277,-19
1,791,192297,1706,-16476,2508,-102,-74,-48
1,792,192302,-451,-16251,603,-69,-281,-86
1,793,192307,-3149,-16087,-1993,-36,-440,-100
1,794,192312,-3101,-16350,-740,-51,-380,-86
1,795,192317,-967,-16072,-2126,-61,-337,-65
1,796,192322,701,-16602,-1010,-62,-172,-56
1,797,192327,288,-16555,657,-85,-114,-78
1,798,192332,-865,-16510,339,-81,-253,-95
1,799,192337,-2320,-16147,-712,-66,-393,-109
1,800,192342,-2064,-16080,-2107,-66,-383,-98
1,801,192347,-1183,-16195,-1554,-71,-204,-84
1,802,192352,-274,-16457,-122,-79,-89,-86
1,803,192357,-112,-16513,-49,-76,-136,-98
1,804,192362,-614,-16447,-175,-73,-246,-113
1,805,192367,-1081,-16308,-1268,-74,-333,-113
1,806,192372,-1189,-16311,-1632,-81,-291,-105
1,807,192377,-1133,-16308,-929,-92,-207,-97
1,808,192382,-999,-16459,85,-98,-193,-105
1,809,192387,-896,-16112,-531,-94,-262,-113
1,810,192392,-889,-16372,-879,-96,-316,-113
1,811,192397,-935,-16421,-1392,-91,-347,-115
1,812,192402,-728,-16463,-1929,-93,-353,-107
1,813,192407,-551,-16503,-1236,-101,-347,-103
1,814,192412,-160,-16565,-908,-101,-399,-103
1,815,192417,-97,-16108,-1238,-104,-459,-103
1,816,192422,-239,-16541,-370,-111,-487,-100
1,817,192427,-573,-15941,-1082,-107,-524,-100
1,818,192432,-774,-16444,-312,-112,-507,-97
1,819,192437,-869,-16203,-1067,-106,-524,-99
1,820,192442,-361,-16176,-1819,-109,-506,-95
1,821,192447,-606,-16579,-713,-108,-474,-97
1,822,192452,-453,-16499,-786,-109,-513,-99
1,823,192457,-638,-16050,-1836,-112,-537,-101
1,824,192462,-679,-16362,-1302,-109,-523,-102
1,825,192467,-518,-16412,-1603,-105,-555,-99
1,826,192472,-40,-16593,-1566,-111,-558,-96
1,827,192477,6,-16434,-1127,-116,-568,-96
1,828,192482,785,-16382,-371,-120,-600,-92
1,829,192487,160,-16092,-943,-125,-640,-80
1,830,192492,155,-16470,-1249,-124,-665,-86
1,831,192497,-981,-16204,-537,-120,-683,-96
1,832,192502,-1154,-16369,-2039,-125,-745,-78
1,833,192507,-81,-16107,-3130,-122,-709,-72
1,834,192512,2987,-16261,-1805,-137,-658,-58
1,835,192517,4539,-16491,-3813,-110,-716,-41
1,836,192522,4957,-17245,-2217,-102,-722,-31
1,837,192527,3062,-17880,1483,-118,-813,-34
1,838,192532,1886,-16187,-5421,-115,-1027,-14
1,839,192537,136,-15766,-3269,-127,-764,-25
1,840,192542,-945,-16521,-2220,-115,-631,12
1,841,192547,-99,-16082,-4270,-101,-539,5
1,842,192552,414,-16921,-2211,-95,-363,0
1,843,192557,1523,-16482,-2793,-85,-331,4
1,844,192562,-45,-17422,-315,-82,-247,-14
1,845,192567,-1599,-16127,26,-83,-244,-65
1,846,192572,-2941,-15043,-1082,-89,-166,-57
1,847,192577,-2740,-15346,325,-71,54,-56
1,848,192582,-1230,-16251,-336,-60,236,-50
1,849,192587,-308,-16738,7,-73,442,-77
1,850,192592,-760,-16593,45,-88,526,-109
1,851,192597,-1633,-16055,-1425,-78,516,-135
1,852,192602,-1892,-16144,-2919,-62,575,-139
1,853,192607,-1262,-16287,-3573,-57,747,-143
1,854,192612,-187,-16821,-3023,-63,1029,-161
1,855,192617,-461,-16670,-3169,-58,1032,-183
1,856,192622,-749,-16499,-3667,-46,1010,-193
1,857,192627,-652,-16503,-4022,-37,1054,-190
1,858,192632,-394,-16484,-3461,-38,1150,-187
1,859,192637,-343,-16641,-2153,-34,1210,-189
1,860,192642,-458,-16448,-1290,-30,1178,-199
1,861,192647,-779,-16207,-917,-27,1107,-210
1,862,192652,-1043,-16127,-1409,-24,1057,-209
1,863,192657,-1098,-16259,-1475,-20,1069,-204
1,864,192662,-1037,-16388,-1144,-28,1086,-202
1,865,192667,-847,-16405,-726,-36,1057,-202
1,866,192672,-700,-16607,-502,-40,979,-208
1,867,192677,6256,-18123,388,-52,897,-224
1,868,192682,376,-15410,1646,-109,684,-278
1,869,192687,-5930,-17094,1376,-120,114,-219
1,870,192692,-3407,-16460,-3248,-54,-266,-133
1,871,192697,869,-15598,-2819,-78,-33,-79
1,872,192702,2679,-15880,2422,-128,213,-89
1,873,192707,1481,-15911,3576,-113,-14,-125
1,874,192712,88,-16148,547,-76,-423,-136
1,875,192717,1748,-16138,-9993,-52,-640,-120
1,876,192722,4771,-17351,-19448,-14,-438,-74
1,877,192727,4083,-19620,-7545,-21,-86,-45
1,878,192732,-246,-17412,4974,-112,-427,-77
1,879,192737,-3830,-12792,4784,-87,-983,-87
1,880,192742,-745,-14186,3397,42,-832,-79
1,881,192747,2621,-16184,-4145,74,-358,-86
1,882,192752,2436,-17897,-9719,-13,91,-89
1,883,192757,675,-18484,-5677,-54,155,-102
1,884,192762,-133,-17306,296,-57,-277,-70
1,885,192767,39,-14558,1487,-46,-614,-54
1,886,192772,1733,-14553,-416,2,-467,-50
1,887,192777,2472,-15746,-2343,41,-2,-75
1,888,192782,1533,-17555,-5084,15,244,-86
1,889,192787,-88,-17875,-4402,-28,189,-104
1,890,192792,-550,-16916,-2299,-54,-67,-85
1,891,192797,41,-15414,-940,-48,-146,-59
1,892,192802,1020,-15021,-782,-18,64,-56
1,893,192807,1574,-15994,-1956,15,356,-71
1,894,192812,1291,-17112,-3566,20,478,-97
1,895,192817,609,-17341,-3904,-1,397,-109
1,896,192822,87,-16679,-2862,-28,260,-90
1,897,192827,143,-15755,-1976,-34,258,-69
1,898,192832,718,-15649,-1240,-13,434,-62
1,899,192837,1389,-16254,-1518,11,606,-80
1,900,192842,1319,-16640,-2658,13,671,-107
1,901,192847,943,-16766,-3001,1,637,-111
1,902,192852,539,-16584,-2165,-7,588,-89
1,903,192857,326,-16112,-1702,-12,579,-74
1,904,192862,470,-16049,-1106,-7,647,-74
1,905,192867,563,-16295,-1237,3,721,-89
1,906,192872,673,-16384,-2413,1,759,-102
1,907,192877,360,-16494,-1931,1,761,-98
1,908,192882,239,-16670,-1423,-3,711,-90
1,909,192887,-203,-16185,-1333,-11,660,-83
1,910,192892,-321,-16195,-842,-5,658,-82
1,911,192897,-323,-16274,-982,5,667,-95
1,912,192902,-562,-16293,-1134,3,671,-102
1,913,192907,-643,-16546,-862,0,633,-100
1,914,192912,-881,-16459,-654,-7,538,-97
1,915,192917,-1112,-16399,-61,-9,442,-98
1,916,192922,-1248,-16212,545,-13,359,-100
1,917,192927,-1183,-16044,397,-15,286,-103
1,918,192932,-1225,-16231,602,-13,221,-106
1,919,192937,-1179,-16471,679,-16,104,-110
1,920,192942,-985,-16308,-24,-25,-53,-108
1,921,192947,-600,-16312,-220,-26,-185,-97
1,922,192952,-127,-16415,-404,-31,-318,-94
1,923,192957,-216,-16568,293,-36,-443,-93
1,924,192962,-312,-15951,536,-49,-615,-93
1,925,192967,-186,-15979,717,-42,-774,-81
1,926,192972,247,-16308,395,-37,-888,-78
1,927,192977,261,-15993,-19,-47,-1116,-118
1,928,192982,7,-15785,-59,-54,-1243,-101
1,929,192987,-475,-17043,-717,-45,-1398,-67
1,930,192992,224,-16203,-2514,-50,-1484,-108
1,931,192997,802,-15927,-1190,-75,-1408,-109
1,932,193002,463,-17190,-890,-85,-1449,-62
1,933,193007,411,-17105,-1393,-108,-1528,-100
1,934,193012,-2689,-15470,1151,-131,-1483,-122
1,935,193017,216,-14418,-1864,-142,-1551,-107
1,936,193022,3021,-16254,-3706,-54,-1206,-66
1,937,193027,3252,-17209,-2789,-84,-904,-109
1,938,193032,2214,-17172,-1130,-155,-823,-160
1,939,193037,1859,-15273,-5439,-158,-1000,-143
1,940,193042,9012,-13514,-27932,-64,-1013,-59
1,941,193047,9699,-21168,-10487,70,-78,17
1,942,193052,5219,-21426,5144,-100,-168,-144
1,943,193057,-5131,-10738,-1778,-204,-1055,-152
1,944,193062,-991,-13945,675,52,-720,-28
1,945,193067,4164,-16413,-3285,113,-87,-30
1,946,193072,4182,-17094,-8800,-23,603,-85
1,947,193077,2069,-17205,-8669,-1,899,-73
1,948,193082,1873,-18479,-2027,-19,692,-31
1,949,193087,563,-15594,-366,-60,381,-55
1,950,193092,11,-14362,-2168,-29,407,-64
1,951,193097,466,-16095,-1921,52,867,-67
1,952,193102,-10,-16693,-5858,34,1231,-74
1,953,193107,-204,-17557,-4569,3,1463,-100
1,954,193112,362,-17300,-1846,-13,1274,-95
1,955,193117,1059,-15687,-2137,-40,1073,-80
1,956,193122,1242,-15197,-611,-19,1180,-83
1,957,193127,1001,-15927,-968,27,1342,-89
1,958,193132,370,-16681,-3344,39,1442,-104
1,959,193137,110,-17084,-2750,26,1462,-111
1,960,193142,530,-16618,-1603,-5,1289,-87
1,961,193147,1313,-15918,-955,-16,1143,-56
1,962,193152,1539,-15683,33,-9,1137,-41
1,963,193157,1235,-15772,-505,3,1135,-58
1,964,193162,785,-16593,-867,19,1102,-82
1,965,193167,283,-16801,-2173,14,988,-74
1,966,193172,571,-16442,-2033,-3,904,-63
1,967,193177,1109,-16082,-497,-4,819,-41
1,968,193182,1426,-16105,-99,0,717,-22
1,969,193187,954,-16156,-787,8,658,-32
1,970,193192,1442,-16039,-1800,6,623,-47
1,971,193197,1615,-16706,-975,16,617,-41
1,972,193202,1206,-16310,-1945,2,527,-34
1,973,193207,1059,-16316,-1008,-8,470,-27
1,974,193212,985,-16176,-354,2,370,-12
1,975,193217,1109,-16068,-1037,1,294,-4
1,976,193222,1273,-16302,-1211,8,273,-2
1,977,193227,1274,-16492,-1035,10,232,-9
1,978,193232,1020,-16421,-1063,3,149,-4
1,979,193237,552,-16439,-1154,-3,40,4
1,985,193267,1005,-16442,-1482,4,-320,14
1,986,193272,856,-16377,-1637,-2,-363,25
1,987,193277,692,-16072,-1456,-3,-374,31
1,988,193282,786,-16268,-804,2,-393,30
1,989,193287,832,-16251,-1176,3,-446,30
1,990,193292,914,-16558,-1749,2,-484,33
1,991,193297,-52,-16461,-3059,5,-522,27
1,992,193302,201,-16228,-2232,-7,-516,29
1,993,193307,1797,-16865,-452,-15,-491,32
1,994,193312,1153,-14948,-2558,-7,-501,39
