event_id,seq,ts_ms,ax,ay,az,gx,gy,gz
4,0,349882,368,-16304,-1517,13,-369,1
4,1,349887,471,-16294,-1749,18,-425,2
4,2,349892,680,-16280,-1978,27,-474,8
4,3,349897,1043,-16324,-2177,33,-512,11
4,4,349902,1254,-16327,-2277,32,-535,10
4,5,349907,380,-16349,-2043,40,-545,14
4,6,349912,944,-16271,-4898,55,-504,34
4,7,349917,3271,-16392,-6169,33,-244,23
4,8,349922,2184,-16456,-3201,-8,22,-22
4,9,349927,858,-16283,-3273,-11,55,-38
4,10,349932,-714,-16449,-1159,-2,25,-26
4,11,349937,332,-16422,-2197,19,-89,-3
4,12,349942,1782,-16300,-2896,8,-77,-6
4,13,349947,1371,-16112,-1799,-5,11,-21
4,14,349952,430,-16125,-1149,1,28,-27
4,15,349957,427,-16469,-1905,15,-28,-21
4,16,349962,865,-16518,-2669,21,-57,-15
4,17,349967,1032,-16341,-2832,11,-41,-17
4,18,349972,931,-16273,-2184,-4,3,-26
4,19,349977,790,-16228,-1628,-4,10,-23
4,20,349982,808,-16287,-1661,6,-16,-22
4,21,349987,850,-16323,-1999,10,-40,-23
4,22,349992,840,-16321,-2386,9,-42,-20
4,23,349997,856,-16339,-2268,6,-20,-18
4,24,350002,827,-16315,-1935,5,-10,-16
4,25,350007,854,-16273,-1720,7,-29,-13
4,26,350012,1033,-16279,-1850,15,-62,-11
4,27,350017,1115,-16241,-1925,16,-74,-12
4,28,350022,1054,-16244,-2041,13,-63,-12
4,29,350027,1070,-16280,-2201,12,-48,-10
4,30,350032,1135,-16318,-2105,12,-31,-11
4,31,350037,1110,-16281,-2046,9,-27,-9
4,32,350042,1057,-16254,-2030,8,-24,-8
4,33,350047,1068,-16242,-2033,9,-16,-12
4,34,350052,1100,-16254,-1948,7,-6,-13
4,35,350057,999,-16276,-1845,6,-3,-8
4,36,350062,940,-16246,-1844,8,-10,-10
4,37,350067,1070,-16262,-1967,8,-12,-9
4,38,350072,1065,-16300,-1951,7,-11,-5
4,39,350077,915,-16223,-1913,8,-12,-5
4,40,350082,913,-16267,-2043,3,-15,-6
4,41,350087,999,-16318,-2148,3,-10,-3
4,42,350092,999,-16335,-2110,4,-4,-2
4,43,350097,881,-16308,-2033,1,-2,-4
4,44,350102,772,-16255,-2006,-1,1,-5
4,45,350107,846,-16269,-1959,1,4,-5
4,46,350112,1066,-16328,-2028,-2,9,-5
4,47,350117,1031,-16210,-1910,-3,15,-7
4,48,350122,877,-16277,-1752,-1,12,-6
4,49,350127,848,-16294,-1998,-1,-4,-4
4,50,350132,944,-16312,-2055,2,0,-2
4,51,350137,935,-16297,-2020,-2,5,-7
4,52,350142,915,-16261,-1913,-3,8,-4
4,53,350147,941,-16292,-1838,-2,3,-5
4,54,350152,989,-16283,-1996,1,-3,-4
4,55,350157,953,-16329,-2011,-2,-6,-2
4,56,350162,1000,-16288,-2167,-1,-5,0
4,57,350167,1210,-16353,-2141,-2,-1,3
4,58,350172,1103,-16230,-2007,-4,-1,0
4,59,350177,975,-16210,-1729,-2,-11,-2
4,60,350182,838,-16271,-1753,0,-17,2
4,61,350187,952,-16257,-1945,1,-17,3
4,62,350192,1058,-16282,-2188,1,-12,2
4,63,350197,957,-16350,-2210,1,-7,0
4,64,350202,847,-16348,-2067,-1,-11,2
4,65,350207,863,-16278,-2161,1,-23,6
4,66,350212,1145,-16327,-2079,-2,-15,8
4,67,350217,1201,-16246,-2008,-9,-4,4
4,68,350222,1069,-16212,-1890,-3,-6,2
4,69,350227,938,-16304,-1935,-1,-16,7
4,70,350232,825,-16384,-2059,1,-27,11
4,71,350237,603,-16373,-1975,-2,-28,6
4,72,350242,453,-16288,-1821,-10,-26,4
4,73,350247,494,-16239,-1740,-8,-20,1
4,74,350252,723,-16251,-2019,-3,-17,2
4,75,350257,892,-16362,-2296,-4,-13,3
4,76,350262,739,-16385,-2340,-3,-8,2
4,77,350267,590,-16356,-2180,-4,-16,-3
4,78,350272,705,-16302,-2157,-5,-22,-1
4,79,350277,984,-16268,-2146,-1,-20,0
4,80,350282,1069,-16276,-2107,-3,-10,-1
4,81,350287,896,-16306,-2039,-1,-8,-1
4,82,350292,759,-16314,-2093,0,-18,-4
4,83,350297,865,-16340,-2207,1,-22,1
4,84,350302,964,-16324,-2210,-2,-16,2
4,85,350307,904,-16265,-2000,-4,-5,-1
4,86,350312,788,-16276,-1802,-4,-5,-4
4,87,350317,796,-16279,-1939,0,-15,-1
4,88,350322,948,-16313,-2130,0,-13,-3
4,89,350327,971,-16309,-2211,-2,-8,0
4,90,350332,906,-16286,-2208,-5,-3,-2
4,91,350337,882,-16290,-2048,-3,-2,-2
4,92,350342,888,-16304,-1979,-3,-9,1
4,93,350347,870,-16316,-1987,-3,-7,-3
4,94,350352,802,-16308,-2024,-2,-2,-2
4,95,350357,728,-16301,-2039,-4,-1,-2
4,96,350362,760,-16297,-1980,-6,2,-2
4,97,350367,800,-16313,-2013,-5,2,-2
4,98,350372,730,-16291,-2106,-4,3,-5
4,99,350377,702,-16330,-2131,-3,-1,-4
4,100,350382,712,-16353,-2098,-3,2,-5
4,101,350387,742,-16316,-2053,-3,3,-8
4,102,350392,778,-16307,-2099,-4,-1,-8
4,103,350397,817,-16323,-2066,-5,1,-6
4,104,350402,782,-16319,-2051,-3,3,-8
4,105,350407,742,-16312,-2050,-4,3,-9
4,106,350412,821,-16284,-2109,-5,1,-9
4,107,350417,903,-16299,-2018,-4,4,-10
4,108,350422,856,-16315,-1939,-5,0,-11
4,109,350427,838,-16324,-1895,-6,1,-11
4,110,350432,798,-16307,-1952,-5,-3,-12
4,111,350437,858,-16321,-2042,-4,-4,-11
4,112,350442,878,-16328,-2113,-5,-1,-11
4,113,350447,891,-16295,-2057,-6,1,-12
4,114,350452,798,-16316,-1946,-5,0,-10
4,115,350457,721,-16303,-1878,-7,-7,-11
4,116,350462,724,-16294,-1836,-8,-11,-13
4,117,350467,679,-16285,-1769,-6,-13,-13
4,118,350472,595,-16322,-1652,-8,-15,-14
4,119,350477,420,-16328,-1481,-10,-26,-16
4,120,350482,367,-16333,-1521,-13,-53,-15
4,121,350487,464,-16313,-1502,-11,-78,-16
4,122,350492,469,-16331,-1498,-12,-100,-13
4,123,350497,479,-16286,-1621,-8,-121,-13
4,124,350502,495,-16313,-1763,-9,-136,-14
4,125,350507,636,-16326,-2019,-10,-140,-19
4,126,350512,772,-16328,-2192,-10,-136,-19
4,127,350517,724,-16341,-2175,-13,-128,-21
4,128,350522,677,-16371,-2193,-16,-121,-27
4,129,350527,566,-16326,-2117,-13,-112,-28
4,130,350532,556,-16322,-2260,-17,-84,-31
4,131,350537,746,-16337,-2484,-19,-59,-27
4,132,350542,988,-16363,-2475,-18,-31,-27
4,133,350547,1160,-16363,-2371,-19,-9,-28
4,134,350552,1007,-16337,-2293,-21,-2,-34
4,135,350557,738,-16357,-2204,-24,-6,-35
4,136,350562,514,-16359,-2192,-23,-8,-36
4,137,350567,524,-16349,-2291,-26,5,-35
4,138,350572,668,-16326,-2205,-28,27,-33
4,139,350577,861,-16310,-2201,-28,35,-36
4,140,350582,998,-16284,-2261,-29,29,-31
4,141,350587,1172,-16275,-2297,-26,14,-29
4,142,350592,1358,-16275,-2504,-21,-2,-26
4,143,350597,1387,-16272,-2630,-18,-9,-18
4,144,350602,1305,-16307,-2648,-20,-11,-20
4,145,350607,1121,-16300,-2646,-19,-18,-20
4,146,350612,1002,-16302,-2778,-15,-22,-17
4,147,350617,1069,-16299,-2930,-11,-10,-14
4,148,350622,1158,-16286,-2917,-14,15,-16
4,149,350627,1301,-16293,-2743,-13,30,-18
4,150,350632,1390,-16253,-2624,-9,32,-17
4,151,350637,1328,-16228,-2534,-4,13,-14
4,152,350642,1101,-16273,-2378,1,-13,-15
4,153,350647,712,-16312,-2383,4,-40,-18
4,154,350652,414,-16332,-2560,8,-60,-17
4,155,350657,352,-16358,-2608,15,-56,-15
4,156,350662,514,-16368,-2597,13,-40,-17
4,157,350667,685,-16329,-2554,13,-23,-20
4,158,350672,845,-16360,-2367,11,-9,-22
4,159,350677,948,-16351,-2311,11,-3,-23
4,160,350682,946,-16314,-2541,12,4,-21
4,161,350687,1012,-16282,-2535,9,32,-23
4,162,350692,1180,-16251,-2580,6,60,-23
4,163,350697,1265,-16237,-2542,6,90,-25
4,164,350702,1410,-16297,-2276,6,109,-23
4,165,350707,1414,-16297,-2183,8,112,-26
4,166,350712,1281,-16471,-2109,4,103,-28
4,167,350717,1124,-16445,-1212,-2,91,-29
4,168,350722,1071,-16914,-761,13,46,-28
4,169,350727,936,-17090,-708,23,3,-32
4,170,350732,809,-17299,-1212,33,-56,-31
4,171,350737,758,-17281,-1196,30,-118,-31
4,172,350742,874,-17414,-1185,28,-186,-34
4,173,350747,936,-17563,-915,27,-225,-35
4,174,350752,1091,-17731,-1300,35,-241,-35
4,175,350757,1081,-17825,-1972,38,-224,-38
4,176,350762,1136,-17947,-2378,32,-182,-41
4,177,350767,1223,-17928,-2421,20,-136,-47
4,178,350772,1229,-17976,-2160,13,-92,-54
4,179,350777,1067,-18007,-2066,9,-48,-56
4,180,350782,962,-17967,-2167,7,7,-61
4,181,350787,1035,-17947,-2299,3,62,-64
4,182,350792,1272,-17831,-2147,-7,104,-67
4,183,350797,1497,-17715,-1792,-13,119,-68
4,184,350802,1643,-17553,-1408,-16,110,-71
4,185,350807,1545,-17323,-1229,-13,74,-74
4,186,350812,1399,-17183,-1309,-9,29,-72
4,187,350817,1513,-17025,-1462,-9,-27,-68
4,188,350822,1551,-16861,-1280,-12,-94,-65
4,189,350827,1667,-16739,-1285,-10,-174,-67
4,190,350832,1598,-16634,-1564,-6,-246,-70
4,191,350837,1449,-16513,-2010,-2,-297,-70
4,192,350842,1383,-16313,-2452,-4,-314,-69
4,193,350847,1638,-16126,-2720,-7,-297,-66
4,194,350852,1806,-16053,-2620,-13,-270,-64
4,195,350857,1763,-16001,-2483,-17,-250,-65
4,196,350862,1536,-15994,-2447,-17,-228,-71
4,197,350867,1323,-16006,-2536,-21,-203,-68
4,198,350872,1193,-15969,-2630,-22,-164,-67
4,199,350877,1204,-15913,-2686,-28,-112,-74
4,200,350882,1231,-15852,-2628,-34,-68,-73
4,201,350887,1328,-15856,-2576,-38,-40,-74
4,202,350892,1428,-15867,-2423,-41,-16,-74
4,203,350897,1496,-15755,-2182,-41,1,-76
4,204,350902,1463,-15684,-1709,-44,-8,-76
4,205,350907,1523,-15658,-1507,-44,-45,-69
4,206,350912,1674,-15630,-1321,-43,-100,-66
4,207,350917,1766,-15546,-1092,-43,-163,-63
4,208,350922,1587,-15485,-1023,-40,-231,-61
4,209,350927,1375,-15475,-1253,-35,-303,-59
4,210,350932,1385,-15430,-1552,-32,-368,-52
4,211,350937,1564,-15343,-1708,-36,-414,-46
4,212,350942,1549,-15315,-1772,-38,-440,-40
4,213,350947,1512,-15341,-1818,-34,-456,-41
4,214,350952,1133,-15316,-2003,-33,-456,-42
4,215,350957,698,-15375,-2582,-36,-428,-42
4,216,350962,600,-15233,-2832,-42,-353,-45
4,217,350967,472,-15384,-2886,-49,-235,-45
4,218,350972,794,-15965,-4103,-47,-124,-43
4,219,350977,1232,-16015,-3810,-55,21,-45
4,220,350982,1447,-15747,-3112,-67,106,-48
4,221,350987,1175,-15500,-2756,-67,128,-59
4,222,350992,776,-15352,-2200,-67,134,-61
4,223,350997,617,-15291,-2178,-56,121,-53
4,224,351002,870,-15235,-2309,-54,107,-49
4,225,351007,1003,-15282,-1921,-52,89,-48
4,226,351012,1021,-15460,-1622,-47,27,-45
4,227,351017,943,-15608,-1556,-38,-69,-45
4,228,351022,908,-15644,-1704,-29,-157,-42
4,229,351027,871,-15644,-1992,-24,-217,-39
4,230,351032,944,-15722,-2266,-24,-238,-35
4,231,351037,894,-15856,-2345,-22,-240,-35
4,232,351042,852,-16041,-2491,-19,-245,-34
4,233,351047,765,-16151,-2679,-18,-242,-33
4,234,351052,776,-16153,-2860,-19,-210,-35
4,235,351057,797,-16123,-3052,-19,-152,-35
4,236,351062,850,-16099,-3208,-15,-81,-37
4,237,351067,895,-16077,-3218,-20,-14,-34
4,238,351072,917,-16008,-3132,-18,33,-36
4,239,351077,920,-15965,-2938,-19,66,-37
4,240,351082,853,-15958,-2684,-16,89,-36
4,241,351087,917,-16018,-2468,-13,111,-35
4,242,351092,941,-16062,-2259,-10,121,-33
4,243,351097,943,-16110,-2166,-10,110,-32
4,244,351102,934,-16120,-2082,-7,79,-29
4,245,351107,919,-16152,-2020,-2,39,-28
4,246,351112,934,-16235,-1949,-1,6,-23
4,247,351117,960,-16313,-1929,1,-20,-22
4,248,351122,896,-16378,-1904,1,-40,-23
4,249,351127,823,-16418,-2011,3,-65,-20
4,250,351132,768,-16463,-2193,3,-84,-19
4,251,351137,855,-16446,-2332,8,-97,-13
4,252,351142,939,-16394,-2406,7,-91,-10
4,253,351147,1000,-16361,-2490,6,-66,-12
4,254,351152,986,-16382,-2614,9,-42,-14
4,255,351157,905,-16414,-2715,10,-18,-11
4,256,351162,814,-16310,-2715,9,5,-11
4,257,351167,752,-16297,-2688,8,31,-10
4,258,351172,735,-16282,-2594,4,60,-10
4,259,351177,805,-16240,-2571,6,86,-9
4,260,351182,923,-16249,-2563,9,105,-9
4,261,351187,1060,-16194,-2456,10,115,-10
4,262,351192,1071,-16122,-2343,11,112,-8
4,263,351197,997,-16046,-2205,10,102,-7
4,264,351202,955,-16059,-2118,11,88,-5
4,265,351207,965,-16075,-2121,17,71,0
4,266,351212,1058,-16051,-2134,15,58,-1
4,267,351217,1163,-15994,-2030,10,45,0
4,268,351222,1173,-16017,-2013,12,27,3
4,269,351227,1199,-16088,-2000,15,6,3
4,270,351232,1316,-16015,-2130,16,-9,6
4,271,351237,1308,-15955,-2208,15,-15,9
4,272,351242,1252,-15991,-2152,16,-19,12
4,273,351247,1149,-16076,-2133,15,-32,15
4,274,351252,1065,-16104,-2170,12,-44,17
4,275,351257,1075,-16065,-2233,13,-47,17
4,276,351262,1164,-16069,-2397,14,-34,20
4,277,351267,1199,-16023,-2448,14,2,20
4,278,351272,1179,-16039,-2444,13,6,23
4,279,351277,1065,-16093,-2337,10,7,23
4,280,351282,973,-16133,-2219,9,11,25
4,281,351287,975,-16238,-2180,9,17,25
4,282,351292,997,-16281,-2175,9,29,25
4,283,351297,1036,-16321,-2086,7,28,26
4,284,351302,1175,-16330,-2071,7,28,28
4,285,351307,1206,-16338,-2114,3,30,26
4,286,351312,1235,-16315,-2134,1,23,25
4,287,351317,1189,-16352,-2036,1,16,29
4,288,351322,1171,-16328,-1997,3,9,30
4,289,351327,1123,-16304,-1994,2,2,28
4,290,351332,1078,-16336,-2034,1,-13,28
4,291,351337,1056,-16352,-2120,1,-19,27
4,292,351342,1081,-16316,-2227,0,-26,28
4,293,351347,964,-16262,-2290,0,-26,28
4,294,351352,1173,-16305,-2460,0,-25,28
4,295,351357,1177,-16394,-2317,-3,-13,31
4,296,351362,1272,-16525,-2282,-4,-1,28
4,297,351367,1030,-16544,-2296,-4,5,24
4,298,351372,787,-16505,-2362,-3,16,23
4,299,351377,834,-16420,-2489,-7,36,22
4,300,351382,1040,-16434,-2407,-6,62,25
4,301,351387,1195,-16366,-2247,-11,79,22
4,302,351392,1192,-16328,-2146,-12,83,20
4,303,351397,1092,-16277,-2063,-9,69,18
4,304,351402,1128,-16187,-2156,-8,51,17
4,305,351407,1224,-16127,-2145,-9,43,20
4,306,351412,1284,-16119,-2015,-6,34,17
4,307,351417,1306,-16133,-1906,-6,11,15
4,308,351422,1218,-16178,-1897,-9,-23,16
4,309,351427,1063,-16209,-1954,-8,-62,17
4,310,351432,966,-16188,-2137,-3,-88,17
4,311,351437,995,-16189,-2267,-4,-90,16
4,312,351442,1081,-16198,-2357,-3,-84,13
4,313,351447,1153,-16237,-2444,-5,-73,13
4,314,351452,1112,-16202,-2502,-4,-66,9
4,315,351457,1019,-16178,-2526,-6,-53,7
4,316,351462,932,-16176,-2570,-6,-34,6
4,317,351467,936,-16166,-2533,-5,-10,2
4,318,351472,1031,-16154,-2425,-6,7,0
4,319,351477,1027,-16156,-2307,-5,11,-2
4,320,351482,1026,-16127,-2202,-4,4,-4
4,321,351487,1032,-16131,-2246,-3,-4,-6
4,322,351492,945,-16075,-2244,-3,-10,-6
4,323,351497,953,-16048,-2243,-2,-15,-8
4,324,351502,1048,-16096,-2214,-7,-19,-9
4,325,351507,1185,-16120,-2178,-6,-21,-13
4,326,351512,1293,-16097,-2093,-3,-25,-12
4,327,351517,1343,-16065,-2093,-3,-36,-11
4,328,351522,1262,-16103,-2048,-2,-48,-13
4,329,351527,1162,-16182,-2031,-4,-67,-15
4,330,351532,1076,-16186,-1958,-3,-86,-16
4,331,351537,1077,-16182,-1996,-2,-98,-16
4,332,351542,1120,-16206,-2125,-1,-104,-19
4,333,351547,1083,-16269,-2327,-3,-96,-20
4,334,351552,1053,-16278,-2458,-4,-87,-19
4,335,351557,1031,-16261,-2558,-2,-76,-22
4,336,351562,1076,-16214,-2539,-1,-54,-23
4,337,351567,1125,-16214,-2468,-2,-24,-23
4,338,351572,1112,-16259,-2493,-4,3,-27
4,339,351577,1058,-16293,-2379,-6,21,-29
4,340,351582,1069,-16262,-2301,-6,28,-29
4,341,351587,1087,-16234,-2183,-8,30,-28
4,342,351592,1165,-16291,-2129,-8,28,-27
4,343,351597,1302,-16297,-2087,-9,28,-31
4,344,351602,1370,-16286,-2023,-6,20,-31
4,345,351607,1480,-16278,-2055,-3,4,-29
4,346,351612,1465,-16295,-2129,-5,-15,-28
4,347,351617,1431,-16273,-2097,-4,-29,-26
4,348,351622,1403,-16318,-2074,-7,-40,-26
4,349,351627,1382,-16317,-2119,-5,-55,-21
4,350,351632,1303,-16300,-2120,-2,-68,-21
4,351,351637,1192,-16383,-2263,0,-84,-21
4,352,351642,1070,-16492,-2354,-4,-80,-20
4,353,351647,1009,-16504,-2459,-5,-69,-20
4,354,351652,979,-16443,-2518,-1,-53,-21
4,355,351657,1053,-16417,-2578,-3,-26,-24
4,356,351662,1090,-16448,-2668,-5,5,-23
4,357,351667,1113,-16415,-2668,-7,36,-24
4,358,351672,1153,-16367,-2512,-6,54,-24
4,359,351677,1107,-16326,-2380,-7,63,-25
4,360,351682,1007,-16324,-2254,-7,65,-27
4,361,351687,996,-16299,-2218,-6,59,-27
4,362,351692,1099,-16280,-2196,-4,45,-25
4,363,351697,1168,-16292,-2136,-2,34,-25
4,364,351702,1191,-16252,-2153,-2,15,-26
4,365,351707,1239,-16232,-2147,-1,-7,-25
4,366,351712,1251,-16230,-2107,-2,-25,-23
4,367,351717,1148,-16270,-2059,0,-46,-23
4,368,351722,1084,-16302,-2134,1,-64,-21
4,369,351727,1061,-16246,-2282,1,-81,-22
4,370,351732,1067,-16255,-2350,4,-90,-21
4,371,351737,1032,-16293,-2518,6,-88,-20
4,372,351742,1046,-16249,-2582,6,-81,-21
4,373,351747,1069,-16242,-2584,2,-66,-22
4,374,351752,1057,-16241,-2620,2,-50,-20
4,375,351757,1043,-16232,-2634,4,-32,-21
4,376,351762,1030,-16183,-2638,5,-13,-25
4,377,351767,995,-16149,-2619,1,1,-25
4,378,351772,1059,-16163,-2496,4,16,-22
4,379,351777,1033,-16137,-2474,3,22,-26
4,380,351782,1019,-16127,-2396,2,19,-28
4,381,351787,1054,-16107,-2351,5,12,-26
4,382,351792,1134,-16087,-2415,4,6,-24
4,383,351797,1136,-16055,-2383,4,1,-23
4,384,351802,1230,-16041,-2380,5,-5,-23
4,385,351807,1324,-16059,-2385,6,-13,-22
4,386,351812,1282,-16091,-2326,5,-22,-19
4,387,351817,1177,-16126,-2359,7,-30,-18
4,388,351822,1148,-16163,-2371,6,-40,-19
4,389,351827,1118,-16223,-2325,2,-41,-21
4,390,351832,1176,-16285,-2342,3,-36,-18
4,391,351837,1185,-16344,-2351,1,-27,-18
4,392,351842,1210,-16338,-2313,1,-19,-16
4,393,351847,1141,-16347,-2339,4,-12,-14
4,394,351852,1117,-16283,-2327,3,-4,-13
4,395,351857,1138,-16306,-2342,0,8,-16
4,396,351862,1116,-16320,-2292,0,20,-15
4,397,351867,1059,-16328,-2246,-2,30,-13
4,398,351872,1139,-16301,-2250,-2,30,-10
4,399,351877,1215,-16330,-2208,-4,29,-9
4,400,351882,1172,-16327,-2243,-5,27,-8
4,401,351887,1185,-16259,-2269,-5,24,-9
4,402,351892,1141,-16252,-2266,-7,27,-7
4,403,351897,1179,-16236,-2275,-5,29,-2
4,404,351902,1290,-16244,-2206,-7,31,-5
4,405,351907,1234,-16282,-2180,-8,26,-4
4,406,351912,1232,-16257,-2146,-8,15,-6
4,407,351917,1181,-16247,-2130,-11,1,-4
4,408,351922,1188,-16187,-2168,-10,-11,-2
4,409,351927,1183,-16163,-2203,-10,-13,-1
4,410,351932,1215,-16155,-2253,-12,-12,2
4,411,351937,1292,-16163,-2212,-14,-18,4
4,412,351942,1215,-16122,-2150,-14,-32,6
4,413,351947,1134,-16128,-2185,-17,-48,5
4,414,351952,1117,-16188,-2272,-11,-59,7
4,415,351957,1114,-16203,-2409,-12,-63,8
4,416,351962,1129,-16196,-2503,-15,-53,7
4,417,351967,1113,-16229,-2541,-15,-42,9
4,418,351972,1068,-16260,-2582,-15,-32,10
4,419,351977,1044,-16254,-2529,-15,-15,9
4,420,351982,1003,-16274,-2485,-18,0,8
4,421,351987,1052,-16248,-2359,-24,16,8
4,422,351992,1129,-16207,-2234,-21,20,11
4,423,351997,1219,-16173,-2158,-20,11,8
4,424,352002,1255,-16108,-2069,-21,-8,11
4,425,352007,1082,-16087,-2011,-19,-70,14
4,426,352012,1075,-16072,-2069,-16,-97,18
4,427,352017,1100,-16068,-2133,-18,-115,20
4,428,352022,1173,-16135,-2246,-18,-130,21
4,429,352027,1085,-16119,-2311,-20,-141,19
4,430,352032,1006,-16086,-2390,-18,-153,18
4,431,352037,864,-16141,-2459,-17,-160,19
4,432,352042,782,-16167,-2597,-17,-155,21
4,433,352047,803,-16103,-2622,-20,-146,21
4,434,352052,856,-16073,-2573,-21,-133,22
4,435,352057,835,-16064,-2493,-20,-127,22
4,436,352062,658,-16109,-2410,-21,-133,23
4,437,352067,523,-16194,-2265,-24,-145,27
4,438,352072,609,-16165,-2006,-27,-158,31
4,439,352077,838,-16113,-1761,-33,-171,35
4,440,352082,936,-16207,-1627,-35,-196,38
4,441,352087,803,-16400,-1509,-37,-231,40
4,442,352092,742,-16529,-1550,-38,-287,48
4,443,352097,818,-16569,-1541,-43,-328,56
4,444,352102,1001,-16573,-1638,-49,-349,63
4,445,352107,1223,-16491,-1839,-55,-345,72
4,446,352112,1252,-16359,-1966,-61,-340,75
4,447,352117,1099,-16181,-1991,-65,-359,81
4,448,352122,1024,-15979,-1969,-69,-403,92
4,449,352127,921,-15931,-1814,-73,-448,106
4,450,352132,857,-16077,-2136,-73,-501,118
4,451,352137,890,-15994,-2241,-78,-545,131
4,452,352142,600,-15984,-2660,-75,-595,143
4,453,352147,312,-15940,-2911,-77,-636,152
4,454,352152,-29,-15735,-3095,-87,-646,156
4,455,352157,-152,-15861,-3802,-90,-603,173
4,456,352162,-47,-15921,-4211,-102,-493,183
4,457,352167,-7,-15970,-4557,-114,-357,190
4,458,352172,133,-15903,-4599,-129,-226,194
4,459,352177,303,-15504,-4251,-144,-115,198
4,460,352182,-146,-15495,-3731,-155,-10,207
4,461,352187,-452,-16143,-4743,-153,68,220
4,462,352192,-376,-16126,-4031,-164,157,227
4,463,352197,-312,-15905,-3075,-178,158,238
4,464,352202,-519,-15834,-2051,-183,88,244
4,465,352207,-804,-16059,-2178,-174,-32,254
4,466,352212,-630,-16123,-2483,-170,-143,269
4,467,352217,-389,-15898,-2714,-168,-246,286
4,468,352222,-593,-15837,-2350,-175,-331,301
4,469,352227,-693,-15952,-2678,-179,-420,313
4,470,352232,-414,-16053,-3455,-178,-466,330
4,471,352237,1,-16056,-4147,-178,-441,343
4,472,352242,-106,-16006,-4369,-192,-368,353
4,473,352247,-651,-15968,-4113,-208,-302,361
4,474,352252,-985,-15931,-3905,-214,-265,375
4,475,352257,-883,-15879,-3951,-222,-235,390
4,476,352262,-641,-15885,-3926,-229,-178,404
4,477,352267,-635,-15923,-3797,-238,-120,413
4,478,352272,-881,-15947,-3533,-250,-98,421
4,479,352277,-1011,-15938,-3479,-258,-106,437
4,480,352282,-904,-15936,-3438,-264,-115,454
4,481,352287,-721,-15940,-3412,-273,-109,464
4,482,352292,-698,-15963,-3346,-281,-94,476
4,483,352297,-857,-16059,-3260,-295,-92,487
4,484,352302,-1044,-16159,-3396,-301,-115,502
4,485,352307,-1055,-16243,-3672,-309,-136,518
4,486,352312,-916,-16254,-3835,-320,-132,533
4,487,352317,-768,-16235,-3596,-333,-105,544
4,488,352322,-741,-16263,-3427,-343,-85,556
4,489,352327,-840,-16245,-3407,-352,-84,568
4,490,352332,-1017,-16219,-3478,-359,-102,581
4,491,352337,-1245,-16242,-3693,-369,-129,596
4,492,352342,-1359,-16281,-3774,-377,-146,614
4,493,352347,-1353,-16298,-3889,-387,-153,627
4,494,352352,-1179,-16268,-3973,-397,-136,640
4,495,352357,-1091,-16220,-4084,-408,-106,651
4,496,352362,-1262,-16212,-4279,-415,-79,660
4,497,352367,-1493,-16216,-4481,-422,-60,673
4,498,352372,-1511,-16167,-4382,-446,-13,695
4,499,352377,-1422,-16193,-4209,-453,9,707
4,500,352382,-1429,-16143,-4122,-463,28,716
4,501,352387,-1539,-16080,-4142,-472,26,728
4,502,352392,-1658,-16158,-4193,-480,12,739
4,503,352397,-1652,-16182,-4065,-487,-6,752
4,504,352402,-1637,-16176,-3815,-493,-29,764
4,505,352407,-1556,-16171,-3713,-498,-54,780
4,506,352412,-1557,-16176,-3779,-500,-80,789
4,507,352417,-1663,-16170,-3929,-499,-117,801
4,508,352422,-1884,-16215,-4116,-504,-156,812
4,509,352427,-1988,-16236,-4252,-509,-188,824
4,510,352432,-1961,-16274,-4350,-514,-204,840
4,511,352437,-1896,-16336,-4438,-523,-194,850
4,512,352442,-1920,-16326,-4586,-525,-171,857
4,513,352447,-2102,-16392,-4719,-531,-146,861
4,514,352452,-2266,-16341,-4944,-539,-126,866
4,515,352457,-2304,-16323,-4736,-545,-99,874
4,516,352462,-2240,-16361,-4579,-550,-78,884
4,517,352467,-2181,-16311,-4588,-551,-61,892
4,518,352472,-2274,-16212,-4506,-555,-43,893
4,519,352477,-2365,-16200,-4686,-556,-48,901
4,520,352482,-2479,-16216,-4634,-561,-59,909
4,521,352487,-2466,-16189,-4476,-568,-73,914
4,522,352492,-2341,-16121,-4224,-567,-89,920
4,523,352497,-2239,-16125,-4155,-565,-107,925
4,524,352502,-2401,-16173,-4337,-560,-130,929
4,525,352507,-2579,-16162,-4682,-559,-154,932
4,526,352512,-2542,-16026,-4831,-565,-170,940
4,527,352517,-2377,-15914,-4797,-564,-164,948
4,528,352522,-2330,-15910,-4703,-569,-145,949
4,529,352527,-2504,-15958,-4382,-571,-131,946
4,530,352532,-2866,-15932,-4569,-565,-158,948
4,531,352537,-3077,-15830,-4860,-562,-178,951
4,532,352542,-2994,-15690,-4971,-562,-180,951
4,533,352547,-2927,-15631,-5046,-566,-158,951
4,534,352552,-2917,-15638,-4896,-564,-129,948
4,535,352557,-2997,-15657,-4799,-561,-116,943
4,536,352562,-3116,-15662,-4880,-560,-130,940
4,537,352567,-3206,-15633,-4870,-556,-150,938
4,538,352572,-3262,-15649,-4817,-555,-157,937
4,539,352577,-3374,-15726,-4815,-553,-167,929
4,540,352582,-3561,-15700,-4938,-550,-174,923
4,541,352587,-3488,-15466,-5130,-548,-179,920
4,542,352592,-3434,-15379,-5140,-543,-169,913
4,543,352597,-3382,-15361,-5148,-539,-157,904
4,544,352602,-3566,-15197,-5041,-536,-149,894
4,545,352607,-3743,-15180,-5025,-530,-157,885
4,546,352612,-3823,-15112,-5103,-522,-184,877
4,547,352617,-3769,-15016,-5179,-513,-212,871
4,548,352622,-3720,-14921,-5133,-506,-239,860
4,549,352627,-3920,-14885,-5149,-503,-260,848
4,550,352632,-4089,-14877,-5392,-492,-275,834
4,551,352637,-4013,-14794,-5861,-484,-281,825
4,552,352642,-3852,-14605,-6098,-478,-258,815
4,553,352647,-3850,-14478,-5982,-475,-225,798
4,554,352652,-4022,-14439,-5733,-467,-205,782
4,555,352657,-4236,-14368,-5567,-455,-205,765
4,556,352662,-4381,-14380,-5495,-440,-219,756
4,557,352667,-4494,-14431,-5554,-430,-232,744
4,558,352672,-4620,-14486,-5644,-422,-244,725
4,559,352677,-4651,-14540,-5736,-411,-249,709
4,560,352682,-4607,-14514,-5873,-399,-245,690
4,561,352687,-4607,-14513,-6118,-393,-218,672
4,562,352692,-4549,-14564,-6347,-384,-171,651
4,563,352697,-4653,-14602,-6253,-378,-114,630
4,564,352702,-4701,-14554,-5986,-374,-71,607
4,565,352707,-4732,-14481,-5784,-365,-43,588
4,566,352712,-4756,-14504,-5731,-351,-27,567
4,567,352717,-4725,-14495,-5738,-342,-16,545
4,568,352722,-4699,-14438,-5755,-334,-6,522
4,569,352727,-4621,-14351,-5655,-323,-2,503
4,570,352732,-4511,-14248,-5569,-312,-6,483
4,571,352737,-4419,-14171,-5558,-295,-9,459
4,572,352742,-4447,-14152,-5631,-264,-36,420
4,573,352747,-4496,-14156,-5327,-250,-58,401
4,574,352752,-4422,-14134,-5379,-236,-99,380
4,575,352757,-4391,-14098,-5524,-220,-128,357
4,576,352762,-4366,-14130,-5407,-207,-140,336
4,577,352767,-4329,-14168,-5789,-193,-161,318
4,578,352772,-4177,-14112,-5850,-178,-154,297
4,579,352777,-4163,-14138,-5793,-167,-145,275
4,580,352782,-4268,-14177,-5555,-154,-143,252
4,581,352787,-4473,-14134,-5777,-139,-147,229
4,582,352792,-4688,-14054,-5524,-126,-129,204
4,583,352797,-4804,-14121,-5931,-110,-128,186
4,584,352802,-4757,-14089,-6199,-101,-96,158
4,585,352807,-4532,-14071,-5897,-86,-56,134
4,586,352812,-4330,-14056,-6306,-77,-38,109
4,587,352817,-4263,-14026,-5937,-59,5,81
4,588,352822,-4319,-14015,-6021,-41,16,51
4,589,352827,-4342,-13959,-5760,-29,31,25
4,590,352832,-4368,-13935,-5816,-15,23,0
4,591,352837,-4296,-13904,-5231,6,12,-23
4,592,352842,-4195,-13910,-5482,21,-38,-48
4,593,352847,-4115,-13819,-5158,40,-68,-77
4,594,352852,-4201,-13755,-5148,64,-122,-101
4,595,352857,-4243,-13731,-5483,82,-174,-126
4,596,352862,-4302,-13769,-5390,104,-194,-152
4,597,352867,-4261,-13817,-5503,123,-224,-179
4,598,352872,-4370,-13853,-5832,138,-241,-207
4,599,352877,-4587,-13938,-5728,154,-226,-239
4,600,352882,-4439,-13957,-6123,172,-199,-269
4,601,352904,-4190,-14174,-5416,225,68,-396
4,602,352905,-4395,-14210,-5234,236,68,-428
4,603,352906,-4395,-14210,-5234,236,68,-428
4,604,352906,-4395,-14210,-5234,236,68,-428
4,605,352907,-4395,-14210,-5234,236,68,-428
4,606,352912,-4181,-14321,-5242,254,70,-459
4,607,352917,-3918,-14467,-5088,269,83,-492
4,608,352922,-3869,-14630,-4834,285,82,-520
4,609,352927,-3893,-14797,-4676,303,51,-554
4,610,352932,-4015,-14927,-4553,322,5,-585
4,611,352937,-4115,-15074,-4581,341,-47,-614
4,612,352942,-4209,-15094,-4553,353,-71,-650
4,613,352947,-4185,-15145,-4748,368,-80,-678
4,614,352952,-3828,-15177,-4960,380,-75,-710
4,615,352957,-3498,-15328,-5075,395,-55,-738
4,616,352962,-3436,-15432,-5082,408,-40,-774
4,617,352967,-3740,-15552,-4982,418,-32,-807
4,618,352972,-3949,-15658,-5135,432,-24,-834
4,619,352977,-3672,-15715,-5317,442,15,-864
4,620,352982,-3194,-15673,-5215,450,81,-894
4,621,352987,-3060,-15699,-5121,457,139,-930
4,622,352992,-3134,-15718,-5118,468,168,-961
4,623,352997,-3344,-15698,-5035,482,180,-987
4,624,353002,-3267,-15638,-5235,496,182,-1014
4,625,353007,-3048,-15599,-5265,503,212,-1040
4,626,353012,-2664,-15583,-4975,513,257,-1068
4,627,353017,-2524,-15553,-4656,522,281,-1097
4,628,353022,-2503,-15488,-4480,537,268,-1122
4,629,353027,-2604,-15550,-4449,554,225,-1146
4,630,353032,-2472,-15585,-4410,567,174,-1166
4,631,353037,-2235,-15678,-4321,575,134,-1186
4,632,353042,-2107,-15722,-4068,581,105,-1208
4,633,353047,-2082,-15725,-4060,593,68,-1232
4,634,353052,-2068,-15761,-4420,610,35,-1251
4,635,353057,-1890,-15794,-4828,618,17,-1273
4,636,353062,-1853,-15894,-4920,622,21,-1295
4,637,353067,-1846,-15932,-4853,624,39,-1318
4,638,353072,-1822,-15931,-4836,628,67,-1338
4,639,353077,-1834,-15924,-4819,627,113,-1365
4,640,353082,-1862,-15820,-4490,633,150,-1389
4,641,353087,-1669,-15894,-4748,648,148,-1407
4,642,353092,-1624,-15945,-4609,650,151,-1430
4,643,353097,-1748,-16005,-3981,655,140,-1449
4,644,353102,-1692,-16022,-4252,663,105,-1469
4,645,353107,-1551,-16050,-4420,671,108,-1491
4,646,353112,-1828,-16288,-4123,677,97,-1533
4,647,353117,-2099,-16502,-4471,683,61,-1551
4,648,353122,-1802,-16603,-4266,681,60,-1569
4,649,353127,-911,-16537,-4721,679,92,-1584
4,650,353132,-390,-16441,-4125,674,180,-1606
4,651,353137,-421,-16543,-3762,677,220,-1629
4,652,353142,-953,-16729,-3682,687,202,-1647
4,653,353147,-1047,-16779,-3817,693,157,-1660
4,654,353152,-748,-16725,-3872,690,125,-1672
4,655,353157,-182,-16622,-3448,689,129,-1682
4,656,353162,216,-16642,-3509,691,131,-1697
4,657,353167,242,-16692,-3695,695,126,-1714
4,658,353172,-401,-16936,-2249,706,102,-1728
4,659,353177,-135,-16444,-3608,746,-117,-1725
4,660,353182,-138,-16927,-5356,729,-171,-1737
4,661,353187,-431,-16658,-3597,686,-29,-1757
4,662,353192,197,-16675,-3803,695,11,-1759
4,663,353197,664,-16880,-3872,689,55,-1768
4,664,353202,569,-17177,-3057,688,47,-1784
4,665,353207,127,-17302,-3741,702,-22,-1791
4,666,353212,116,-17305,-3973,694,-41,-1794
4,667,353217,546,-17257,-3234,676,15,-1794
4,668,353222,1036,-17206,-2785,666,54,-1799
4,669,353227,996,-17330,-3239,669,58,-1804
4,670,353232,855,-17249,-3758,668,47,-1808
4,671,353237,1002,-17200,-3750,667,41,-1805
4,672,353242,1275,-17111,-3613,659,54,-1802
4,673,353247,1511,-17036,-2938,654,82,-1798
4,674,353252,1434,-17166,-2639,659,84,-1794
4,675,353257,1454,-17116,-3127,657,66,-1788
4,676,353262,1644,-16967,-2844,653,41,-1780
4,677,353267,1777,-16908,-2983,643,-9,-1766
4,678,353272,1999,-16894,-2376,632,-26,-1757
4,679,353277,2313,-16913,-2199,633,-62,-1742
4,680,353282,2553,-16944,-2276,629,-87,-1724
4,681,353287,555,-15319,-3345,628,-116,-1711
4,682,353292,-5289,-22233,-25850,903,176,-1588
4,683,353297,689,-11048,-32768,1947,1572,-1511
4,684,353302,-32768,-10966,-8571,-734,7552,-516
4,685,353307,-30008,-4122,28231,-921,18077,-597
4,686,353312,-10320,-12400,22341,230,17172,-89
4,687,353317,16965,-23268,13081,-1009,13226,-141
4,688,353322,7833,-15998,32767,-496,12942,-900
4,689,353327,352,-6851,32767,579,2345,-526
4,690,353332,-25279,-17637,23853,607,-7273,724
4,691,353337,-10726,-16045,-4542,882,-11865,931
4,692,353342,13052,-10895,-16003,712,-12745,798
4,693,353347,15043,-11741,-16019,152,-11504,828
4,694,353352,-892,-14475,-5264,-33,-7049,695
4,695,353357,-11389,-13057,-4721,177,-5222,628
4,696,353362,357,-15628,-28372,358,-5491,837
4,697,353367,8751,-14154,-32768,301,-4202,827
4,698,353372,10638,-15886,-27555,43,-1964,688
4,699,353377,502,-14087,-11533,-369,705,429
4,700,353382,-6212,-15034,-6916,-218,1788,523
4,701,353387,-2784,-14954,-12237,-208,2577,519
4,702,353392,936,-14079,-4670,-267,3000,468
4,703,353397,979,-15122,3797,-205,2612,504
4,704,353402,1782,-14585,9721,-234,1910,476
4,705,353407,207,-15158,12383,-114,944,530
4,706,353412,493,-14828,6404,-105,-273,543
4,707,353417,531,-15283,1249,-26,-938,582
4,708,353422,3028,-15905,-6302,-29,-1408,601
4,709,353427,2971,-15897,-5502,-96,-1283,579
4,710,353432,1875,-16349,-4743,-126,-1133,565
4,711,353437,1038,-16116,-5046,-126,-848,541
4,712,353442,1568,-16706,-8072,-91,-473,542
4,713,353447,2056,-16560,-8829,-121,71,503
4,714,353452,1576,-16759,-6142,-172,497,479
4,715,353457,1027,-16619,-2376,-221,643,457
4,716,353462,1222,-16393,525,-231,542,456
4,717,353467,2075,-16558,524,-205,346,452
4,718,353472,2093,-16565,-449,-185,213,436
4,719,353477,915,-16650,-1784,-179,-33,423
4,720,353482,1239,-16705,-1847,-171,-181,432
4,721,353487,2155,-16676,-2510,-174,-254,425
4,722,353492,2495,-16776,-3181,-167,-206,407
4,723,353497,1997,-16915,-3871,-169,-87,379
4,724,353502,1174,-16864,-4195,-183,29,359
4,725,353507,1057,-16953,-4089,-187,92,352
4,726,353512,1539,-16725,-3208,-200,136,340
4,727,353517,2056,-16847,-2519,-192,160,330
4,728,353522,2045,-16797,-2071,-192,178,305
4,729,353527,1586,-16872,-2194,-176,150,289
4,730,353532,1221,-16900,-2809,-170,82,275
4,731,353537,1302,-16844,-3243,-173,18,263
4,732,353542,1628,-16869,-3304,-175,0,253
4,733,353547,1898,-16757,-2934,-179,33,233
4,734,353552,1943,-16793,-3055,-168,82,216
4,735,353557,1875,-16675,-3398,-162,135,195
4,736,353562,1757,-16621,-3557,-157,165,185
4,737,353567,1673,-16547,-3338,-167,178,166
4,738,353572,1723,-16582,-2703,-167,170,157
4,739,353577,1863,-16559,-2282,-162,151,145
4,740,353582,2038,-16517,-2094,-156,138,131
4,741,353587,2079,-16711,-2429,-148,113,114
4,742,353592,1884,-16610,-2669,-148,91,96
4,743,353597,1723,-16528,-2729,-144,59,90
4,744,353602,1689,-16410,-2649,-144,36,79
4,745,353607,1820,-16418,-2526,-142,34,70
4,746,353612,1998,-16484,-2512,-140,53,58
4,747,353617,1988,-16403,-2562,-139,68,43
4,748,353622,1824,-16362,-2618,-134,62,31
4,749,353627,1757,-16237,-2592,-132,43,21
4,750,353632,1787,-16230,-2578,-128,21,16
4,751,353637,1798,-16151,-2433,-129,18,7
4,752,353642,1773,-16296,-2506,-125,19,-4
4,753,353647,1806,-16342,-2740,-123,22,-16
4,754,353652,1871,-16374,-3035,-116,26,-22
4,755,353657,2121,-16476,-3176,-118,46,-31
4,756,353662,2268,-16507,-2880,-122,85,-40
4,757,353667,2232,-16443,-2473,-122,112,-45
4,758,353672,1946,-16310,-2140,-123,125,-55
4,759,353677,1669,-16367,-2101,-116,111,-58
4,760,353682,1588,-16417,-2239,-113,84,-62
4,761,353687,1664,-16348,-2275,-114,57,-64
4,762,353692,1828,-16282,-2238,-114,35,-65
4,763,353697,2084,-16181,-2255,-110,25,-68
4,764,353702,2273,-16114,-2379,-105,33,-72
4,765,353707,2165,-16126,-2529,-102,40,-75
4,766,353712,1942,-16150,-2606,-101,35,-77
4,767,353717,1822,-16093,-2569,-99,26,-80
4,768,353722,1907,-16034,-2524,-96,15,-77
4,769,353727,1992,-16038,-2481,-95,7,-76
4,770,353732,1986,-16010,-2487,-89,-2,-81
4,771,353737,1871,-16016,-2661,-85,-8,-81
4,772,353742,1759,-15976,-2924,-83,-11,-82
4,773,353747,1747,-15945,-3077,-77,-11,-82
4,774,353752,1954,-15860,-3072,-77,5,-82
4,775,353757,2055,-15815,-2927,-77,31,-83
4,776,353762,1945,-15784,-2750,-76,47,-84
4,777,353767,1725,-15805,-2696,-70,43,-86
4,778,353772,1591,-15894,-2750,-66,26,-84
4,779,353777,1641,-15927,-2747,-64,16,-82
4,780,353782,1717,-15921,-2662,-60,20,-81
4,781,353787,1758,-15868,-2649,-60,29,-80
4,782,353792,1789,-15907,-2633,-57,30,-81
4,783,353797,1819,-15887,-2739,-53,23,-83
4,784,353802,1830,-15921,-2718,-51,19,-81
4,785,353807,1784,-15925,-2590,-43,11,-79
4,786,353812,1645,-15943,-2401,-43,-2,-79
4,787,353817,1564,-15998,-2416,-41,-18,-78
4,788,353822,1581,-16014,-2516,-35,-38,-75
4,789,353827,1497,-16036,-2678,-28,-56,-73
4,790,353832,1468,-16003,-2827,-25,-63,-74
4,791,353837,1420,-15981,-2936,-22,-60,-73
4,792,353842,1433,-15982,-3025,-21,-51,-73
4,793,353847,1420,-16003,-3210,-15,-4,-73
4,794,353852,1364,-15997,-3230,-11,21,-75
4,795,353857,1333,-15974,-3141,-9,35,-71
4,796,353862,1348,-15889,-2951,-8,43,-72
4,797,353867,1460,-15870,-2790,-7,40,-73
4,798,353872,1486,-15871,-2726,0,32,-72
4,799,353877,1511,-15878,-2729,7,14,-67
4,800,353882,1446,-15833,-2766,11,-16,-65
4,801,353887,1397,-15916,-2842,14,-43,-63
4,802,353892,1457,-15970,-2916,15,-61,-61
4,803,353897,1585,-16002,-2934,24,-61,-58
4,804,353902,1600,-15994,-2918,30,-49,-59
4,805,353907,1481,-16020,-3043,30,-40,-59
4,806,353912,1392,-16038,-3143,38,-31,-55
4,807,353917,1414,-16047,-3170,36,-21,-54
4,808,353922,1457,-16021,-3024,37,-7,-54
4,809,353927,1480,-15965,-2819,39,8,-51
4,810,353932,1460,-15945,-2768,41,15,-50
4,811,353937,1347,-15960,-2803,48,12,-48
4,812,353942,1280,-16015,-2920,50,5,-44
4,813,353947,1384,-16048,-2929,48,-1,-42
4,814,353952,1573,-16009,-2828,49,4,-39
4,815,353957,1656,-16000,-2694,50,13,-37
4,816,353962,1612,-15920,-2668,53,20,-37
4,817,353967,1524,-15884,-2655,56,10,-36
4,818,353972,1430,-15980,-2768,59,-10,-32
4,819,353977,1448,-16037,-2851,60,-27,-28
4,820,353982,1598,-15982,-2745,60,-39,-28
4,821,353987,1611,-15941,-2729,59,-46,-27
4,822,353992,1533,-15991,-2859,65,-44,-22
4,823,353997,1462,-15941,-3094,68,-40,-20
4,824,354002,1387,-15906,-3208,65,-31,-22
4,825,354007,1375,-15925,-3146,62,-19,-20
4,826,354012,1399,-15909,-2980,60,-11,-16
4,827,354017,1358,-15939,-2845,63,-9,-14
4,828,354022,1303,-16011,-2857,68,-14,-12
4,829,354027,1304,-16032,-2990,68,-15,-13
4,830,354032,1231,-15997,-3095,67,-13,-12
4,831,354037,1191,-16024,-3059,66,-10,-11
4,832,354042,1214,-16010,-3133,68,1,-9
4,833,354047,1284,-16042,-3183,69,15,-9
4,834,354052,1268,-16095,-3261,70,28,-11
4,835,354057,1310,-16082,-3357,72,40,-10
4,836,354062,1309,-16090,-3303,69,55,-11
4,837,354067,1318,-16083,-3193,66,69,-12
4,838,354072,1367,-16081,-3070,68,79,-10
4,839,354077,1383,-16122,-2952,71,83,-11
4,840,354082,1302,-16166,-2846,70,75,-9
4,841,354087,1325,-16175,-2820,70,65,-10
4,842,354092,1383,-16153,-2852,68,55,-10
4,843,354097,1455,-16104,-2888,72,49,-11
4,844,354102,1497,-16066,-2878,70,52,-11
4,845,354107,1440,-16126,-2873,68,49,-8
4,846,354112,1414,-16236,-2860,68,38,-7
4,847,354117,1435,-16184,-3023,69,34,-8
4,848,354122,1522,-16140,-3109,70,38,-6
4,849,354127,1616,-16097,-3122,69,51,-6
4,850,354132,1577,-16074,-3071,67,65,-6
4,851,354137,1452,-16142,-2990,69,67,-6
4,852,354142,1453,-16159,-2916,67,64,-4
4,853,354147,1463,-16173,-2902,69,58,-3
4,854,354152,1514,-16209,-2825,67,53,-5
4,855,354157,1527,-16210,-2758,67,51,-6
4,856,354162,1521,-16266,-2829,65,44,-5
4,857,354167,1487,-16256,-2837,63,36,-4
4,858,354172,1556,-16189,-2926,64,33,-5
4,859,354177,1611,-16180,-2890,64,36,-3
4,860,354182,1621,-16199,-2822,62,39,-2
4,861,354187,1575,-16216,-2773,63,36,-7
4,862,354192,1606,-16249,-2784,62,32,-4
4,863,354197,1707,-16221,-2742,61,31,-3
4,864,354202,1762,-16162,-2731,56,31,-5
4,865,354207,1756,-16104,-2677,59,32,-2
4,866,354212,1733,-16088,-2629,58,29,-3
4,867,354217,1713,-16144,-2595,55,1,1
4,868,354222,1777,-16101,-2628,55,-9,2
4,869,354227,1806,-16090,-2649,52,-18,2
4,870,354232,1796,-16070,-2626,52,-23,2
4,871,354237,1776,-15980,-2684,52,-28,1
4,872,354242,1681,-15959,-2736,48,-34,1
4,873,354247,1658,-15976,-2820,48,-41,3
4,874,354252,1598,-16049,-2789,48,-46,6
4,875,354257,1605,-16071,-2755,48,-50,5
4,876,354262,1671,-16094,-2872,46,-48,3
4,877,354267,1709,-16011,-2934,45,-35,1
4,878,354272,1658,-15988,-2982,43,-20,0
4,879,354277,1572,-16023,-2976,41,-7,-1
4,880,354282,1518,-16054,-2868,40,4,-1
4,881,354287,1558,-16031,-2779,38,11,3
4,882,354292,1602,-16065,-2695,37,13,1
4,883,354297,1660,-16064,-2675,33,17,-1
4,884,354302,1686,-16079,-2668,36,17,-4
4,885,354307,1653,-16073,-2698,35,12,-3
4,886,354312,1645,-16074,-2735,35,10,0
4,887,354317,1736,-16104,-2809,32,5,1
4,888,354322,1805,-16141,-2751,30,11,3
4,889,354327,1780,-16142,-2694,28,17,3
4,890,354332,1768,-16132,-2747,29,17,1
4,891,354337,1711,-16106,-2748,27,14,0
4,892,354342,1609,-16126,-2752,26,10,-1
4,893,354347,1537,-16210,-2765,28,5,1
4,894,354352,1585,-16183,-2752,23,8,-1
4,895,354357,1633,-16143,-2811,24,11,-1
4,896,354362,1687,-16185,-2872,25,21,-1
4,897,354367,1673,-16208,-2909,23,24,-1
4,898,354372,1468,-16183,-2862,20,27,0
4,899,354377,1451,-16159,-2852,19,27,-2
4,900,354382,1555,-16146,-2787,19,27,-4
4,901,354387,1643,-16165,-2748,22,34,0
4,902,354392,1659,-16196,-2674,21,37,-4
4,903,354397,1569,-16278,-2697,20,29,-6
4,904,354402,1523,-16277,-2748,19,19,-5
4,905,354407,1533,-16187,-2746,20,12,-3
4,906,354412,1654,-16170,-2758,14,17,-5
4,907,354417,1715,-16109,-2760,15,30,-6
4,908,354422,1710,-16136,-2685,14,35,-8
4,909,354427,1669,-16107,-2705,12,28,-4
4,910,354432,1582,-16038,-2730,15,13,-3
4,911,354437,1619,-16028,-2733,13,3,-3
4,912,354442,1641,-16118,-2798,15,-2,-2
4,913,354447,1649,-16168,-2773,14,-3,-3
4,914,354452,1564,-16190,-2794,13,-5,-2
4,915,354457,1558,-16242,-2928,14,-4,-3
4,916,354462,1537,-16230,-2980,10,5,-5
4,917,354467,1568,-16242,-2918,10,22,-5
4,918,354472,1519,-16250,-2845,7,45,-9
4,919,354477,1544,-16194,-2789,8,56,-8
4,920,354482,1518,-16196,-2763,11,58,-7
4,921,354487,1528,-16196,-2791,8,57,-10
4,922,354492,1559,-16156,-2851,7,55,-9
4,923,354497,1546,-16090,-2825,8,59,-9
4,924,354502,1582,-16068,-2737,3,61,-10
4,925,354507,1612,-16048,-2717,7,64,-10
4,926,354512,1605,-16053,-2743,10,64,-8
4,927,354517,1627,-16033,-2723,8,59,-11
4,928,354522,1628,-16007,-2718,8,54,-11
4,929,354527,1633,-15974,-2661,10,45,-7
4,930,354532,1640,-15924,-2630,12,35,-6
4,931,354537,1697,-15934,-2650,11,29,-6
4,932,354542,1726,-15955,-2700,10,20,-4
4,933,354547,1684,-15927,-2669,12,13,-4
4,934,354552,1650,-15979,-2684,16,5,-4
4,935,354557,1524,-16005,-2727,16,2,-2
4,936,354562,1551,-16034,-2821,15,11,-4
4,937,354567,1621,-16085,-2898,18,25,-3
4,938,354572,1634,-16064,-2876,15,45,-4
4,939,354577,1612,-16058,-2778,15,68,-8
4,940,354582,1592,-16111,-2478,13,84,-5
4,941,354587,1547,-16116,-2393,14,85,-6
4,942,354592,1547,-16172,-2391,14,77,-4
4,943,354597,1626,-16133,-2389,17,68,-3
4,944,354602,1731,-16136,-2342,20,60,-4
4,945,354607,1743,-16180,-2262,21,47,0
4,946,354612,1678,-16218,-2250,20,33,1
4,947,354617,1723,-16272,-2281,19,17,-3
4,948,354622,1747,-16303,-2336,22,7,0
4,949,354627,1766,-16294,-2356,21,2,1
4,950,354632,1822,-16273,-2335,21,-3,3
4,951,354637,1822,-16258,-2358,22,-8,4
4,952,354642,1762,-16255,-2418,22,-12,6
4,953,354647,1754,-16350,-2472,19,-12,6
4,954,354652,1717,-16343,-2462,21,-5,5
4,955,354657,1657,-16379,-2469,19,2,3
4,956,354662,1610,-16377,-2457,18,8,2
4,957,354667,1641,-16370,-2508,19,13,3
4,958,354672,1686,-16372,-2532,19,24,6
4,959,354677,1644,-16370,-2536,19,35,6
4,960,354682,1601,-16327,-2545,18,41,3
4,961,354687,1609,-16300,-2502,19,39,1
4,962,354692,1713,-16270,-2406,20,40,2
4,963,354697,1737,-16230,-2368,17,37,3
4,964,354702,1739,-16257,-2288,19,31,3
4,965,354707,1681,-16226,-2271,19,13,5
4,966,354712,1611,-16216,-2405,20,-10,3
4,967,354717,1713,-16170,-2432,21,-23,4
4,968,354722,1763,-16171,-2442,21,-24,7
4,969,354727,1745,-16188,-2457,20,-20,5
4,970,354732,1757,-16234,-2486,20,-20,7
4,971,354737,1751,-16251,-2481,20,-24,7
4,972,354742,1750,-16250,-2425,20,-23,10
4,973,354747,1695,-16281,-2382,22,-27,10
4,974,354752,1656,-16256,-2411,20,-30,8
4,975,354757,1685,-16197,-2521,23,-31,8
4,976,354762,1678,-16231,-2572,25,-30,11
4,977,354767,1674,-16295,-2658,20,-22,7
4,978,354772,1664,-16316,-2603,21,-17,8
4,979,354777,1663,-16261,-2538,20,-8,9
4,980,354782,1648,-16285,-2516,18,0,5
4,981,354787,1582,-16286,-2504,19,7,5
4,982,354792,1551,-16287,-2482,18,11,6
4,983,354797,1563,-16219,-2487,18,5,7
4,984,354802,1595,-16154,-2363,16,-2,6
4,985,354807,1639,-16164,-2309,15,-9,8
4,986,354812,1675,-16220,-2329,16,-15,4
4,987,354817,1666,-16253,-2416,17,-28,5
4,988,354822,1640,-16245,-2406,15,-39,5
4,989,354827,1667,-16196,-2400,19,-49,7
4,990,354832,1694,-16235,-2453,21,-55,7
4,991,354837,1691,-16274,-2516,17,-57,4
4,992,354842,1647,-16250,-2553,15,-56,6
4,993,354847,1619,-16212,-2566,17,-52,7
4,994,354852,1625,-16208,-2702,16,-45,6
4,995,354857,1640,-16167,-2657,14,-30,3
4,996,354862,1666,-16181,-2629,13,-21,2
4,997,354867,1601,-16197,-2615,12,-15,2
4,998,354872,1510,-16269,-2454,12,-10,3
4,999,354877,1487,-16282,-2498,11,-10,3
