event_id,seq,ts_ms,ax,ay,az,gx,gy,gz
7,0,816547,1269,-16834,-2952,-36,-94,-28
7,1,816552,1446,-16847,-2990,-33,-50,-26
7,2,816557,1586,-16858,-2787,-33,-6,-27
7,3,816562,1548,-16850,-2686,-36,18,-30
7,4,816567,1514,-16808,-2521,-36,22,-31
7,5,816572,1602,-16736,-2489,-30,14,-25
7,6,816577,1723,-16639,-2409,-28,2,-23
7,7,816582,1594,-16518,-2131,-24,-23,-19
7,8,816587,1516,-16390,-2167,-20,-73,-18
7,9,816592,1441,-16294,-2417,-15,-125,-13
7,10,816597,1553,-16252,-2782,-6,-154,-7
7,11,816602,1708,-16122,-2907,-8,-153,-5
7,12,816607,1769,-16028,-2573,-12,-141,-4
7,13,816612,1593,-16016,-2414,-7,-154,-1
7,14,816617,1426,-15958,-2292,-5,-169,1
7,15,816622,1339,-15906,-2568,1,-189,5
7,16,816627,1252,-15906,-2829,5,-183,4
7,17,816632,1272,-15889,-2729,4,-162,6
7,18,816637,1335,-15928,-2863,6,-146,4
7,19,816642,1439,-16002,-2789,2,-126,4
7,20,816647,1545,-15999,-2822,1,-100,4
7,21,816652,1602,-15959,-2802,4,-70,3
7,22,816657,1474,-15996,-2614,5,-39,1
7,23,816662,1477,-16035,-2483,1,-28,0
7,24,816667,1386,-15990,-2208,1,-27,5
7,25,816672,1351,-15998,-1942,-2,-43,7
7,26,816677,1276,-15990,-2191,5,-68,9
7,27,816682,1266,-16028,-2323,12,-75,11
7,28,816687,1306,-16237,-2732,8,-66,8
7,29,816692,1364,-16580,-2799,9,-51,10
7,30,816697,1334,-16310,-2319,15,-27,15
7,31,816702,1927,-15843,-2726,-4,3,0
7,32,816707,1037,-16279,-1728,6,8,7
7,33,816712,1387,-16153,-2526,15,-18,11
7,34,816717,1664,-16062,-2341,14,-19,10
7,35,816722,1680,-16035,-2388,8,-49,10
7,36,816727,1443,-16094,-1854,9,-87,10
7,37,816732,1353,-16148,-2152,13,-132,15
7,38,816737,1461,-16205,-2792,22,-126,14
7,39,816742,1427,-16298,-2921,24,-84,14
7,40,816747,1406,-16288,-2870,21,-60,14
7,41,816752,1342,-16264,-2611,16,-57,14
7,42,816757,1334,-16255,-2666,18,-66,14
7,43,816762,1372,-16225,-2902,23,-48,11
7,44,816767,1269,-16300,-2818,25,1,8
7,45,816772,1329,-16331,-2727,26,42,7
7,46,816777,1464,-16341,-2654,22,61,9
7,47,816782,1525,-16396,-2479,18,64,6
7,48,816787,1494,-16362,-2223,22,55,7
7,49,816792,1519,-16370,-2008,24,37,5
7,50,816797,1386,-16292,-1851,27,14,9
7,51,816802,1277,-16256,-1849,29,-16,8
7,52,816807,1155,-16325,-2127,33,-53,8
7,53,816812,1206,-16340,-2381,33,-71,11
7,54,816817,1254,-16390,-2508,33,-69,9
7,55,816822,1452,-16402,-2566,30,-59,8
7,56,816827,1552,-16399,-2548,29,-35,6
7,57,816832,1554,-16388,-2487,29,-6,3
7,58,816837,1426,-16379,-2470,29,17,3
7,59,816842,1308,-16356,-2403,29,37,-2
7,60,816847,1257,-16313,-2301,25,45,0
7,61,816852,1343,-16259,-2164,28,42,3
7,62,816857,1387,-16230,-2081,26,37,-1
7,63,816862,1395,-16183,-2021,26,19,-3
7,64,816867,1354,-16181,-2072,30,-4,-1
7,65,816872,1380,-16148,-2235,28,-26,-6
7,66,816877,1428,-16084,-2319,30,-41,-2
7,67,816882,1444,-16132,-2391,30,-45,0
7,68,816887,1417,-16208,-2374,29,-51,-1
7,69,816892,1291,-16234,-2319,29,-57,-2
7,70,816897,1207,-16225,-2423,33,-59,-4
7,71,816902,1173,-16253,-2455,32,-55,-9
7,72,816907,1177,-16306,-2364,32,-53,-10
7,73,816912,1258,-16350,-2418,31,-50,-10
7,74,816917,902,-16269,-2264,28,-44,-14
7,75,816922,995,-16237,-2136,29,-59,-24
7,76,816927,1086,-16272,-2197,26,-60,-18
7,77,816932,1856,-16226,-2469,30,-56,-13
7,78,816937,1776,-16160,-2243,30,-27,-21
7,79,816942,1518,-16232,-2254,28,-40,-24
7,80,816947,1214,-16159,-2407,29,-60,-23
7,81,816952,1504,-16063,-2682,27,-60,-18
7,82,816957,1650,-15975,-2636,25,-27,-21
7,83,816962,1561,-16016,-2183,24,-4,-23
7,84,816967,1382,-16011,-2109,26,-27,-23
7,85,816972,1456,-16001,-2385,28,-63,-21
7,86,816977,1489,-15990,-2497,29,-76,-19
7,87,816982,1505,-16035,-2382,28,-73,-20
7,88,816987,1416,-16058,-2260,26,-73,-20
7,89,816992,1345,-16123,-2344,29,-86,-21
7,90,816997,1360,-16177,-2587,31,-95,-20
7,91,817002,1405,-16210,-2727,27,-81,-18
7,92,817007,1368,-16226,-2585,26,-58,-20
7,93,817012,1358,-16276,-2521,25,-39,-22
7,94,817017,1379,-16318,-2617,25,-28,-21
7,95,817022,1368,-16362,-2589,26,-15,-22
7,96,817027,1311,-16394,-2552,24,4,-25
7,97,817032,1303,-16420,-2422,24,15,-24
7,98,817037,1316,-16487,-2402,22,17,-24
7,99,817042,1339,-16501,-2347,22,17,-26
7,100,817047,1361,-16550,-2388,25,10,-27
7,101,817052,1334,-16503,-2427,24,4,-24
7,102,817057,1325,-16533,-2466,23,3,-22
7,103,817062,1386,-16529,-2568,23,4,-24
7,104,817067,1463,-16490,-2559,24,7,-25
7,105,817072,1471,-16449,-2503,20,16,-26
7,106,817077,1460,-16322,-2499,23,21,-24
7,107,817082,1402,-16349,-2488,25,17,-21
7,108,817087,1375,-16242,-2509,24,9,-18
7,109,817092,1405,-16226,-2455,26,8,-18
7,110,817097,1425,-16254,-2507,25,8,-18
7,111,817102,1364,-16302,-2594,24,10,-16
7,112,817107,1416,-16242,-2668,26,19,-16
7,113,817112,1362,-16186,-2684,26,34,-16
7,114,817117,1276,-16186,-2746,25,47,-16
7,115,817122,1317,-16172,-2733,26,61,-14
7,116,817127,1404,-16190,-2708,24,82,-12
7,117,817132,1509,-16129,-2681,25,98,-11
7,118,817137,1494,-16181,-2438,21,110,-12
7,119,817142,1395,-16217,-2286,22,102,-15
7,120,817147,1407,-16118,-2258,24,82,-13
7,121,817152,1488,-16093,-2269,25,62,-7
7,122,817157,1518,-16128,-2222,29,44,-4
7,123,817162,1473,-16144,-2088,28,21,-2
7,124,817167,1422,-16123,-2114,32,-14,2
7,125,817172,1475,-16117,-2299,33,-48,6
7,126,817177,1561,-16107,-2580,33,-66,9
7,127,817182,1576,-16057,-2607,34,-62,12
7,128,817187,1533,-16069,-2599,32,-55,14
7,129,817192,1499,-16073,-2594,33,-54,13
7,130,817197,1459,-16095,-2701,31,-49,15
7,131,817202,1358,-16093,-2649,33,-34,18
7,132,817207,1326,-16047,-2691,35,-16,19
7,133,817212,1312,-16001,-2594,34,2,19
7,134,817217,1340,-15996,-2530,31,11,21
7,135,817222,1355,-16001,-2528,29,16,24
7,136,817227,1414,-15927,-2454,31,28,22
7,137,817232,1395,-15888,-2338,31,32,20
7,138,817237,1342,-15934,-2311,32,26,25
7,139,817242,1291,-16003,-2316,33,17,29
7,140,817247,1347,-16029,-2365,32,10,28
7,141,817252,1373,-16039,-2318,31,9,27
7,142,817257,1413,-16108,-2304,31,0,32
7,143,817262,1460,-16073,-2250,31,-2,35
7,144,817267,1467,-16074,-2195,36,-3,36
7,145,817272,1429,-16095,-2231,35,-10,41
7,146,817277,1366,-16135,-2251,36,-21,42
7,147,817282,1367,-16111,-2345,34,-29,45
7,148,817287,1306,-16133,-2341,36,-27,46
7,149,817292,1330,-16208,-2389,35,-23,47
7,150,817297,1331,-16311,-2408,33,-19,48
7,151,817302,1300,-16350,-2514,36,-6,49
7,152,817307,1197,-16323,-2577,36,18,46
7,153,817312,989,-16415,-2522,33,45,42
7,154,817317,895,-16465,-2798,34,70,42
7,155,817322,939,-16456,-2854,35,113,44
7,156,817327,1154,-16520,-2828,34,153,43
7,157,817332,1309,-16564,-2721,29,189,45
7,158,817337,1351,-16610,-2451,30,218,42
7,159,817342,1335,-16598,-2338,32,221,42
7,160,817347,1377,-16585,-2156,32,220,39
7,161,817352,1426,-16497,-1820,32,206,43
7,162,817357,1355,-16419,-1578,33,171,47
7,163,817362,1293,-16389,-1457,41,116,49
7,164,817367,1232,-16403,-1627,42,53,53
7,165,817372,1213,-16402,-1960,47,3,58
7,166,817377,1330,-16372,-2279,52,-26,59
7,167,817382,1431,-16363,-2479,50,-31,59
7,168,817387,1463,-16292,-2565,49,-20,59
7,169,817392,1396,-16302,-2556,51,-2,60
7,170,817397,1311,-16357,-2646,53,13,58
7,171,817402,1237,-16335,-2730,52,37,57
7,172,817407,1250,-16248,-2626,51,65,57
7,173,817412,1225,-16265,-2382,50,80,56
7,174,817417,1162,-16299,-2251,50,78,53
7,175,817422,1108,-16282,-2349,53,68,54
7,176,817427,1090,-16296,-2250,57,60,54
7,177,817432,1036,-16353,-2202,56,48,51
7,178,817437,1042,-16357,-2153,55,35,52
7,179,817442,1202,-16394,-2397,60,23,48
7,180,817447,1226,-16390,-2439,62,35,46
7,181,817452,1206,-16417,-2361,58,43,45
7,182,817457,1128,-16459,-2340,56,44,40
7,183,817462,1137,-16524,-2403,56,45,36
7,184,817467,1170,-16456,-2332,55,53,37
7,185,817472,1198,-16415,-2177,54,69,35
7,186,817477,1279,-16364,-2080,55,78,31
7,187,817482,1298,-16376,-2080,54,73,29
7,188,817487,1264,-16321,-2071,55,58,30
7,189,817492,1268,-16271,-2041,52,38,30
7,190,817497,1330,-16232,-1957,52,18,31
7,191,817502,1357,-16223,-1949,53,0,27
7,192,817507,1435,-16224,-2013,52,-15,26
7,193,817512,1403,-16207,-2037,52,-25,25
7,194,817517,1426,-16222,-2057,53,-36,26
7,195,817522,1356,-16164,-2132,51,-47,23
7,196,817527,1377,-16165,-2274,47,-52,27
7,197,817532,1360,-16170,-2338,48,-46,23
7,198,817537,1403,-16136,-2288,47,-40,21
7,199,817542,1310,-16137,-2312,45,-30,20
7,200,817547,1297,-16153,-2355,42,-17,16
7,201,817552,1272,-16197,-2360,38,-8,13
7,202,817557,1268,-16198,-2333,35,0,12
7,203,817562,1289,-16213,-2317,35,7,8
7,204,817567,1297,-16228,-2298,37,19,7
7,205,817572,1342,-16200,-2262,34,28,4
7,206,817577,1316,-16168,-2192,30,33,4
7,207,817582,1352,-16168,-2122,28,37,1
7,208,817587,1367,-16189,-2029,26,28,1
7,209,817592,1410,-16191,-1943,25,10,1
7,210,817597,1453,-16237,-1913,21,-4,0
7,211,817602,1449,-16223,-1965,24,-17,-4
7,212,817607,1440,-16216,-2024,25,-31,-3
7,213,817612,1434,-16196,-2049,21,-41,-3
7,214,817617,1446,-16213,-2124,19,-47,-4
7,215,817622,1487,-16225,-2179,17,-47,-4
7,216,817627,1508,-16199,-2108,16,-47,-5
7,217,817632,1516,-16190,-2112,14,-48,-7
7,218,817637,1490,-16220,-2152,13,-46,-7
7,219,817642,1379,-16251,-2226,6,-48,-10
7,220,817647,1334,-16309,-2271,6,-51,-11
7,221,817652,1328,-16272,-2260,5,-46,-12
7,222,817657,1294,-16254,-2290,5,-36,-13
7,223,817662,1354,-16259,-2400,3,-23,-16
7,224,817667,1315,-16307,-2432,0,-12,-16
7,225,817672,1278,-16325,-2394,-1,-6,-18
7,226,817677,1280,-16336,-2348,-2,-3,-21
7,227,817682,1269,-16361,-2348,-2,1,-20
7,228,817687,1264,-16340,-2277,-2,10,-24
7,229,817692,1280,-16319,-2271,-3,13,-24
7,230,817697,1287,-16321,-2178,-4,10,-24
7,231,817702,1284,-16355,-2069,-7,0,-25
7,232,817707,1277,-16376,-2017,-5,-17,-27
7,233,817712,1340,-16446,-1978,-4,-30,-29
7,234,817717,1344,-16492,-2005,-5,-43,-28
7,235,817722,1329,-16469,-2085,-1,-57,-27
7,236,817727,1282,-16426,-2183,-5,-67,-27
7,237,817732,1313,-16463,-2229,-5,-71,-26
7,238,817737,1294,-16474,-2234,-9,-70,-28
7,239,817742,1280,-16460,-2268,-8,-67,-30
7,240,817747,1324,-16440,-2271,-8,-58,-29
7,241,817752,1325,-16405,-2282,-10,-49,-31
7,242,817757,1321,-16387,-2383,-10,-41,-30
7,243,817762,1296,-16360,-2397,-12,-34,-34
7,244,817767,1242,-16378,-2349,-12,-30,-33
7,245,817772,1278,-16338,-2381,-12,-23,-30
7,246,817777,1263,-16299,-2355,-13,-15,-35
7,247,817782,1285,-16265,-2360,-12,-8,-36
7,248,817787,1247,-16238,-2291,-15,-4,-37
7,249,817792,1194,-16290,-2250,-14,-9,-34
7,250,817797,1190,-16307,-2234,-16,-9,-35
7,251,817802,1218,-16342,-2238,-14,-10,-38
7,252,817807,1219,-16336,-2188,-11,-9,-40
7,253,817812,1152,-16294,-2213,-12,-9,-41
7,254,817817,1206,-16285,-2182,-14,-9,-40
7,255,817822,1259,-16285,-2121,-15,-7,-35
7,256,817827,1341,-16272,-1993,-18,-5,-37
7,257,817832,1330,-16289,-1925,-16,-8,-38
7,258,817837,1235,-16279,-2018,-14,-21,-37
7,259,817842,1263,-16227,-2097,-16,-32,-37
7,260,817847,1266,-16293,-2122,-15,-41,-38
7,261,817852,1285,-16292,-2194,-16,-46,-35
7,262,817857,1349,-16278,-2117,-16,-40,-35
7,263,817862,1388,-16321,-2110,-16,-34,-37
7,264,817867,1343,-16313,-2155,-15,-31,-37
7,265,817872,1308,-16295,-2208,-18,-32,-35
7,266,817877,1248,-16290,-2247,-19,-29,-38
7,267,817882,1233,-16259,-2324,-17,-20,-34
7,268,817887,1266,-16214,-2305,-16,-3,-34
7,269,817892,1312,-16206,-2229,-18,16,-37
7,270,817897,1311,-16208,-2145,-19,24,-34
7,271,817902,1336,-16188,-2035,-22,28,-35
7,272,817907,1290,-16134,-1983,-18,22,-34
7,273,817912,1278,-16137,-1988,-18,15,-33
7,274,817917,1260,-16147,-1997,-17,9,-31
7,275,817922,1298,-16144,-2012,-16,-1,-29
7,276,817927,1294,-16157,-1993,-17,-15,-26
7,277,817932,1303,-16191,-2016,-15,-29,-30
7,278,817937,1325,-16218,-2059,-14,-40,-26
7,279,817942,1348,-16226,-2079,-15,-47,-27
7,280,817947,1337,-16273,-2060,-14,-52,-26
7,281,817952,1289,-16279,-2080,-13,-50,-22
7,282,817957,1242,-16325,-2131,-13,-57,-25
7,283,817962,1227,-16352,-2158,-13,-60,-23
7,284,817967,1247,-16414,-2228,-11,-56,-21
7,285,817972,1232,-16422,-2259,-10,-46,-21
7,286,817977,1301,-16447,-2223,-10,-32,-22
7,287,817982,1284,-16460,-2298,-12,-22,-22
7,288,817987,1161,-16400,-2280,-13,-14,-22
7,289,817992,1140,-16353,-2228,-11,-5,-23
7,290,817997,1181,-16350,-2230,-10,6,-22
7,291,818002,1263,-16331,-2258,-10,23,-20
7,292,818007,1291,-16252,-2174,-14,35,-22
7,293,818012,1283,-16184,-2095,-13,33,-23
7,294,818017,1282,-16174,-1996,-11,17,-23
7,295,818022,1285,-16185,-1941,-10,-4,-18
7,296,818027,1272,-16173,-1984,-7,-24,-15
7,297,818032,1311,-16140,-2047,-6,-41,-14
7,298,818037,1353,-16110,-2182,-5,-52,-13
7,299,818042,1330,-16163,-2238,-3,-60,-12
7,300,818047,1356,-16194,-2321,-1,-64,-8
7,301,818052,1293,-16196,-2387,-1,-57,-10
7,302,818057,1326,-16217,-2421,0,-45,-10
7,303,818062,1315,-16206,-2431,3,-30,-8
7,304,818067,1300,-16188,-2411,0,-12,-8
7,305,818072,1281,-16253,-2285,1,-2,-9
7,306,818077,1237,-16234,-2216,0,-1,-9
7,307,818082,1226,-16243,-2192,3,-2,-6
7,308,818087,1238,-16303,-2187,5,-2,-7
7,309,818092,1239,-16266,-2228,6,-1,-9
7,310,818097,1260,-16259,-2274,6,3,-5
7,311,818102,1270,-16274,-2224,4,11,-6
7,312,818107,1317,-16286,-2128,3,18,-7
7,313,818112,1269,-16350,-2047,4,18,-8
7,314,818117,1294,-16417,-2088,5,10,-4
7,315,818122,1304,-16395,-2137,6,4,-4
7,316,818127,1321,-16379,-2179,5,1,-5
7,317,818132,1312,-16382,-2178,6,2,-1
7,318,818137,1362,-16351,-2122,6,3,0
7,319,818142,1375,-16350,-2171,5,2,-1
7,320,818147,1345,-16329,-2174,4,-2,-3
7,321,818152,1359,-16285,-2174,9,-8,-3
7,322,818157,1365,-16277,-2160,11,-12,-1
7,323,818162,1334,-16298,-2175,6,-15,1
7,324,818167,1317,-16273,-2153,7,-19,0
7,325,818172,1294,-16250,-2218,12,-23,0
7,326,818177,1310,-16237,-2288,9,-16,1
7,327,818182,1345,-16208,-2403,9,10,0
7,328,818187,1304,-16195,-2428,9,18,0
7,329,818192,1333,-16147,-2368,7,33,-1
7,330,818197,1346,-16125,-2308,3,45,-2
7,331,818202,1349,-16113,-2242,3,53,-1
7,332,818207,1365,-16105,-2155,7,59,-2
7,333,818212,1355,-16121,-2100,5,51,-1
7,334,818217,1361,-16103,-2081,7,35,0
7,335,818222,1360,-16148,-2052,8,14,1
7,336,818227,1420,-16109,-2067,7,2,4
7,337,818232,1423,-16113,-2083,7,-10,3
7,338,818237,1404,-16097,-2132,7,-21,0
7,339,818242,1414,-16099,-2206,6,-29,2
7,340,818247,1421,-16138,-2206,5,-29,2
7,341,818252,1430,-16114,-2228,7,-25,4
7,342,818257,1438,-16167,-2251,6,-18,6
7,343,818262,1499,-16190,-2222,7,-12,5
7,344,818267,1402,-16169,-2197,5,-8,0
7,345,818272,1330,-16133,-2221,7,-10,1
7,346,818277,1375,-16144,-2228,3,-10,3
7,347,818282,1437,-16150,-2216,0,-2,4
7,348,818287,1447,-16193,-2168,-1,8,4
7,349,818292,1429,-16242,-2091,0,11,3
7,350,818297,1406,-16240,-2133,2,2,2
7,351,818302,1432,-16262,-2132,-1,-4,4
7,352,818307,1452,-16251,-2163,-1,-3,8
7,353,818312,1375,-16208,-2153,-2,-4,7
7,354,818317,1414,-16211,-2123,-3,-2,5
7,355,818322,1422,-16192,-2116,-3,-2,3
7,356,818327,1406,-16248,-2132,-5,-7,6
7,357,818332,1426,-16224,-2097,-6,-11,6
7,358,818337,1395,-16303,-2025,-5,-22,5
7,359,818342,1375,-16297,-2101,-8,-35,5
7,360,818347,1366,-16305,-2162,-4,-40,7
7,361,818352,1366,-16378,-2180,-4,-40,4
7,362,818357,1401,-16473,-2221,-7,-38,6
7,363,818362,1289,-16458,-2274,-9,-36,4
7,364,818367,1280,-16417,-2293,-5,-34,3
7,365,818372,1341,-16362,-2361,-7,-27,3
7,366,818377,1387,-16304,-2449,-10,-17,1
7,367,818382,1380,-16254,-2385,-8,2,1
7,368,818387,1331,-16261,-2272,-8,12,-1
7,369,818392,1301,-16270,-2202,-9,6,1
7,370,818397,1240,-16273,-2174,-9,-4,0
7,371,818402,1297,-16265,-2287,-8,-9,0
7,372,818407,1368,-16293,-2265,-9,-6,-1
7,373,818412,1310,-16279,-2211,-8,-11,-2
7,374,818417,1284,-16268,-2276,-8,-18,-2
7,375,818422,1226,-16277,-2352,-9,-22,-2
7,376,818427,1296,-16302,-2388,-8,-20,-5
7,377,818432,1347,-16327,-2363,-10,-9,-4
7,378,818437,1339,-16328,-2249,-9,-3,-4
7,379,818442,1354,-16328,-2197,-6,-9,-3
7,380,818447,1338,-16298,-2192,-7,-18,-1
7,381,818452,1323,-16299,-2224,-6,-24,-4
7,382,818457,1301,-16325,-2211,-6,-25,-4
7,383,818462,1247,-16302,-2131,-6,-29,-2
7,384,818467,1229,-16299,-2159,-6,-35,-5
7,385,818472,1258,-16314,-2243,-5,-38,-5
7,386,818477,1295,-16287,-2270,-6,-34,-7
7,387,818482,1348,-16265,-2329,-7,-24,-8
7,388,818487,1288,-16253,-2383,-6,-13,-6
7,389,818492,1238,-16249,-2349,-6,-8,-8
7,390,818497,1236,-16244,-2368,-8,-7,-11
7,391,818502,1231,-16236,-2402,-10,0,-10
7,392,818507,1289,-16230,-2351,-7,8,-10
7,393,818512,1298,-16228,-2236,-8,16,-13
7,394,818517,1281,-16254,-2190,-8,18,-13
7,395,818522,1298,-16177,-2179,-8,14,-13
7,396,818527,1362,-16164,-2193,-6,10,-12
7,397,818532,1416,-16135,-2120,-9,6,-14
7,398,818537,1387,-16113,-2084,-8,2,-11
7,399,818542,1490,-16067,-2065,-7,-2,-10
7,400,818547,1544,-16032,-2140,-10,-21,-12
7,401,818552,1541,-15976,-2115,-8,-30,-11
7,402,818557,1489,-15968,-2094,-8,-38,-9
7,403,818562,1437,-16044,-2201,-7,-53,-6
7,404,818567,1370,-16078,-2281,-7,-56,-6
7,405,818572,1367,-16106,-2280,-8,-55,-7
7,406,818577,1381,-16136,-2355,-7,-45,-6
7,407,818582,1362,-16178,-2420,-8,-32,-6
7,408,818587,1309,-16211,-2360,-8,-14,-7
7,409,818592,1267,-16222,-2385,-7,0,-9
7,410,818597,1309,-16205,-2397,-8,14,-9
7,411,818602,1276,-16205,-2286,-10,30,-10
7,412,818607,1304,-16209,-2212,-11,37,-8
7,413,818612,1304,-16232,-2155,-11,35,-9
7,414,818617,1336,-16208,-2096,-10,26,-6
7,415,818622,1428,-16152,-2017,-9,13,-3
7,416,818627,1430,-16111,-1917,-6,0,-4
7,417,818632,1366,-16149,-2047,-9,-17,-7
7,418,818637,1245,-16117,-2156,-4,-37,-2
7,419,818642,1281,-16097,-2296,-6,-52,1
7,420,818647,1419,-16044,-2325,-5,-58,2
7,421,818652,1491,-16054,-2215,-7,-60,0
7,422,818657,1406,-16071,-2192,-7,-68,3
7,423,818662,1272,-16125,-2316,0,-74,3
7,424,818667,1286,-16146,-2464,0,-74,6
7,425,818672,1329,-16167,-2487,-5,-66,5
7,426,818677,1355,-16099,-2367,-5,-51,3
7,427,818682,1298,-16128,-2241,-2,-42,3
7,428,818687,1174,-16169,-2283,-1,-45,5
7,429,818692,1177,-16107,-2417,0,-54,9
7,430,818697,1135,-16066,-2440,-2,-51,8
7,431,818702,1154,-16065,-2445,-4,-44,7
7,432,818707,1157,-16051,-2420,-2,-34,9
7,433,818712,1278,-16125,-2433,-3,-27,11
7,434,818717,1287,-16105,-2350,-1,-20,8
7,435,818722,1241,-16102,-2194,1,-22,7
7,436,818727,1209,-16112,-2249,0,-34,10
7,437,818732,1129,-16095,-2294,2,-47,11
7,438,818737,1087,-16076,-2394,4,-54,12
7,439,818742,1151,-16122,-2384,-1,-60,15
7,440,818747,1215,-16076,-2338,2,-65,19
7,441,818752,1304,-16107,-2385,3,-62,19
7,442,818757,1247,-16152,-2489,-1,-51,20
7,443,818762,1105,-16204,-2441,2,-43,21
7,444,818767,1014,-16205,-2432,2,-44,19
7,445,818772,1024,-16302,-2453,1,-51,24
7,446,818777,1083,-16267,-2400,-2,-54,29
7,447,818782,1126,-16264,-2208,-5,-58,31
7,448,818787,1046,-16316,-2112,-4,-70,32
7,449,818792,908,-16329,-2072,-3,-92,37
7,450,818797,842,-16291,-2151,-6,-117,39
7,451,818802,732,-16353,-2094,-9,-141,43
7,452,818807,714,-16411,-2233,-10,-169,50
7,453,818812,754,-16307,-2269,-19,-193,54
7,454,818817,921,-16137,-2101,-20,-213,60
7,455,818822,1121,-16004,-2227,-23,-221,66
7,456,818827,962,-15962,-2075,-22,-214,70
7,457,818832,743,-16002,-2217,-24,-234,74
7,458,818837,563,-15917,-2077,-27,-274,80
7,459,818842,291,-15996,-2246,-35,-334,87
7,460,818847,430,-16206,-2620,-33,-383,95
7,461,818852,538,-16035,-2189,-38,-395,102
7,462,818857,451,-15992,-2132,-46,-410,107
7,463,818862,86,-16228,-2717,-46,-429,111
7,464,818867,138,-16333,-3080,-50,-443,121
7,465,818872,316,-16145,-3096,-62,-438,132
7,466,818877,500,-16148,-2782,-73,-416,138
7,467,818882,32,-16291,-2748,-80,-396,144
7,468,818887,-157,-16509,-2908,-85,-383,149
7,469,818892,-228,-16422,-3250,-95,-367,159
7,470,818897,-12,-16365,-3336,-102,-332,165
7,471,818902,102,-16398,-3063,-116,-286,173
7,472,818907,146,-16346,-2844,-126,-251,183
7,473,818912,-17,-16282,-3005,-136,-241,191
7,474,818917,75,-16136,-3050,-151,-243,216
7,475,818922,39,-16037,-2869,-163,-239,226
7,476,818927,-13,-16002,-2947,-170,-250,239
7,477,818932,-101,-16045,-3017,-177,-255,252
7,478,818937,-264,-16062,-3127,-183,-261,267
7,479,818942,-161,-16042,-3459,-195,-270,284
7,480,818947,-119,-15918,-3333,-207,-259,296
7,481,818952,-125,-15997,-3211,-217,-247,308
7,482,818957,-161,-16073,-3414,-224,-236,322
7,483,818962,-297,-16146,-3273,-234,-217,337
7,484,818967,-382,-16192,-3408,-245,-200,351
7,485,818972,-648,-16358,-3457,-259,-186,364
7,486,818977,-556,-16392,-3496,-275,-173,380
7,487,818982,-245,-16410,-3424,-287,-140,398
7,488,818987,-70,-16391,-3395,-298,-94,411
7,489,818992,-317,-16483,-3470,-307,-57,420
7,490,818997,-507,-16528,-3441,-319,-35,434
7,491,819002,-547,-16418,-3412,-334,-33,452
7,492,819007,-396,-16371,-3289,-346,-24,469
7,493,819012,-383,-16373,-3011,-358,-12,485
7,494,819017,-475,-16404,-3034,-367,-8,499
7,495,819022,-621,-16428,-3335,-371,-22,513
7,496,819027,-641,-16364,-3490,-381,-41,534
7,497,819032,-509,-16293,-3447,-395,-60,554
7,498,819037,-388,-16288,-3268,-409,-64,569
7,499,819042,-428,-16252,-3076,-416,-73,583
7,500,819047,-626,-16198,-3211,-421,-100,600
7,501,819052,-684,-16144,-3548,-428,-127,621
7,502,819057,-493,-16079,-3667,-440,-146,640
7,503,819062,-389,-16040,-3547,-451,-147,657
7,504,819067,-554,-16101,-3348,-463,-145,672
7,505,819072,-739,-16153,-3504,-466,-161,688
7,506,819077,-824,-16147,-3809,-473,-166,704
7,507,819082,-803,-16082,-4147,-484,-149,723
7,508,819087,-774,-16091,-4061,-497,-108,736
7,509,819092,-729,-16108,-3607,-511,-76,750
7,510,819097,-853,-16125,-3390,-521,-69,763
7,511,819102,-1111,-16163,-3479,-526,-76,777
7,512,819107,-1268,-16160,-3831,-527,-93,792
7,513,819112,-1317,-16226,-4188,-536,-109,808
7,514,819117,-1182,-16242,-4276,-545,-99,824
7,515,819122,-1003,-16099,-4353,-559,-78,833
7,516,819127,-978,-16057,-4274,-568,-40,841
7,517,819132,-1172,-16054,-4127,-572,2,849
7,518,819137,-1297,-16078,-4352,-576,7,863
7,519,819142,-1423,-15981,-3888,-583,1,877
7,520,819147,-1409,-15917,-3458,-593,-42,890
7,521,819152,-1348,-15897,-3252,-599,-103,901
7,522,819157,-1513,-15773,-3238,-594,-156,912
7,523,819162,-1592,-15767,-3933,-588,-217,924
7,524,819167,-1881,-15799,-4452,-586,-251,934
7,525,819172,-1998,-15791,-4932,-592,-274,944
7,526,819177,-1976,-15713,-5156,-604,-260,952
7,527,819182,-1801,-15719,-5141,-610,-204,957
7,528,819187,-1831,-15665,-5255,-611,-122,957
7,529,819192,-2083,-15643,-5072,-614,-47,958
7,530,819197,-2260,-15587,-4890,-614,-15,965
7,531,819202,-2312,-15501,-4548,-617,-23,970
7,532,819207,-2326,-15475,-4114,-620,-58,975
7,533,819212,-2288,-15465,-3935,-615,-110,979
7,534,819217,-2467,-15535,-3945,-606,-176,980
7,535,819222,-2778,-15607,-4377,-597,-251,986
7,536,819227,-2907,-15673,-5063,-596,-311,989
7,537,819232,-2817,-15666,-5515,-594,-327,991
7,538,819237,-2555,-15611,-5647,-594,-299,992
7,539,819242,-2456,-15522,-5461,-594,-233,989
7,540,819247,-2785,-15527,-5210,-590,-178,981
7,541,819252,-3291,-15532,-5323,-578,-175,977
7,542,819257,-3527,-15510,-5532,-572,-195,976
7,543,819262,-3376,-15491,-5692,-571,-210,976
7,544,819267,-3101,-15465,-5404,-570,-186,970
7,545,819272,-3181,-15584,-5204,-564,-154,960
7,546,819277,-3389,-15613,-5287,-551,-141,947
7,547,819282,-3676,-15569,-5562,-543,-152,938
7,548,819287,-3494,-15373,-5689,-540,-142,928
7,549,819292,-3206,-15330,-5281,-534,-110,917
7,550,819297,-3205,-15274,-4872,-526,-94,905
7,551,819302,-3485,-15289,-4889,-510,-122,894
7,552,819307,-3967,-15255,-5123,-499,-191,886
7,553,819312,-4219,-15239,-5431,-487,-255,877
7,554,819317,-4093,-15263,-5790,-481,-283,868
7,555,819322,-3675,-15305,-5925,-476,-254,856
7,556,819327,-3421,-15293,-6037,-465,-189,840
7,557,819332,-3496,-15294,-6127,-453,-121,820
7,558,819337,-3919,-15272,-6077,-442,-85,801
7,559,819342,-4117,-15238,-6042,-441,-77,784
7,560,819347,-4049,-15096,-5791,-434,-71,770
7,561,819352,-3843,-15041,-5302,-420,-54,754
7,562,819357,-4021,-15078,-4906,-412,-50,732
7,563,819362,-4414,-15177,-5067,-395,-84,709
7,564,819367,-4590,-15360,-5744,-379,-133,693
7,565,819372,-4225,-15309,-6151,-372,-144,678
7,566,819377,-3960,-15199,-6148,-370,-82,656
7,567,819382,-3899,-15237,-5879,-365,-3,629
7,568,819387,-4093,-15232,-5714,-351,58,602
7,569,819392,-4259,-15184,-5842,-336,89,580
7,570,819397,-4400,-15187,-6013,-330,100,556
7,571,819402,-4425,-15096,-5904,-323,107,529
7,572,819407,-4360,-14994,-5638,-314,120,506
7,573,819412,-4197,-14906,-5701,-300,139,482
7,574,819417,-4013,-14858,-5986,-284,167,454
7,575,819422,-3929,-14775,-6071,-269,187,426
7,576,819427,-4031,-14776,-5945,-255,190,400
7,577,819432,-4047,-14758,-5718,-244,180,374
7,578,819437,-3920,-14610,-5568,-230,169,350
7,579,819442,-3882,-14549,-5364,-213,162,325
7,580,819447,-3870,-14571,-5435,-192,148,295
7,581,819452,-3902,-14650,-5532,-177,127,268
7,582,819457,-3924,-14678,-5468,-161,94,249
7,583,819462,-3757,-14638,-5388,-151,63,223
7,584,819467,-3631,-14601,-5286,-134,51,196
7,585,819472,-3669,-14614,-5390,-115,50,168
7,586,819477,-3778,-14617,-5570,-97,62,139
7,587,819482,-3847,-14589,-5740,-80,71,107
7,588,819487,-3942,-14569,-5883,-68,79,79
7,589,819492,-3673,-14562,-5939,-55,100,54
7,590,819497,-3407,-14558,-5754,-43,135,24
7,591,819502,-3310,-14497,-5582,-23,167,-13
7,592,819507,-3518,-14496,-5527,-2,184,-42
7,593,819512,-3772,-14499,-5593,13,194,-73
7,594,819517,-3820,-14449,-5636,29,195,-98
7,595,819522,-3510,-14415,-5619,38,207,-124
7,596,819527,-3202,-14372,-5065,51,231,-155
7,597,819532,-3147,-14383,-4759,69,222,-183
7,598,819537,-3229,-14400,-4794,88,186,-211
7,599,819542,-3368,-14474,-4822,108,141,-235
7,600,819547,-3326,-14424,-5074,132,87,-263
7,601,819569,-2975,-14539,-5627,208,156,-406
7,602,819570,-2975,-14539,-5627,208,156,-406
7,603,819570,-2975,-14539,-5627,208,156,-406
7,604,819571,-2975,-14539,-5627,208,156,-406
7,605,819572,-2975,-14539,-5627,208,156,-406
7,606,819577,-3176,-14568,-5571,225,192,-435
7,607,819582,-3105,-14519,-5435,234,211,-461
7,608,819587,-2895,-14485,-5179,249,233,-489
7,609,819592,-2787,-14536,-4803,262,245,-517
7,610,819597,-2859,-14593,-4722,280,237,-544
7,611,819602,-2831,-14606,-4964,300,212,-568
7,612,819607,-2570,-14573,-5182,314,204,-594
7,613,819612,-2382,-14544,-4818,325,212,-621
7,614,819617,-2479,-14603,-4425,342,202,-646
7,615,819622,-2611,-14750,-4351,360,164,-666
7,616,819627,-2543,-14859,-4558,375,119,-690
7,617,819632,-2323,-14921,-4734,392,87,-712
7,618,819637,-2146,-14983,-4584,402,75,-732
7,619,819642,-2181,-15042,-4195,416,58,-752
7,620,819647,-2295,-15045,-4188,435,15,-776
7,621,819652,-2442,-15252,-4884,471,-61,-817
7,622,819657,-2432,-15336,-5130,484,-66,-841
7,623,819662,-2421,-15472,-5478,495,-45,-863
7,624,819667,-2345,-15493,-5667,507,5,-888
7,625,819672,-2207,-15451,-5818,515,84,-919
7,626,819677,-2207,-15578,-5659,526,175,-943
7,627,819682,-2265,-15735,-5293,535,246,-963
7,628,819687,-2127,-15764,-4702,540,293,-981
7,629,819692,-1857,-15857,-4146,549,300,-1002
7,630,819697,-1825,-15888,-3569,566,281,-1022
7,631,819702,-1969,-15957,-3422,590,214,-1035
7,632,819707,-2152,-16098,-3527,608,119,-1052
7,633,819712,-2028,-16118,-4005,623,27,-1066
7,634,819717,-1745,-16159,-4301,634,-28,-1078
7,635,819722,-1510,-16262,-4389,640,-39,-1096
7,636,819727,-1348,-16293,-4323,652,-21,-1115
7,637,819732,-1331,-16239,-4475,659,-4,-1132
7,638,819737,-1478,-16227,-4175,667,11,-1145
7,639,819742,-1632,-16261,-4406,679,-10,-1157
7,640,819747,-1824,-16311,-4238,687,-19,-1172
7,641,819752,-1651,-16433,-4510,696,-34,-1181
7,642,819757,-1207,-16610,-4811,705,-15,-1191
7,643,819762,-990,-16736,-4554,707,45,-1211
7,644,819767,-1076,-16787,-4344,714,96,-1225
7,645,819772,-1344,-16822,-4181,722,129,-1236
7,646,819777,-1359,-16639,-4122,725,140,-1247
7,647,819782,-1318,-16444,-4056,731,155,-1255
7,648,819787,-1206,-16541,-4001,740,159,-1261
7,649,819792,-1075,-16733,-3877,749,146,-1270
7,650,819797,-744,-16702,-4001,754,126,-1274
7,651,819802,-392,-16523,-4035,760,129,-1280
7,652,819807,-309,-16407,-3701,762,151,-1285
7,653,819812,-491,-16342,-3258,768,159,-1290
7,654,819817,-746,-16347,-2994,780,123,-1291
7,655,819822,-729,-16438,-3092,784,44,-1288
7,656,819827,-336,-16479,-3294,793,-32,-1285
7,657,819832,44,-16484,-3285,795,-71,-1283
7,658,819837,84,-16587,-3436,797,-81,-1290
7,659,819842,-213,-16673,-3814,801,-73,-1295
7,660,819847,-363,-16628,-4186,805,-55,-1295
7,661,819852,-310,-16528,-4463,802,-27,-1294
7,662,819857,-331,-16459,-4198,793,21,-1296
7,663,819862,-460,-16531,-3809,787,51,-1294
7,664,819867,-279,-16322,-3692,782,69,-1290
7,665,819872,169,-16015,-3705,779,96,-1289
7,666,819877,291,-15894,-3725,784,142,-1286
7,667,819882,97,-15928,-3658,789,173,-1286
7,668,819887,-60,-15861,-3609,788,166,-1285
7,669,819892,40,-15816,-3479,785,131,-1274
7,670,819897,329,-15801,-3412,781,97,-1265
7,671,819902,610,-15716,-3046,781,85,-1257
7,672,819907,626,-15659,-2544,784,59,-1251
7,673,819912,488,-15667,-2530,794,-19,-1244
7,674,819917,98,-15730,-2940,802,-118,-1235
7,675,819922,35,-15922,-3648,795,-216,-1222
7,676,819927,374,-15931,-3921,789,-254,-1209
7,677,819932,856,-15768,-3656,778,-232,-1200
7,678,819937,712,-15828,-3450,771,-186,-1198
7,679,819942,264,-16111,-3810,777,-140,-1193
7,680,819947,-121,-16334,-4486,773,-102,-1183
7,681,819952,34,-16360,-4701,758,-47,-1174
7,682,819957,493,-16472,-4643,742,40,-1164
7,683,819962,1162,-16738,-3941,721,161,-1158
7,684,819967,1424,-16715,-3066,712,274,-1151
7,685,819972,1323,-16763,-2513,710,345,-1147
7,686,819977,814,-16732,-2142,706,354,-1133
7,687,819982,689,-16697,-1853,699,308,-1115
7,688,819987,943,-16662,-1609,688,235,-1089
7,689,819992,1710,-16814,-1430,680,172,-1064
7,690,819997,2117,-16976,-1051,675,116,-1045
7,691,820002,2126,-17357,-1100,672,45,-1031
7,692,820007,1865,-17355,-1462,670,-29,-1017
7,693,820012,1762,-17370,-1995,661,-95,-996
7,694,820017,226,-16626,-3067,646,-105,-973
7,695,820022,-2007,-24116,-32768,804,1918,-1080
7,696,820027,-18378,-24500,-32768,332,5454,-929
7,697,820032,-32768,-8338,7302,-497,11533,-726
7,698,820037,-32768,-3428,32767,-623,11762,-117
7,699,820042,-14033,-10722,32767,-158,7851,482
7,700,820047,13694,-13734,32127,403,1316,471
7,701,820052,23660,-17139,13017,948,-6174,586
7,702,820057,-3194,-19195,-24638,988,-10044,679
7,703,820062,-23468,-15527,-32768,581,-11588,741
7,704,820067,-8307,-14060,-30752,224,-10891,836
7,705,820072,13053,-16512,-18914,-71,-5381,911
7,706,820077,19640,-19310,-15957,-70,173,650
7,707,820082,9451,-16186,-16988,-3,2156,296
7,708,820087,-5164,-16821,-13003,59,2114,318
7,709,820092,-10840,-16230,-1429,22,1314,420
7,710,820097,-2573,-15316,-1411,-29,466,569
7,711,820102,7751,-15808,7419,-148,1195,570
7,712,820107,7126,-16968,10784,-123,1504,508
7,713,820112,1639,-17398,2523,13,715,428
7,714,820117,-3413,-15834,2227,-9,-313,403
7,715,820122,-2605,-16872,-503,5,-1428,519
7,716,820127,1678,-16451,-8179,-48,-1782,595
7,717,820132,5949,-17180,-4403,-40,-1015,581
7,718,820137,4550,-17259,-5457,8,-294,499
7,719,820142,1795,-17685,-3275,1,263,411
7,720,820147,-1162,-18021,-4933,-23,249,406
7,721,820152,155,-17904,-7605,-95,20,428
7,722,820157,1528,-17292,-2690,-174,128,436
7,723,820162,3277,-17091,2482,-179,273,416
7,724,820167,3118,-17165,2909,-122,320,386
7,725,820172,2219,-17252,35,-51,217,364
7,726,820177,1020,-17306,-4143,-39,-37,366
7,727,820182,862,-17087,-4262,-90,-229,376
7,728,820187,1581,-16706,-1971,-153,-304,378
7,729,820192,2760,-16703,72,-156,-212,371
7,730,820197,3414,-16841,-1695,-118,-41,340
7,731,820202,2816,-16990,-3402,-84,174,306
7,732,820207,1549,-16827,-4347,-107,231,288
7,733,820212,964,-16493,-2636,-145,173,297
7,734,820217,1849,-16256,-102,-179,48,304
7,735,820222,3169,-16319,660,-166,-12,299
7,736,820227,3528,-16578,-120,-135,12,278
7,737,820232,2358,-16466,-1622,-110,24,252
7,738,820237,1188,-16355,-2811,-116,-75,246
7,739,820242,1094,-16162,-2689,-144,-187,250
7,740,820247,2180,-16097,-2265,-161,-232,255
7,741,820252,3061,-16146,-1598,-164,-126,238
7,742,820257,2823,-16241,-1734,-146,10,211
7,743,820262,1901,-16267,-2367,-126,73,194
7,744,820267,1376,-16288,-3195,-128,30,183
7,745,820272,1460,-16210,-2966,-146,-22,183
7,746,820277,2068,-16158,-1884,-164,-18,176
7,747,820282,2522,-16137,-734,-166,32,162
7,748,820287,2476,-16185,-751,-143,67,146
7,749,820292,1948,-16202,-1418,-124,51,132
7,750,820297,1494,-16240,-2198,-124,-26,128
7,751,820302,1548,-16170,-2129,-139,-101,124
7,752,820307,1923,-16056,-1388,-154,-126,120
7,753,820312,2319,-16031,-987,-152,-100,112
7,754,820317,2331,-16001,-1287,-134,-51,97
7,755,820322,2150,-16023,-1752,-126,-26,89
7,756,820327,2021,-16036,-1807,-132,-46,85
7,757,820332,1994,-16119,-1235,-143,-100,84
7,758,820337,2053,-16204,-432,-150,-165,81
7,759,820342,2070,-16309,-302,-136,-221,78
7,760,820347,1910,-16404,-919,-121,-255,72
7,761,820352,1635,-16473,-1823,-113,-266,62
7,762,820357,1492,-16506,-2565,-117,-265,58
7,763,820362,1526,-16565,-2718,-133,-236,52
7,764,820367,1837,-16503,-2416,-144,-162,46
7,765,820372,2004,-16439,-1986,-145,-60,32
7,766,820377,1930,-16422,-1723,-136,26,25
7,767,820382,1600,-16438,-1621,-129,59,18
7,768,820387,1363,-16336,-1481,-131,32,11
7,769,820392,1372,-16246,-1361,-132,-76,15
7,770,820397,1689,-16277,-1464,-128,-88,15
7,771,820402,1995,-16224,-1823,-119,-69,11
7,772,820407,2053,-16192,-2153,-115,-29,7
7,773,820412,1842,-16227,-2050,-115,-1,5
7,774,820417,1712,-16259,-1860,-118,1,5
7,775,820422,1743,-16260,-1645,-116,-4,4
7,776,820427,1872,-16280,-1444,-115,-3,6
7,777,820432,1963,-16280,-1442,-107,-6,7
7,778,820437,1891,-16290,-1554,-102,-23,6
7,779,820442,1725,-16354,-1641,-98,-51,10
7,780,820447,1579,-16414,-1737,-98,-83,10
7,781,820452,1677,-16437,-1838,-98,-90,10
7,782,820457,1677,-16396,-1786,-94,-67,11
7,783,820462,1600,-16250,-1760,-94,-41,10
7,784,820467,1442,-16184,-1918,-92,-23,11
7,785,820472,1503,-16157,-2034,-88,-18,11
7,786,820477,1528,-16106,-2011,-86,-9,11
7,787,820482,1395,-16036,-1848,-86,1,10
7,788,820487,1270,-16021,-1849,-85,11,12
7,789,820492,1356,-16060,-2046,-82,24,14
7,790,820497,1533,-16057,-2088,-80,42,16
7,791,820502,1628,-16041,-1864,-82,56,13
7,792,820507,1527,-16038,-1579,-81,57,14
7,793,820512,1308,-16013,-1483,-74,37,14
7,794,820517,1173,-16034,-1567,-70,7,19
7,795,820522,1176,-16103,-1752,-65,-17,24
7,796,820527,1296,-16124,-1791,-61,-39,26
7,797,820532,1428,-16169,-1797,-59,-62,27
7,798,820537,1421,-16203,-1892,-55,-76,24
7,799,820542,1320,-16120,-2124,-51,-89,27
7,800,820547,1141,-16019,-2335,-48,-83,27
7,801,820552,1114,-16007,-2481,-45,-65,28
7,802,820557,1179,-16021,-2477,-44,-39,30
7,803,820562,1222,-16000,-2411,-45,-18,29
7,804,820567,1172,-15984,-2288,-44,-6,28
7,805,820572,1133,-15982,-2414,-40,-5,27
7,806,820577,1105,-15936,-2488,-33,12,26
7,807,820582,1069,-15867,-2503,-28,33,25
7,808,820587,1130,-15888,-2461,-27,48,26
7,809,820592,1126,-15918,-2231,-28,51,26
7,810,820597,1004,-15967,-2136,-23,39,27
7,811,820602,967,-16055,-2204,-16,24,27
7,812,820607,1026,-16100,-2238,-14,23,27
7,813,820612,1090,-16248,-2264,-12,35,28
7,814,820617,1217,-16287,-2179,-12,39,26
7,815,820622,1220,-16295,-2048,-14,42,23
7,816,820627,1216,-16301,-2037,-9,35,23
7,817,820632,1079,-16256,-2101,-6,33,21
7,818,820637,970,-16279,-2065,-5,29,22
7,819,820642,1047,-16238,-1968,-3,18,26
7,820,820647,1194,-16221,-1971,-2,2,27
7,821,820652,1226,-16220,-2061,1,-17,24
7,822,820657,1233,-16245,-2136,4,-27,26
7,823,820662,1244,-16215,-2244,7,-28,27
7,824,820667,1242,-16213,-2275,10,-23,30
7,825,820672,1212,-16287,-2129,9,-12,27
7,826,820677,1131,-16424,-2038,11,-18,26
7,827,820682,1016,-16541,-2093,11,-29,25
7,828,820687,1123,-16565,-2302,13,-38,28
7,829,820692,1250,-16550,-2461,11,-21,26
7,830,820697,1366,-16489,-2451,8,17,23
7,831,820702,1254,-16416,-2304,9,53,21
7,832,820707,1190,-16354,-2227,10,66,21
7,833,820712,1136,-16362,-2216,11,64,20
7,834,820717,1161,-16343,-2164,16,59,22
7,835,820722,1156,-16324,-2074,15,51,23
7,836,820727,1152,-16404,-2040,16,37,24
7,837,820732,1166,-16486,-2156,18,18,25
7,838,820737,1169,-16515,-2147,19,3,25
7,839,820742,1097,-16539,-2178,18,3,21
7,840,820747,1082,-16553,-2208,19,8,19
7,841,820752,1041,-16582,-2242,21,5,17
7,842,820757,1024,-16598,-2192,21,1,18
7,843,820762,1133,-16719,-2187,20,-6,16
7,844,820767,1152,-16624,-2157,22,-8,17
7,845,820772,1070,-16612,-2282,23,-6,12
7,846,820777,1072,-16577,-2335,22,-3,14
7,847,820782,1109,-16530,-2366,26,-1,15
7,848,820787,1182,-16512,-2358,26,0,12
7,849,820792,1264,-16498,-2247,24,1,11
7,850,820797,1284,-16462,-2115,22,-1,12
7,851,820802,1284,-16421,-2104,26,-9,12
7,852,820807,1225,-16332,-2145,26,-16,13
7,853,820812,1140,-16295,-2202,28,-28,14
7,854,820817,1071,-16384,-2285,32,-42,13
7,855,820822,1099,-16406,-2349,30,-50,12
7,856,820827,1200,-16435,-2473,28,-44,13
7,857,820832,1326,-16411,-2456,28,-23,11
7,858,820837,1307,-16358,-2308,28,6,10
7,859,820842,1218,-16289,-2182,26,26,7
7,860,820847,1143,-16268,-2055,24,28,9
7,861,820852,1077,-16271,-1972,24,21,10
7,862,820857,1071,-16249,-1859,22,10,8
7,863,820862,1196,-16188,-1795,23,1,9
7,864,820867,1288,-16150,-1871,22,-6,9
7,865,820872,1234,-16127,-1989,25,-17,7
7,866,820877,1232,-16089,-2089,25,-28,7
7,867,820882,1158,-16076,-2110,21,-33,9
7,868,820887,1190,-16065,-2075,20,-35,9
7,869,820892,1237,-16086,-2054,19,-28,5
7,870,820897,1296,-16035,-2168,17,-15,3
7,871,820902,1300,-15962,-2209,17,-7,3
7,872,820907,1281,-15972,-2174,16,-8,8
7,873,820912,1286,-15948,-2060,14,-8,6
7,874,820917,1239,-15904,-1916,11,-10,6
7,875,820922,1253,-15922,-1855,14,-19,7
7,876,820927,1181,-16007,-1788,16,-31,8
7,877,820932,1118,-16007,-1959,13,-44,4
7,878,820937,1132,-15976,-2117,12,-53,5
7,879,820942,1202,-15966,-2263,11,-52,4
7,880,820947,1235,-15942,-2147,2,-26,2
7,881,820952,1178,-16024,-2141,4,-12,1
7,882,820957,1155,-16129,-2218,6,-8,0
7,883,820962,1077,-16103,-2161,3,-6,-1
7,884,820967,1003,-16084,-2236,3,-7,-3
7,885,820972,1045,-16028,-2285,3,2,-3
7,886,820977,1115,-16024,-2240,0,13,-5
7,887,820982,1155,-16086,-2247,2,19,-5
7,888,820987,1162,-16116,-2242,2,16,-6
7,889,820992,975,-16251,-2225,4,9,-8
7,890,820997,925,-16282,-2304,2,1,-13
7,891,821002,990,-16294,-2232,-1,2,-13
7,892,821007,1059,-16263,-2202,0,11,-12
7,893,821012,1110,-16249,-2138,1,24,-13
7,894,821017,1070,-16205,-2085,3,25,-14
7,895,821022,945,-16290,-2101,1,9,-17
7,896,821027,929,-16290,-2146,-1,-5,-18
7,897,821032,970,-16303,-2111,3,-9,-15
7,898,821037,1043,-16271,-2116,1,-9,-19
7,899,821042,1083,-16226,-2186,1,-8,-21
7,900,821047,1088,-16220,-2208,6,-8,-21
7,901,821052,1052,-16255,-2277,10,-11,-23
7,902,821057,943,-16335,-2301,7,-18,-24
7,903,821062,905,-16364,-2336,4,-17,-26
7,904,821067,936,-16319,-2326,7,-2,-26
7,905,821072,1029,-16310,-2346,6,21,-28
7,906,821077,1086,-16265,-2305,4,44,-32
7,907,821082,1046,-16249,-2187,5,59,-32
7,908,821087,1019,-16243,-2077,4,55,-34
7,909,821092,979,-16188,-1969,6,42,-34
7,910,821097,1029,-16147,-2057,7,36,-34
7,911,821102,1238,-16051,-2163,7,31,-31
7,912,821107,1403,-16055,-2159,11,30,-32
7,913,821112,1426,-16050,-2158,10,23,-33
7,914,821117,1396,-16017,-2173,11,7,-34
7,915,821122,1398,-16089,-2214,14,-8,-28
7,916,821127,1553,-16160,-2149,17,-7,-25
7,917,821132,1602,-16174,-2060,18,-12,-25
7,918,821137,1591,-16230,-2022,20,-19,-21
7,919,821142,1505,-16311,-1999,21,-29,-18
7,920,821147,1397,-16421,-2018,25,-35,-18
7,921,821152,1337,-16456,-2088,23,-35,-16
7,922,821157,1343,-16479,-2137,21,-23,-18
7,923,821162,1382,-16440,-2078,22,-5,-18
7,924,821167,1439,-16464,-2104,25,8,-17
7,925,821172,1425,-16494,-2122,24,19,-18
7,926,821177,1388,-16471,-2131,25,24,-17
7,927,821182,1409,-16376,-2069,26,19,-12
7,928,821187,1463,-16320,-2066,27,8,-13
7,929,821192,1517,-16248,-2070,29,0,-8
7,930,821197,1506,-16206,-2014,30,-9,-9
7,931,821202,1526,-16260,-1978,32,-20,-8
7,932,821207,1544,-16273,-2026,34,-37,-5
7,933,821212,1558,-16281,-2019,36,-50,-2
7,934,821217,1539,-16299,-2083,36,-47,-2
7,935,821222,1447,-16311,-2035,35,-47,-1
7,936,821227,1367,-16252,-1938,36,-46,-1
7,937,821232,1310,-16250,-1960,37,-48,3
7,938,821237,1301,-16241,-2044,40,-43,4
7,939,821242,1292,-16245,-1999,44,-41,5
7,940,821247,1224,-16254,-1943,41,-47,5
7,941,821252,1199,-16293,-2022,45,-59,7
7,942,821257,1276,-16281,-2105,46,-63,6
7,943,821262,1279,-16282,-2137,45,-56,7
7,944,821267,1230,-16232,-2130,48,-45,4
7,945,821272,1151,-16287,-2105,51,-39,6
7,946,821277,1083,-16304,-2163,51,-38,6
7,947,821282,1073,-16240,-2180,48,-33,5
7,948,821287,1118,-16266,-2118,48,-28,5
7,949,821292,1088,-16287,-2013,52,-24,9
7,950,821297,996,-16251,-2002,54,-27,5
7,951,821302,925,-16234,-2042,57,-30,3
7,952,821307,889,-16158,-2117,56,-26,0
7,953,821312,885,-16166,-2087,57,-16,-2
7,954,821317,912,-16136,-2013,60,-12,-4
7,955,821322,968,-16145,-1952,60,-20,-2
7,956,821327,975,-16129,-1944,62,-23,-1
7,957,821332,999,-16081,-1989,63,-24,-2
7,958,821337,1025,-16040,-2018,65,-25,-3
7,959,821342,1116,-16000,-1965,67,-26,-3
7,960,821347,1188,-16024,-1898,68,-34,-3
7,961,821352,1201,-16024,-1859,70,-48,2
7,962,821357,1214,-16054,-1771,71,-63,2
7,963,821362,1175,-16114,-1864,75,-75,4
7,964,821367,1123,-16149,-1890,79,-74,7
7,965,821372,1023,-16240,-1861,78,-72,2
7,966,821377,917,-16312,-1926,77,-68,3
7,967,821382,949,-16301,-1905,76,-58,2
7,968,821387,925,-16286,-1818,76,-42,-1
7,969,821392,905,-16351,-1806,74,-23,-2
7,970,821397,853,-16335,-1755,75,-9,-4
7,971,821402,825,-16341,-1735,76,-9,-4
7,972,821407,837,-16298,-1739,76,-12,-5
7,973,821412,947,-16246,-1695,76,-12,-5
7,974,821417,1044,-16220,-1610,77,-19,-3
7,975,821422,1054,-16162,-1587,80,-30,-7
7,976,821427,1057,-16106,-1637,84,-48,-5
7,977,821432,1049,-16052,-1720,86,-70,-4
7,978,821437,1112,-16027,-1793,88,-84,-2
7,979,821442,1173,-16062,-1768,89,-93,3
7,980,821447,1286,-16063,-1676,91,-98,5
7,981,821452,1295,-16046,-1644,91,-103,2
7,982,821457,1230,-16024,-1678,94,-109,3
7,983,821462,1155,-15972,-1731,98,-115,9
7,984,821467,1258,-15954,-1654,100,-118,12
7,985,821472,1347,-16039,-1419,99,-119,15
7,986,821477,1479,-16224,-1302,101,-130,21
7,987,821482,1564,-16366,-1310,105,-153,24
7,988,821487,1644,-16450,-1256,108,-169,26
7,989,821492,1685,-16501,-1477,111,-185,29
7,990,821497,1783,-16609,-1540,108,-183,40
7,991,821502,1959,-16690,-1671,108,-162,46
7,992,821507,1956,-16735,-1545,107,-134,51
7,993,821512,1839,-16691,-1451,108,-125,54
7,994,821517,1638,-16661,-1382,109,-130,57
7,995,821522,1520,-16555,-1447,110,-140,61
7,996,821527,1466,-16413,-1404,108,-141,66
7,997,821532,1456,-16279,-1348,112,-140,72
7,998,821537,1319,-16197,-1301,114,-148,75
7,999,821542,1312,-16173,-1512,116,-169,79
