event_id,seq,ts_ms,ax,ay,az,gx,gy,gz
1,0,130332,-2043,-16299,792,-17,-37,10
1,1,130337,-2114,-16260,741,-15,-43,11
1,2,130342,-2101,-16221,692,-18,-42,14
1,3,130347,-2110,-16257,602,-18,-38,17
1,4,130352,-2126,-16285,551,-18,-26,18
1,5,130357,-2228,-16296,571,-16,-6,14
1,6,130362,-2344,-16271,558,-17,8,15
1,7,130367,-2387,-16300,579,-18,22,17
1,8,130372,-2472,-16324,611,-17,29,15
1,9,130377,-2515,-16376,690,-15,30,17
1,10,130382,-2570,-16379,703,-19,27,18
1,11,130387,-2664,-16397,726,-14,25,18
1,12,130392,-2720,-16373,706,-12,19,17
1,13,130397,-2779,-16352,725,-14,14,12
1,14,130402,-2787,-16339,671,-15,5,14
1,15,130407,-2774,-16378,688,-13,-12,15
1,16,130412,-2760,-16426,670,-11,-29,12
1,17,130417,-2765,-16409,659,-10,-45,8
1,18,130422,-2769,-16355,707,-12,-55,6
1,19,130427,-2792,-16353,559,-9,-57,5
1,20,130432,-2797,-16345,424,-4,-57,3
1,21,130437,-2779,-16333,322,-5,-50,2
1,22,130442,-2727,-16377,337,-3,-45,4
1,23,130447,-2715,-16344,402,-1,-40,1
1,24,130452,-2723,-16329,450,-2,-36,-1
1,25,130457,-2696,-16324,471,2,-32,-4
1,26,130462,-2615,-16278,461,6,-29,-4
1,27,130467,-2614,-16226,603,7,-29,-5
1,28,130472,-2578,-16198,683,6,-32,-6
1,29,130477,-2584,-16178,650,4,-38,-7
1,30,130482,-2641,-16217,552,8,-38,-10
1,31,130487,-2587,-16224,513,11,-31,-8
1,32,130492,-2531,-16161,619,10,-26,-5
1,33,130497,-2422,-16159,830,9,-32,-8
1,34,130502,-2333,-16142,978,9,-44,-10
1,35,130507,-2332,-16161,946,11,-59,-9
1,36,130512,-2328,-16183,759,11,-58,-9
1,37,130517,-2374,-16164,602,10,-52,-5
1,38,130522,-2388,-16173,548,13,-38,-5
1,39,130527,-2346,-16181,529,10,-19,-4
1,40,130532,-2282,-16205,519,13,3,-5
1,41,130537,-2316,-16257,465,15,28,-6
1,42,130542,-2469,-16313,421,14,48,-3
1,43,130547,-2483,-16349,478,19,58,-4
1,44,130552,-2476,-16342,665,19,54,-5
1,45,130557,-2383,-16304,952,19,34,-2
1,46,130562,-2308,-16274,1112,17,0,-3
1,47,130567,-2317,-16275,1019,17,-32,0
1,48,130572,-2320,-16266,736,21,-53,2
1,49,130577,-2362,-16321,456,19,-59,2
1,50,130582,-2365,-16381,285,18,-42,2
1,51,130587,-2408,-16374,312,19,-18,4
1,52,130592,-2400,-16320,442,21,4,6
1,53,130597,-2486,-16300,649,26,36,1
1,54,130602,-2476,-16258,623,24,48,1
1,55,130607,-2516,-16235,581,24,58,3
1,56,130612,-2487,-16269,658,26,61,4
1,57,130617,-2482,-16264,707,25,66,4
1,58,130622,-2487,-16176,736,27,71,2
1,59,130627,-2534,-16110,685,28,76,3
1,60,130632,-2565,-16119,690,25,79,3
1,61,130637,-2561,-16204,687,27,80,0
1,62,130642,-2550,-16242,698,24,76,-1
1,63,130647,-2597,-16229,719,25,70,1
1,64,130652,-2688,-16226,759,24,61,1
1,65,130657,-2741,-16201,812,26,45,1
1,66,130662,-2689,-16191,889,25,18,-1
1,67,130667,-2637,-16188,859,25,-11,-1
1,68,130672,-2623,-16274,771,25,-33,-1
1,69,130677,-2599,-16289,731,25,-53,0
1,70,130682,-2554,-16270,721,23,-71,-2
1,71,130687,-2512,-16249,649,22,-80,-3
1,72,130692,-2482,-16251,570,23,-81,-3
1,73,130697,-2397,-16266,523,24,-72,-3
1,74,130702,-2399,-16277,487,23,-64,-2
1,75,130707,-2385,-16254,528,26,-48,-5
1,76,130712,-2374,-16292,568,23,-35,-5
1,77,130717,-2323,-16292,600,23,-21,-4
1,78,130722,-2307,-16303,591,24,-8,-3
1,79,130727,-2309,-16326,586,23,4,-5
1,80,130732,-2348,-16295,618,20,13,-3
1,81,130737,-2332,-16287,682,19,20,-1
1,82,130742,-2287,-16286,674,19,29,-3
1,83,130747,-2332,-16254,642,18,42,0
1,84,130752,-2396,-16288,690,19,53,1
1,85,130757,-2424,-16284,739,18,57,-2
1,86,130762,-2453,-16293,734,15,54,-3
1,87,130767,-2508,-16298,762,14,46,-2
1,88,130772,-2496,-16272,794,16,35,-2
1,89,130777,-2532,-16234,798,16,17,-2
1,90,130782,-2514,-16222,863,15,-2,-1
1,91,130787,-2502,-16186,819,15,-19,-2
1,92,130792,-2478,-16202,753,12,-31,-3
1,93,130797,-2543,-16221,592,12,-36,-2
1,94,130802,-2556,-16216,560,11,-29,0
1,95,130807,-2510,-16216,518,11,-13,-4
1,96,130812,-2525,-16188,589,12,-1,-6
1,97,130817,-2528,-16174,651,9,8,-3
1,98,130822,-2545,-16168,703,10,10,-6
1,99,130827,-2524,-16198,691,12,8,-6
1,100,130832,-2496,-16220,684,9,14,-7
1,101,130837,-2485,-16230,639,9,17,-5
1,102,130842,-2545,-16201,720,9,19,-8
1,103,130847,-2515,-16176,739,7,19,-8
1,104,130852,-2465,-16206,804,4,19,-11
1,105,130857,-2456,-16229,785,4,23,-9
1,106,130862,-2456,-16253,730,2,28,-8
1,107,130867,-2506,-16260,722,4,27,-8
1,108,130872,-2491,-16254,761,2,25,-9
1,109,130877,-2541,-16246,832,2,16,-9
1,110,130882,-2548,-16282,789,1,5,-8
1,111,130887,-2545,-16327,719,1,-2,-12
1,112,130892,-2581,-16342,694,-1,-11,-7
1,113,130897,-2574,-16332,713,0,-24,-10
1,114,130902,-2564,-16364,699,-2,-35,-11
1,115,130907,-2542,-16338,709,-3,-44,-11
1,116,130912,-2467,-16310,664,-3,-50,-11
1,117,130917,-2484,-16313,602,-1,-48,-10
1,118,130922,-2452,-16271,576,-1,-41,-13
1,119,130927,-2457,-16235,572,-5,-33,-12
1,120,130932,-2467,-16218,617,-2,-20,-12
1,121,130937,-2444,-16203,664,-2,-4,-12
1,122,130942,-2402,-16226,674,-5,12,-15
1,123,130947,-2438,-16169,713,-7,23,-16
1,124,130952,-2511,-16144,711,-6,30,-13
1,125,130957,-2488,-16159,737,-9,34,-15
1,126,130962,-2458,-16161,758,-7,37,-17
1,127,130967,-2356,-16155,800,-6,27,-15
1,128,130972,-2273,-16099,858,-9,10,-13
1,129,130977,-2258,-16092,825,-9,-1,-10
1,130,130982,-2267,-16096,653,-11,-7,-10
1,131,130987,-2255,-16134,536,-11,-5,-8
1,132,130992,-2303,-16129,501,-9,6,-9
1,133,130997,-2327,-16142,528,-9,14,-8
1,134,131002,-2353,-16145,548,-7,24,-8
1,135,131007,-2384,-16136,580,-7,37,-8
1,136,131012,-2426,-16159,711,-7,47,-8
1,137,131017,-2537,-16175,740,-6,49,-7
1,138,131022,-2568,-16223,736,-7,43,-9
1,139,131027,-2603,-16241,755,-8,35,-6
1,140,131032,-2607,-16243,761,-6,16,-5
1,141,131037,-2577,-16184,833,-8,0,-9
1,142,131042,-2614,-16177,862,-8,-15,-9
1,143,131047,-2576,-16222,819,-9,-28,-7
1,144,131052,-2551,-16248,705,-7,-35,-7
1,145,131057,-2532,-16231,611,-5,-37,-8
1,146,131062,-2549,-16274,613,-9,-30,-9
1,147,131067,-2462,-16282,559,-8,-26,-8
1,148,131072,-2440,-16301,551,-6,-15,-11
1,149,131077,-2435,-16353,549,-6,-3,-11
1,150,131082,-2443,-16327,605,-3,11,-10
1,151,131087,-2455,-16310,616,-7,20,-10
1,152,131092,-2495,-16345,645,-7,22,-9
1,153,131097,-2524,-16340,706,-6,26,-12
1,154,131102,-2522,-16362,618,-6,31,-11
1,155,131107,-2559,-16399,699,-3,33,-12
1,156,131112,-2638,-16394,760,-2,27,-11
1,157,131117,-2673,-16321,801,-5,11,-12
1,158,131122,-2652,-16318,832,-5,-4,-14
1,159,131127,-2622,-16328,815,-5,-19,-10
1,160,131132,-2662,-16300,777,-6,-30,-9
1,161,131137,-2651,-16289,711,-6,-35,-18
1,162,131142,-2646,-16230,743,-4,-47,-18
1,163,131147,-2649,-16217,781,-1,-56,-15
1,164,131152,-2628,-16289,767,-4,-57,-14
1,165,131157,-2536,-16291,731,-5,-57,-14
1,166,131162,-2466,-16275,665,-6,-52,-17
1,167,131167,-2545,-16297,681,-5,-46,-21
1,168,131172,-2581,-16318,686,-5,-44,-18
1,169,131177,-2540,-16296,637,-7,-35,-19
1,170,131182,-2477,-16306,585,-6,-20,-20
1,171,131187,-2438,-16330,598,-4,-5,-20
1,172,131192,-2416,-16318,632,-5,7,-21
1,173,131197,-2433,-16366,617,-3,6,-20
1,174,131202,-2425,-16352,604,-4,3,-21
1,175,131207,-2407,-16357,621,0,3,-21
1,176,131212,-2386,-16375,635,-3,2,-20
1,177,131217,-2393,-16323,734,-4,-2,-20
1,178,131222,-2397,-16322,761,-3,-10,-24
1,179,131227,-2388,-16330,703,0,-22,-20
1,180,131232,-2411,-16337,728,-1,-28,-19
1,181,131237,-2438,-16308,805,2,-38,-17
1,182,131242,-2422,-16270,802,0,-37,-19
1,183,131247,-2452,-16295,704,-1,-36,-16
1,184,131252,-2449,-16310,644,-2,-35,-19
1,185,131257,-2468,-16258,746,-1,-33,-19
1,186,131262,-2473,-16241,778,-4,-36,-16
1,187,131267,-2457,-16215,850,-2,-39,-15
1,188,131272,-2445,-16164,776,0,-40,-13
1,189,131277,-2422,-16204,669,3,-33,-15
1,190,131282,-2393,-16211,675,2,-30,-16
1,191,131287,-2327,-16208,680,0,-26,-17
1,192,131292,-2308,-16217,695,0,-22,-16
1,193,131297,-2264,-16178,732,-1,-23,-15
1,194,131302,-2178,-16266,720,-3,-17,-13
1,195,131307,-2205,-16277,684,-1,-4,-11
1,196,131312,-2222,-16269,602,-1,9,-13
1,197,131317,-2235,-16292,619,-1,15,-13
1,198,131322,-2256,-16296,697,-2,22,-10
1,199,131327,-2307,-16259,742,-2,22,-10
1,200,131332,-2351,-16310,751,1,28,-8
1,201,131337,-2432,-16346,704,-2,26,-8
1,202,131342,-2491,-16300,693,-1,13,-10
1,203,131347,-2534,-16265,745,-1,2,-8
1,204,131352,-2546,-16272,763,2,-11,-7
1,205,131357,-2579,-16277,759,1,-20,-7
1,206,131362,-2557,-16290,696,4,-26,-9
1,207,131367,-2535,-16265,664,1,-35,-9
1,208,131372,-2569,-16238,715,0,-41,-11
1,209,131377,-2487,-16252,755,0,-49,-7
1,210,131382,-2412,-16264,757,1,-49,-8
1,211,131387,-2346,-16221,716,5,-43,-11
1,212,131392,-2354,-16227,673,2,-31,-10
1,213,131397,-2331,-16221,578,3,-22,-9
1,214,131402,-2312,-16255,595,1,-8,-7
1,215,131407,-2276,-16268,655,0,9,-10
1,216,131412,-2267,-16256,725,3,24,-9
1,217,131417,-2282,-16263,683,2,39,-9
1,218,131422,-2317,-16280,643,2,48,-7
1,219,131427,-2340,-16357,648,1,52,-4
1,220,131432,-2387,-16415,650,2,52,-6
1,221,131437,-2423,-16400,677,4,49,-5
1,222,131442,-2451,-16401,749,4,37,-4
1,223,131447,-2486,-16395,841,5,20,-5
1,224,131452,-2533,-16342,861,3,-6,-4
1,225,131457,-2581,-16311,808,3,-26,-2
1,226,131462,-2568,-16366,700,5,-36,-3
1,227,131467,-2588,-16361,613,6,-40,-7
1,228,131472,-2580,-16330,582,6,-40,-7
1,229,131477,-2567,-16323,622,4,-36,-7
1,230,131482,-2499,-16313,680,2,-34,-10
1,231,131487,-2444,-16287,777,5,-36,-9
1,232,131492,-2411,-16336,759,7,-38,-7
1,233,131497,-2414,-16310,718,7,-35,-8
1,234,131502,-2412,-16312,648,7,-26,-8
1,235,131507,-2361,-16291,627,7,-15,-7
1,236,131512,-2322,-16282,679,7,-3,-6
1,237,131517,-2307,-16275,745,7,4,-7
1,238,131522,-2323,-16288,718,7,10,-7
1,239,131527,-2354,-16337,629,7,21,-7
1,240,131532,-2407,-16304,591,8,31,-8
1,241,131537,-2418,-16304,602,9,40,-5
1,242,131542,-2451,-16317,723,9,44,-3
1,243,131547,-2488,-16315,788,9,42,-6
1,244,131552,-2508,-16307,751,8,34,-7
1,245,131557,-2510,-16301,781,7,26,-6
1,246,131562,-2532,-16297,802,8,11,-4
1,247,131567,-2510,-16287,808,11,-11,-4
1,248,131572,-2508,-16290,812,11,-30,-5
1,249,131577,-2464,-16276,733,8,-45,-7
1,250,131582,-2454,-16280,673,11,-51,-6
1,251,131587,-2467,-16252,619,11,-50,-7
1,252,131592,-2497,-16254,618,10,-44,-5
1,253,131597,-2449,-16273,583,8,-35,-8
1,254,131602,-2396,-16271,548,13,-23,-8
1,255,131607,-2424,-16238,522,14,-11,-8
1,256,131612,-2438,-16232,602,10,1,-6
1,257,131617,-2459,-16235,707,11,8,-8
1,258,131622,-2394,-16244,787,14,4,-8
1,259,131627,-2363,-16243,693,14,0,-6
1,260,131632,-2386,-16261,658,14,0,-7
1,261,131637,-2397,-16265,685,14,-5,-6
1,262,131642,-2405,-16234,690,13,-10,-4
1,263,131647,-2404,-16229,685,15,-16,-5
1,264,131652,-2413,-16276,710,13,-18,-6
1,265,131657,-2405,-16250,680,13,-12,-6
1,266,131662,-2418,-16218,684,14,-9,-7
1,267,131667,-2455,-16251,712,15,-8,-7
1,268,131672,-2449,-16243,754,14,-10,-6
1,269,131677,-2448,-16284,723,16,-8,-3
1,270,131682,-2428,-16290,717,14,-5,-7
1,271,131687,-2478,-16254,720,13,-4,-5
1,272,131692,-2473,-16248,724,17,-9,-5
1,273,131697,-2423,-16194,744,16,-12,-4
1,274,131702,-2376,-16211,845,16,-24,-3
1,275,131707,-2391,-16212,809,16,-27,-4
1,276,131712,-2339,-16249,671,15,-25,-2
1,277,131717,-2373,-16270,653,17,-19,-2
1,278,131722,-2346,-16219,693,12,-13,-4
1,279,131727,-2294,-16220,764,11,-7,-2
1,280,131732,-2291,-16267,794,12,-4,0
1,281,131737,-2337,-16286,787,12,-3,-3
1,282,131742,-2337,-16280,776,11,-4,-2
1,283,131747,-2314,-16220,769,10,-2,2
1,284,131752,-2331,-16283,758,8,-2,0
1,285,131757,-2341,-16348,719,9,-5,1
1,286,131762,-2295,-16404,711,11,-8,4
1,287,131767,-2385,-16418,679,12,-11,5
1,288,131772,-2401,-16416,683,9,-12,2
1,289,131777,-2382,-16415,735,10,-19,4
1,290,131782,-2315,-16418,738,8,-24,3
1,291,131787,-2338,-16399,722,9,-30,3
1,292,131792,-2378,-16397,727,9,-34,2
1,293,131797,-2420,-16318,673,10,-34,4
1,294,131802,-2407,-16266,707,8,-29,7
1,295,131807,-2361,-16266,719,7,-22,6
1,296,131812,-2360,-16253,733,9,-15,5
1,297,131817,-2367,-16237,701,10,-5,6
1,298,131822,-2423,-16257,691,10,6,6
1,299,131827,-2445,-16256,674,8,15,5
1,300,131832,-2407,-16268,676,8,28,8
1,301,131837,-2447,-16280,753,9,36,6
1,302,131842,-2484,-16263,778,9,38,6
1,303,131847,-2476,-16315,806,6,35,5
1,304,131852,-2483,-16298,822,6,31,5
1,305,131857,-2488,-16302,834,6,27,6
1,306,131862,-2493,-16323,802,6,14,5
1,307,131867,-2494,-16299,884,6,2,7
1,308,131872,-2539,-16296,866,5,-11,4
1,309,131877,-2542,-16310,712,6,-22,6
1,310,131882,-2476,-16361,595,7,-26,3
1,311,131887,-2469,-16375,657,7,-27,5
1,312,131892,-2496,-16295,762,5,-34,5
1,313,131897,-2554,-16253,787,7,-41,5
1,314,131902,-2550,-16247,756,8,-43,4
1,315,131907,-2471,-16229,668,8,-36,6
1,316,131912,-2487,-16209,668,8,-23,4
1,317,131917,-2557,-16208,716,7,-15,4
1,318,131922,-2596,-16230,692,5,-12,0
1,319,131927,-2563,-16251,654,6,-6,1
1,320,131932,-2435,-16260,729,8,1,2
1,321,131937,-2365,-16226,884,6,4,3
1,322,131942,-2374,-16190,953,2,-6,2
1,323,131947,-2382,-16189,930,2,-19,1
1,324,131952,-2393,-16180,815,6,-24,0
1,325,131957,-2410,-16249,615,6,-18,5
1,326,131962,-2435,-16329,548,3,-3,6
1,327,131967,-2461,-16345,585,6,8,2
1,328,131972,-2484,-16341,677,5,6,0
1,329,131977,-2421,-16314,795,8,-7,3
1,330,131982,-2478,-16294,897,6,-23,3
1,331,131987,-2512,-16340,814,7,-31,2
1,332,131992,-2439,-16352,734,6,-36,2
1,333,131997,-2458,-16365,619,8,-42,2
1,334,132002,-2449,-16336,594,10,-44,2
1,335,132007,-2460,-16277,668,9,-47,3
1,336,132012,-2396,-16266,702,9,-45,4
1,337,132017,-2396,-16234,740,8,-40,5
1,338,132022,-2416,-16221,749,10,-33,5
1,339,132027,-2428,-16176,726,11,-27,4
1,340,132032,-2458,-16192,724,11,-17,4
1,341,132037,-2422,-16149,717,8,-3,5
1,342,132042,-2428,-16143,802,8,6,6
1,343,132047,-2416,-16130,871,8,15,3
1,344,132052,-2454,-16142,869,9,20,3
1,345,132057,-2510,-16182,844,7,16,7
1,346,132062,-2532,-16233,790,9,18,4
1,347,132067,-2519,-16233,852,8,3,1
1,348,132072,-2461,-16197,973,5,-16,2
1,349,132077,-2522,-16205,987,6,-34,3
1,350,132082,-2488,-16181,858,9,-52,2
1,351,132087,-2506,-16213,734,9,-62,2
1,352,132092,-2525,-16251,627,9,-68,3
1,353,132097,-2505,-16213,625,11,-67,3
1,354,132102,-2486,-16181,770,11,-62,3
1,355,132107,-2389,-16134,770,13,-60,3
1,356,132112,-2342,-16169,785,12,-54,3
1,357,132117,-2368,-16189,802,12,-46,2
1,358,132122,-2415,-16182,771,13,-38,3
1,359,132127,-2384,-16156,808,11,-29,2
1,360,132132,-2375,-16160,860,12,-19,1
1,361,132137,-2344,-16178,859,14,-10,3
1,362,132142,-2383,-16245,802,13,-7,4
1,363,132147,-2431,-16205,833,11,-3,5
1,364,132152,-2421,-16192,795,10,-5,4
1,365,132157,-2450,-16242,930,8,-6,4
1,366,132162,-2446,-16255,934,9,-10,6
1,367,132167,-2441,-16337,902,11,-16,3
1,368,132172,-2459,-16362,808,11,-21,1
1,369,132177,-2480,-16363,766,13,-27,2
1,370,132182,-2455,-16332,762,13,-36,5
1,371,132187,-2441,-16303,826,11,-41,6
1,372,132192,-2394,-16301,885,9,-49,7
1,373,132197,-2334,-16297,824,12,-51,3
1,374,132202,-2350,-16238,759,13,-43,4
1,375,132207,-2393,-16230,753,10,-38,4
1,376,132212,-2388,-16236,707,10,-28,6
1,377,132217,-2363,-16239,730,9,-15,7
1,378,132222,-2378,-16241,819,11,-1,8
1,379,132227,-2373,-16232,862,14,12,8
1,380,132232,-2417,-16211,910,12,19,8
1,381,132237,-2453,-16208,905,11,21,9
1,382,132242,-2478,-16206,858,10,22,8
1,383,132247,-2521,-16279,824,9,24,7
1,384,132252,-2551,-16311,783,10,27,8
1,385,132257,-2608,-16299,797,10,25,7
1,386,132262,-2619,-16288,856,9,16,5
1,387,132267,-2622,-16298,881,9,0,6
1,388,132272,-2655,-16270,928,11,-23,6
1,389,132277,-2683,-16280,925,10,-43,6
1,390,132282,-2800,-16271,847,10,-64,4
1,391,132287,-2853,-16268,773,11,-81,5
1,392,132292,-2794,-16180,759,11,-98,5
1,393,132297,-2780,-16161,749,11,-111,3
1,394,132302,-2789,-16181,663,11,-112,-1
1,395,132307,-2876,-16265,516,13,-112,-3
1,396,132312,-2853,-16333,491,12,-105,0
1,397,132317,-2746,-16322,567,12,-105,-1
1,398,132322,-2618,-16318,712,12,-108,1
1,399,132327,-2581,-16376,825,14,-118,2
1,400,132332,-2610,-16405,685,14,-135,4
1,401,132337,-2770,-16440,630,12,-142,6
1,402,132342,-2768,-16456,500,13,-151,11
1,403,132347,-2510,-16362,702,14,-157,18
1,404,132352,-2423,-16306,875,12,-172,22
1,405,132357,-2547,-16292,861,12,-195,23
1,406,132362,-2740,-16269,725,13,-214,23
1,407,132367,-2864,-16236,521,11,-211,32
1,408,132372,-2985,-16160,311,10,-191,39
1,409,132377,-3006,-16245,200,11,-154,48
1,410,132382,-3023,-16242,254,8,-111,52
1,411,132387,-3199,-16217,254,7,-78,60
1,412,132392,-3330,-16226,106,8,-48,67
1,413,132397,-3263,-16270,234,6,-18,78
1,414,132402,-2925,-16218,821,0,-4,91
1,415,132407,-2716,-16006,1357,-6,-12,100
1,416,132412,-2879,-16054,1435,-13,-24,107
1,417,132417,-3357,-16201,1131,-17,-24,114
1,418,132422,-3341,-16195,887,-24,-17,131
1,419,132427,-3047,-16053,842,-30,-1,156
1,420,132432,-2830,-16054,1151,-36,11,173
1,421,132437,-3226,-15649,1318,-47,-20,199
1,422,132442,-3578,-15524,788,-57,-15,217
1,423,132447,-3594,-15497,473,-62,13,239
1,424,132452,-3264,-15507,457,-71,35,264
1,425,132457,-3190,-15507,682,-82,36,282
1,426,132462,-3465,-15519,621,-85,-2,300
1,427,132467,-3805,-15472,481,-89,-41,318
1,428,132472,-3709,-15390,447,-95,-51,344
1,429,132477,-3445,-15419,546,-106,-42,365
1,430,132482,-3397,-15557,674,-117,-34,385
1,431,132487,-3587,-15657,499,-120,-40,407
1,432,132492,-3594,-15665,247,-124,-28,429
1,433,132497,-3566,-15720,184,-136,2,452
1,434,132502,-3480,-15820,329,-143,41,478
1,435,132507,-3436,-15987,596,-148,57,504
1,436,132512,-3494,-16134,554,-155,51,526
1,437,132517,-3426,-16170,485,-163,36,554
1,438,132522,-3289,-16108,501,-171,22,583
1,439,132527,-3238,-16048,659,-181,13,605
1,440,132532,-3364,-16067,690,-187,-8,631
1,441,132537,-3575,-16093,415,-194,-39,658
1,442,132542,-3509,-16081,261,-201,-56,685
1,443,132547,-3238,-16048,368,-212,-64,710
1,444,132552,-3197,-15969,569,-221,-70,734
1,445,132557,-3448,-15941,481,-229,-80,755
1,446,132562,-3617,-15930,116,-237,-80,776
1,447,132567,-3676,-15888,-66,-241,-51,798
1,448,132572,-3750,-15885,-4,-250,1,820
1,449,132577,-3883,-15923,126,-259,60,839
1,450,132582,-3989,-15867,267,-264,98,855
1,451,132587,-4098,-15758,324,-271,117,867
1,452,132592,-4342,-15665,328,-281,135,881
1,453,132597,-4758,-15635,386,-282,165,892
1,454,132602,-5022,-15603,139,-284,192,907
1,455,132607,-4969,-15598,164,-303,218,918
1,456,132612,-4951,-15603,570,-314,238,923
1,457,132617,-4998,-15681,836,-323,221,929
1,458,132622,-5174,-15647,859,-329,180,933
1,459,132627,-5318,-15573,552,-336,134,938
1,460,132632,-5468,-15624,240,-339,106,944
1,461,132637,-5523,-15647,-141,-344,89,944
1,462,132642,-5352,-15663,-150,-351,79,944
1,463,132647,-5251,-15678,90,-354,64,943
1,464,132652,-5297,-15775,473,-355,34,938
1,465,132657,-5647,-15654,-684,-355,-27,926
1,466,132662,-6102,-15686,-460,-355,2,931
1,467,132667,-5765,-15841,-414,-359,50,931
1,468,132672,-5513,-15857,137,-358,80,918
1,469,132677,-5602,-16007,-201,-359,11,908
1,470,132682,-6223,-15860,-133,-360,-52,893
1,471,132687,-6579,-15789,-67,-360,-105,886
1,472,132692,-6246,-15870,-246,-355,-130,884
1,473,132697,-5774,-16064,174,-355,-134,872
1,474,132702,-5658,-16107,136,-355,-192,859
1,475,132707,-5784,-16111,167,-352,-263,841
1,476,132712,-5964,-15988,-420,-345,-328,831
1,477,132717,-5895,-16047,-667,-341,-317,820
1,478,132722,-5698,-16071,-691,-337,-272,809
1,479,132727,-5452,-16193,-542,-335,-226,795
1,480,132732,-5523,-16218,-445,-326,-197,775
1,481,132737,-5650,-16202,-689,-320,-179,757
1,482,132742,-5844,-16102,-794,-314,-132,743
1,483,132747,-5604,-16254,-1031,-305,-71,730
1,484,132752,-5743,-16128,-593,-302,10,703
1,485,132757,-5803,-16018,-511,-300,44,685
1,486,132762,-5849,-15979,-610,-292,55,666
1,487,132767,-5901,-15851,-312,-284,44,643
1,488,132772,-5922,-15730,-987,-280,4,632
1,489,132777,-5980,-15799,51,-279,53,615
1,490,132782,-5984,-15835,62,-271,20,596
1,491,132787,-5874,-15803,-449,-257,-41,570
1,492,132792,-6023,-15957,-189,-251,-99,545
1,493,132797,-5534,-15653,-1406,-231,-163,499
1,494,132802,-6164,-15524,-147,-227,-116,472
1,495,132807,-5970,-15342,-1262,-211,-109,447
1,496,132812,-5837,-15383,-665,-208,-59,428
1,497,132817,-5777,-15321,-179,-201,-68,403
1,498,132822,-5971,-15263,-30,-190,-86,373
1,499,132827,-6085,-15124,-391,-179,-99,344
1,500,132832,-6166,-15128,-400,-168,-66,326
1,501,132837,-6079,-15101,-527,-164,-52,301
1,502,132842,-5998,-15002,-745,-154,-50,272
1,503,132847,-5939,-15050,-557,-146,-43,247
1,504,132852,-5964,-14999,-386,-135,-38,219
1,505,132857,-5867,-14980,-447,-122,-34,194
1,506,132862,-5781,-14972,-435,-114,-24,167
1,507,132867,-5714,-14966,-362,-107,-19,140
1,508,132872,-5673,-15008,-470,-99,-19,114
1,509,132877,-5660,-15075,-555,-86,-17,88
1,510,132882,-5733,-15208,-723,-74,-4,61
1,511,132887,-5798,-15251,-789,-63,17,35
1,512,132892,-5741,-15214,-713,-50,28,9
1,513,132897,-5673,-15113,-374,-36,27,-20
1,514,132902,-5612,-14996,-99,-29,4,-51
1,515,132907,-5551,-14904,-67,-20,-26,-76
1,516,132912,-5615,-14851,-191,-8,-49,-99
1,517,132917,-5654,-14797,-351,2,-57,-128
1,518,132922,-5614,-14744,-463,11,-58,-156
1,519,132927,-5567,-14724,-425,19,-43,-182
1,520,132932,-5621,-14792,-487,30,-19,-210
1,521,132937,-5669,-14792,-417,43,5,-238
1,522,132942,-5628,-14783,-269,52,17,-267
1,523,132947,-5659,-14804,-116,60,8,-293
1,524,132952,-5612,-14866,21,71,-13,-317
1,525,132957,-5530,-14944,9,81,-50,-341
1,526,132962,-5427,-15006,-69,90,-86,-370
1,527,132967,-5318,-15134,-154,98,-110,-397
1,528,132972,-5280,-15133,-112,107,-125,-422
1,529,132977,-5312,-15142,-177,117,-134,-448
1,530,132982,-5128,-15130,-415,125,-130,-472
1,531,132987,-5171,-15141,-570,128,-108,-497
1,532,132992,-5245,-15238,-463,140,-66,-519
1,533,132997,-5221,-15150,-763,151,-58,-540
1,534,133002,-5127,-15140,-684,162,-35,-557
1,535,133007,-4991,-15301,-263,164,-4,-578
1,536,133012,-5025,-15261,-103,171,17,-600
1,537,133017,-5050,-15292,-216,188,24,-624
1,538,133022,-5112,-15221,-413,197,27,-649
1,539,133027,-5044,-15273,-146,203,32,-673
1,540,133032,-5130,-15221,-231,211,4,-697
1,541,133037,-5035,-15415,-294,226,0,-714
1,542,133042,-4907,-15398,271,236,13,-742
1,543,133047,-4567,-15434,41,238,-22,-768
1,544,133052,-4411,-15538,-176,249,-46,-782
1,545,133057,-4433,-15544,417,259,-55,-804
1,546,133062,-4484,-15532,-62,268,-104,-822
1,547,133067,-4546,-15508,-99,283,-83,-844
1,548,133072,-4521,-15365,-316,286,-72,-858
1,549,133077,-4343,-15374,-320,293,-56,-874
1,550,133082,-4250,-15275,-4,299,-47,-892
1,551,133087,-4207,-15320,-94,306,-50,-908
1,552,133092,-4310,-15392,-42,318,-21,-926
1,553,133097,-4369,-15466,-377,326,0,-941
1,554,133102,-4351,-15557,-503,336,36,-952
1,555,133107,-4241,-15569,-58,342,61,-967
1,556,133112,-3921,-15643,163,344,46,-975
1,557,133117,-3743,-15779,726,355,30,-990
1,558,133122,-3780,-15861,737,366,-5,-1005
1,559,133127,-3869,-15915,466,373,-30,-1020
1,560,133132,-3759,-15829,309,378,-45,-1029
1,561,133137,-3489,-15801,83,383,-47,-1038
1,562,133142,-3451,-15781,153,387,-26,-1052
1,563,133147,-3517,-15700,-60,394,3,-1061
1,564,133152,-3545,-15674,-230,401,64,-1074
1,565,133157,-3575,-15772,-133,404,140,-1086
1,566,133162,-3642,-15785,-84,410,215,-1095
1,567,133167,-3865,-15838,73,424,283,-1109
1,568,133172,-4098,-16115,279,434,329,-1125
1,569,133177,-3748,-16292,910,437,295,-1129
1,570,133182,-3344,-16435,1429,441,219,-1136
1,571,133187,-3218,-16624,1637,446,125,-1150
1,572,133192,-3389,-16757,1127,457,21,-1158
1,573,133197,-3545,-16708,432,463,-61,-1166
1,574,133202,-3461,-16597,47,461,-101,-1171
1,575,133207,-3130,-16565,157,460,-107,-1175
1,576,133212,-2835,-16592,476,465,-94,-1184
1,577,133217,-2669,-16551,481,469,-71,-1197
1,578,133222,-2625,-16346,349,477,-32,-1210
1,579,133227,-2749,-16202,236,476,22,-1217
1,580,133232,-3044,-16122,233,475,83,-1226
1,581,133237,-3217,-16210,236,478,153,-1229
1,582,133242,-2952,-16371,333,484,217,-1228
1,583,133247,-2278,-16465,836,488,260,-1229
1,584,133252,-1975,-16471,1539,487,252,-1237
1,585,133257,-2205,-16447,1845,484,184,-1245
1,586,133262,-2475,-16419,1534,493,107,-1248
1,587,133267,-2409,-16401,746,491,68,-1248
1,588,133272,-2108,-16434,373,488,80,-1246
1,589,133277,-1918,-16305,493,487,101,-1250
1,590,133282,-1954,-16353,726,482,99,-1254
1,591,133287,-1860,-16058,849,490,84,-1255
1,592,133292,-1770,-16125,103,470,89,-1246
1,593,133297,-1736,-16096,1272,470,201,-1249
1,594,133302,-1804,-16313,1139,471,222,-1242
1,595,133307,-1829,-16629,700,485,215,-1246
1,596,133312,-1580,-16661,992,482,192,-1244
1,597,133317,-1181,-16709,1477,472,159,-1241
1,598,133322,-1438,-16244,1845,475,130,-1241
1,599,133327,9357,-27862,-5004,550,245,-1239
1,600,133332,-22761,-25730,-25855,1029,1795,-1333
1,601,133354,32767,-32768,31794,896,6210,3698
1,602,133355,-10547,-32611,16220,903,1536,1739
1,603,133356,-10547,-32611,16220,903,1536,1739
1,604,133356,-10547,-32611,16220,903,1536,1739
1,605,133357,-10547,-32611,16220,903,1536,1739
1,606,133362,-32768,-17629,-32768,55,-4890,-393
1,607,133367,-32025,-11208,-22961,-816,-8341,-374
1,608,133372,9689,15694,-12626,-1218,-10606,-453
1,609,133377,32767,-24212,4572,-223,-3833,1754
1,610,133382,17278,-31650,4847,247,924,1033
1,611,133387,-19530,-14270,-13174,89,733,-227
1,612,133392,-31158,-16836,-24932,2,225,147
1,613,133397,-7956,-9540,-15940,-292,5,252
1,614,133402,11013,-8279,14524,-285,1394,718
1,615,133407,17680,-27289,19528,-131,1991,1215
1,616,133412,256,-19275,3193,190,2067,441
1,617,133417,-16594,-17265,348,84,1754,194
1,618,133422,-16225,-14534,-3859,-155,136,318
1,619,133427,-2395,-11941,674,-251,-759,535
1,620,133432,9205,-17881,8767,-315,-498,790
1,621,133437,6584,-20420,11781,-171,91,611
1,622,133442,-6299,-18708,5226,-16,-79,337
1,623,133447,-12829,-16590,-10369,5,-956,319
1,624,133452,-7448,-14515,-13060,-131,-1079,453
1,625,133457,2746,-16365,813,-262,-316,590
1,626,133462,5736,-18613,10084,-186,244,572
1,627,133467,476,-19310,6677,-59,331,415
1,628,133472,-7513,-17059,-3355,-18,0,308
1,629,133477,-8846,-15761,-6969,-94,-215,372
1,630,133482,-3383,-15659,-3018,-194,-137,493
1,631,133487,2419,-16910,7180,-212,204,526
1,632,133492,1833,-18183,9463,-111,229,458
1,633,133497,-3013,-17948,2422,-37,-89,344
1,634,133502,-7179,-16158,-4190,-51,-357,302
1,635,133507,-5791,-15605,-3814,-131,-408,374
1,636,133512,-1084,-16036,1639,-180,-218,447
1,637,133517,1972,-17625,6049,-153,-18,450
1,638,133522,130,-18031,3985,-84,-24,361
1,639,133527,-4154,-17036,-1127,-58,-156,283
1,640,133532,-5425,-16041,-4099,-88,-209,300
1,641,133537,-426,-16737,3379,-137,169,399
1,642,133542,399,-17419,4355,-98,225,362
1,643,133547,-1593,-17199,1876,-63,132,294
1,644,133552,-4361,-16157,-1002,-73,-18,262
1,645,133557,-4996,-15465,-914,-107,-79,293
1,646,133562,-2792,-15640,1514,-124,-37,340
1,647,133567,-383,-16421,3521,-108,29,345
1,648,133572,-630,-16713,3005,-81,4,294
1,649,133577,-2961,-16195,618,-68,-99,244
1,650,133582,-4891,-15581,-896,-76,-166,241
1,651,133587,-4321,-15435,-468,-91,-123,274
1,652,133592,-1975,-15928,1321,-91,10,296
1,653,133597,-840,-16337,2618,-80,102,273
1,654,133602,-2070,-16312,1962,-61,48,230
1,655,133607,-4121,-15804,363,-57,-66,202
1,656,133612,-4549,-15493,-258,-70,-109,218
1,657,133617,-3063,-15643,703,-78,-48,243
1,658,133622,-1456,-16131,2224,-76,27,243
1,659,133627,-1620,-16399,2509,-64,7,211
1,660,133632,-3068,-16232,1280,-55,-88,175
1,661,133637,-4095,-15902,-254,-50,-154,169
1,662,133642,-3691,-15897,-452,-57,-114,183
1,663,133647,-2565,-16151,1010,-60,-22,194
1,664,133652,-1926,-16348,2249,-55,6,178
1,665,133657,-2500,-16234,2069,-45,-57,147
1,666,133662,-3507,-15905,855,-37,-145,127
1,667,133667,-3795,-15731,49,-38,-174,131
1,668,133672,-3205,-15849,385,-45,-134,142
1,669,133677,-2368,-16134,1179,-43,-87,143
1,670,133682,-2106,-16181,1529,-31,-91,122
1,671,133687,-2640,-16001,962,-26,-123,99
1,672,133692,-3339,-15822,207,-24,-136,91
1,673,133697,-3290,-15875,195,-26,-101,98
1,674,133702,-2589,-16007,794,-30,-42,103
1,675,133707,-2041,-16228,1402,-25,-7,95
1,676,133712,-2283,-16236,1314,-17,-19,73
1,677,133717,-2985,-16130,718,-9,-46,56
1,678,133722,-3307,-15977,425,-9,-51,55
1,679,133727,-2951,-16039,608,-14,-28,65
1,680,133732,-2414,-16199,1221,-14,-6,63
1,681,133737,-2335,-16352,1476,-7,-5,49
1,682,133742,-2736,-16289,1089,0,-35,31
1,683,133747,-3195,-16108,611,2,-60,25
1,684,133752,-3306,-15991,481,0,-65,27
1,685,133757,-3062,-16009,873,1,-52,29
1,686,133762,-2723,-16127,1317,3,-50,21
1,687,133767,-2745,-16186,1260,5,-64,9
1,688,133772,-3095,-16112,800,10,-82,-1
1,689,133777,-3313,-16046,411,14,-88,-7
1,690,133782,-3249,-16035,539,8,-74,-8
1,691,133787,-3007,-16100,972,8,-63,-8
1,692,133792,-2794,-16144,1176,10,-59,-18
1,693,133797,-2791,-16184,1107,14,-67,-27
1,694,133802,-2971,-16236,768,19,-78,-33
1,695,133807,-3133,-16210,622,17,-83,-38
1,696,133812,-3032,-16145,701,15,-78,-41
1,697,133817,-2818,-16168,929,17,-72,-42
1,698,133822,-2734,-16196,986,20,-63,-49
1,699,133827,-2886,-16187,808,21,-60,-61
1,700,133832,-3151,-16183,625,23,-59,-61
1,701,133837,-3207,-16177,687,24,-61,-63
1,702,133842,-2980,-16188,845,24,-59,-64
1,703,133847,-2740,-16218,1078,25,-63,-68
1,704,133852,-2839,-16174,1162,26,-74,-74
1,705,133857,-3033,-16153,992,27,-94,-81
1,706,133862,-3118,-16108,750,29,-102,-84
1,707,133867,-2921,-16060,676,30,-100,-81
1,708,133872,-2729,-16129,825,27,-84,-80
1,709,133877,-2598,-16190,942,28,-73,-83
1,710,133882,-2619,-16173,964,30,-71,-89
1,711,133887,-2686,-16113,893,29,-68,-90
1,712,133892,-2735,-16064,821,27,-56,-90
1,713,133897,-2667,-16122,833,23,-38,-91
1,714,133902,-2632,-16183,809,26,-12,-90
1,715,133907,-2840,-16152,725,29,48,-100
1,716,133912,-3018,-16091,749,28,70,-102
1,717,133917,-3101,-16046,835,28,86,-103
1,718,133922,-3060,-16075,1009,28,93,-103
1,719,133927,-3061,-16058,1165,25,86,-103
1,720,133932,-3131,-16136,1199,28,63,-105
1,721,133937,-3207,-16125,1097,29,32,-107
1,722,133942,-3171,-16072,1070,25,1,-107
1,723,133947,-3033,-16020,1128,22,-28,-107
1,724,133952,-2972,-16027,1146,22,-53,-109
1,725,133957,-3013,-16081,1048,21,-68,-115
1,726,133962,-3035,-16024,848,24,-72,-117
1,727,133967,-3088,-15992,676,24,-64,-115
1,728,133972,-3008,-15984,684,20,-47,-113
1,729,133977,-2882,-16016,820,18,-20,-115
1,730,133982,-2837,-16007,897,18,1,-117
1,731,133987,-2906,-16045,861,19,15,-119
1,732,133992,-2982,-16093,802,18,31,-121
1,733,133997,-2996,-16125,774,20,44,-121
1,734,134002,-2926,-16183,870,18,54,-117
1,735,134007,-2773,-16235,1015,17,57,-116
1,736,134012,-2757,-16195,1043,19,44,-116
1,737,134017,-2848,-16198,1038,20,23,-118
1,738,134022,-3003,-16245,826,18,4,-115
1,739,134027,-2950,-16272,685,17,-7,-112
1,740,134032,-2857,-16228,709,14,-4,-114
1,741,134037,-2793,-16204,840,15,-5,-114
1,742,134042,-2864,-16179,934,17,-7,-114
1,743,134047,-2911,-16134,846,15,-7,-115
1,744,134052,-2930,-16105,794,15,1,-112
1,745,134057,-2886,-16074,778,13,9,-110
1,746,134062,-2785,-16059,909,11,18,-108
1,747,134067,-2760,-15999,991,10,21,-110
1,748,134072,-2745,-15962,1011,9,21,-111
1,749,134077,-2773,-15897,898,9,26,-111
1,750,134082,-2779,-15867,799,8,38,-111
1,751,134087,-2679,-15856,804,6,50,-107
1,752,134092,-2545,-15833,872,5,58,-105
1,753,134097,-2504,-15827,864,2,66,-104
1,754,134102,-2459,-15833,803,0,79,-104
1,755,134107,-2527,-15886,703,2,94,-104
1,756,134112,-2571,-15924,620,2,117,-103
1,757,134117,-2615,-15972,585,-3,140,-103
1,758,134122,-2674,-16023,622,0,157,-100
1,759,134127,-2725,-16105,627,0,174,-101
1,760,134132,-2747,-16170,736,-2,180,-98
1,761,134137,-2746,-16262,951,-5,169,-94
1,762,134142,-2633,-16244,1152,-8,141,-96
1,763,134147,-2654,-16217,1210,-3,96,-95
1,764,134152,-2774,-16306,1017,-4,49,-90
1,765,134157,-2810,-16296,792,-4,15,-88
1,766,134162,-2799,-16280,602,-6,0,-90
1,767,134167,-2766,-16293,644,-10,-5,-90
1,768,134172,-2663,-16300,674,-12,-4,-89
1,769,134177,-2698,-16292,628,-10,5,-87
1,770,134182,-2783,-16298,595,-11,25,-87
1,771,134187,-2895,-16309,497,-11,49,-87
1,772,134192,-2901,-16338,567,-11,75,-88
1,773,134197,-2822,-16335,802,-13,89,-87
1,774,134202,-2760,-16331,958,-14,92,-84
1,775,134207,-2775,-16363,879,-15,91,-85
1,776,134212,-2864,-16414,758,-16,93,-85
1,777,134217,-2918,-16438,552,-17,105,-85
1,778,134222,-2790,-16445,575,-19,114,-81
1,779,134227,-2634,-16511,683,-21,117,-79
1,780,134232,-2570,-16550,844,-21,110,-79
1,781,134237,-2631,-16502,886,-18,90,-79
1,782,134242,-2799,-16430,715,-18,69,-78
1,783,134247,-2864,-16367,672,-18,59,-74
1,784,134252,-2804,-16349,711,-20,57,-71
1,785,134257,-2762,-16286,766,-23,52,-69
1,786,134262,-2802,-16329,825,-23,46,-69
1,787,134267,-2954,-16303,750,-23,43,-72
1,788,134272,-3006,-16201,800,-23,45,-66
1,789,134277,-2954,-16173,939,-25,41,-63
1,790,134282,-2843,-16216,1003,-26,29,-63
1,791,134287,-2736,-16179,999,-27,14,-62
1,792,134292,-2792,-16145,866,-28,4,-65
1,793,134297,-2876,-16207,686,-29,3,-63
1,794,134302,-2903,-16269,555,-31,14,-59
1,795,134307,-2830,-16278,561,-28,37,-58
1,796,134312,-2742,-16273,652,-27,55,-55
1,797,134317,-2771,-16316,764,-28,62,-54
1,798,134322,-2847,-16375,785,-26,61,-55
1,799,134327,-2905,-16368,753,-26,59,-55
1,800,134332,-2867,-16320,763,-28,49,-50
1,801,134337,-2829,-16329,865,-28,43,-47
1,802,134342,-2832,-16304,946,-31,32,-45
1,803,134347,-2856,-16296,910,-30,16,-46
1,804,134352,-2906,-16345,739,-27,11,-44
1,805,134357,-2914,-16289,651,-26,16,-40
1,806,134362,-2838,-16284,709,-28,23,-38
1,807,134367,-2775,-16262,835,-26,20,-37
1,808,134372,-2785,-16261,830,-28,21,-35
1,809,134377,-2812,-16278,635,-25,21,-35
1,810,134382,-2803,-16224,623,-24,28,-36
1,811,134387,-2781,-16212,731,-27,41,-29
1,812,134392,-2726,-16277,754,-26,54,-28
1,813,134397,-2707,-16290,749,-25,59,-29
1,814,134402,-2773,-16322,681,-22,62,-29
1,815,134407,-2871,-16297,670,-24,61,-30
1,816,134412,-2942,-16270,722,-25,55,-28
1,817,134417,-2944,-16277,801,-23,52,-23
1,818,134422,-2839,-16279,926,-22,41,-22
1,819,134427,-2780,-16235,1031,-24,21,-25
1,820,134432,-2845,-16173,952,-26,-2,-25
1,821,134437,-2909,-16140,805,-21,-23,-23
1,822,134442,-2929,-16102,654,-19,-32,-23
1,823,134447,-2814,-16076,561,-20,-23,-19
1,824,134452,-2728,-16049,703,-19,-9,-19
1,825,134457,-2737,-16057,836,-19,-1,-23
1,826,134462,-2738,-16057,880,-22,2,-21
1,827,134467,-2796,-16134,677,-21,11,-22
1,828,134472,-2786,-16191,637,-18,23,-19
1,829,134477,-2613,-16235,700,-22,36,-15
1,830,134482,-2491,-16283,803,-18,38,-17
1,831,134487,-2513,-16298,858,-17,29,-19
1,832,134492,-2540,-16280,835,-17,22,-14
1,833,134497,-2532,-16248,749,-14,20,-19
1,834,134502,-2554,-16265,694,-14,22,-16
1,835,134507,-2538,-16316,711,-15,24,-9
1,836,134512,-2459,-16304,712,-14,28,-8
1,837,134517,-2403,-16311,736,-10,30,-10
1,838,134522,-2508,-16283,765,-11,32,-12
1,839,134527,-2597,-16262,736,-14,36,-8
1,840,134532,-2595,-16246,690,-10,41,-9
1,841,134537,-2528,-16256,694,-12,46,-8
1,842,134542,-2534,-16274,673,-11,49,-6
1,843,134547,-2480,-16269,703,-10,50,-5
1,844,134552,-2488,-16270,673,-11,45,-5
1,845,134557,-2580,-16325,612,-8,45,-3
1,846,134562,-2451,-16349,653,-7,50,-3
1,847,134567,-2312,-16363,765,-9,54,-1
1,848,134572,-2329,-16329,899,-7,46,-3
1,849,134577,-2405,-16297,830,-9,35,-4
1,850,134582,-2490,-16314,653,-8,33,-5
1,851,134587,-2504,-16324,526,-6,46,-2
1,852,134592,-2436,-16277,629,-5,62,-1
1,853,134597,-2413,-16233,772,-5,74,-1
1,854,134602,-2466,-16258,779,-5,82,-1
1,855,134607,-2566,-16271,778,-4,87,-2
1,856,134612,-2663,-16233,692,-5,96,-4
1,857,134617,-2667,-16241,774,-5,102,-2
1,858,134622,-2636,-16295,933,-6,99,-1
1,859,134627,-2641,-16330,955,-9,85,-2
1,860,134632,-2634,-16333,929,-6,63,-4
1,861,134637,-2626,-16329,833,-5,43,-2
1,862,134642,-2648,-16333,725,-8,7,-4
1,863,134647,-2573,-16341,715,-6,0,-3
1,864,134652,-2508,-16273,661,-4,4,-6
1,865,134657,-2560,-16312,531,-5,12,-5
1,866,134662,-2621,-16300,492,-8,25,-7
1,867,134667,-2642,-16348,517,-6,40,-6
1,868,134672,-2538,-16391,561,-3,57,-3
1,869,134677,-2508,-16350,666,-3,70,-2
1,870,134682,-2622,-16299,729,-2,70,-8
1,871,134687,-2661,-16246,727,-1,60,-10
1,872,134692,-2711,-16220,692,-4,48,-9
1,873,134697,-2662,-16275,683,-8,33,-6
1,874,134702,-2616,-16350,740,-5,25,-7
1,875,134707,-2615,-16337,729,-6,9,-6
1,876,134712,-2648,-16336,643,-5,-8,-10
1,877,134717,-2655,-16304,575,-4,-15,-12
1,878,134722,-2659,-16262,580,-6,-22,-11
1,879,134727,-2619,-16297,588,-4,-28,-12
1,880,134732,-2496,-16296,653,-3,-35,-13
1,881,134737,-2536,-16319,689,-1,-40,-11
1,882,134742,-2614,-16236,551,-1,-46,-11
1,883,134747,-2549,-16217,464,-1,-46,-13
1,884,134752,-2526,-16194,489,-3,-47,-14
1,885,134757,-2476,-16128,628,-6,-44,-14
1,886,134762,-2438,-16071,686,-5,-41,-12
1,887,134767,-2455,-16040,652,-3,-36,-12
1,888,134772,-2517,-16020,628,-2,-22,-15
1,889,134777,-2567,-16029,583,-4,-13,-15
1,890,134782,-2539,-16101,644,-4,-6,-14
1,891,134787,-2489,-16195,558,-4,-1,-12
1,892,134792,-2404,-16293,603,-2,4,-12
1,893,134797,-2490,-16282,591,-3,3,-13
1,894,134802,-2536,-16195,677,-5,-6,-15
1,895,134807,-2523,-16112,854,-6,-24,-12
1,896,134812,-2429,-16065,868,-4,-40,-9
1,897,134817,-2388,-16107,806,-5,-55,-9
1,898,134822,-2492,-16105,686,-7,-64,-10
1,899,134827,-2574,-16145,484,-6,-68,-11
1,900,134832,-2650,-16241,394,-5,-63,-11
1,901,134837,-2627,-16254,294,-4,-51,-11
1,902,134842,-2501,-16204,437,-5,-35,-9
1,903,134847,-2463,-16146,645,-7,-26,-11
1,904,134852,-2514,-16113,790,-4,-36,-11
1,905,134857,-2565,-16120,754,-6,-45,-13
1,906,134862,-2558,-16093,597,-9,-44,-13
1,907,134867,-2521,-16086,477,-6,-29,-9
1,908,134872,-2538,-16148,466,-8,-17,-9
1,909,134877,-2529,-16192,518,-9,-7,-14
1,910,134882,-2465,-16255,564,-9,-5,-13
1,911,134887,-2412,-16291,663,-10,-4,-10
1,912,134892,-2466,-16329,649,-9,-3,-12
1,913,134897,-2504,-16311,662,-9,3,-13
1,914,134902,-2559,-16307,550,-9,9,-17
1,915,134907,-2574,-16270,539,-12,16,-14
1,916,134912,-2577,-16243,506,-12,23,-13
1,917,134917,-2587,-16221,503,-12,23,-17
1,918,134922,-2601,-16198,552,-13,22,-15
1,919,134927,-2580,-16239,602,-11,7,-14
1,920,134932,-2528,-16302,695,-9,-16,-14
1,921,134937,-2497,-16330,738,-11,-38,-14
1,922,134942,-2474,-16310,696,-13,-58,-15
1,923,134947,-2534,-16328,537,-13,-75,-16
1,924,134952,-2560,-16346,439,-14,-80,-15
1,925,134957,-2487,-16356,400,-14,-73,-14
1,926,134962,-2488,-16345,375,-11,-57,-15
1,927,134967,-2428,-16353,421,-12,-36,-14
1,928,134972,-2459,-16341,440,-12,-16,-17
1,929,134977,-2500,-16330,486,-10,-4,-19
1,930,134982,-2515,-16311,537,-12,0,-18
1,931,134987,-2483,-16374,639,-15,2,-17
1,932,134992,-2369,-16446,674,-15,3,-15
1,933,134997,-2343,-16445,660,-14,-9,-15
1,934,135002,-2395,-16436,582,-13,-17,-19
1,935,135007,-2482,-16440,374,-15,-30,-16
1,936,135012,-2452,-16471,511,-13,-29,-15
1,937,135017,-2439,-16435,542,-9,-23,-15
1,938,135022,-2473,-16363,552,-10,-26,-16
1,939,135027,-2487,-16367,593,-10,-30,-17
1,940,135032,-2380,-16378,551,-9,-39,-15
1,941,135037,-2348,-16374,555,-9,-46,-12
1,942,135042,-2355,-16320,561,-12,-47,-14
1,943,135047,-2342,-16360,490,-12,-47,-15
1,944,135052,-2369,-16369,329,-11,-40,-15
1,945,135057,-2307,-16331,375,-10,-20,-12
1,946,135062,-2280,-16316,407,-12,1,-15
1,947,135067,-2303,-16329,516,-9,23,-11
1,948,135072,-2291,-16291,543,-9,41,-11
1,949,135077,-2263,-16258,564,-10,58,-11
1,950,135082,-2287,-16269,654,-8,71,-10
1,951,135087,-2304,-16259,712,-9,79,-10
1,952,135092,-2317,-16302,759,-7,77,-10
1,953,135097,-2315,-16288,742,-8,67,-7
1,954,135102,-2330,-16203,652,-10,60,-7
1,955,135107,-2427,-16203,651,-10,52,-9
1,956,135112,-2538,-16251,604,-8,44,-8
1,957,135117,-2546,-16266,647,-11,35,-6
1,958,135122,-2450,-16220,628,-9,30,-6
1,959,135127,-2461,-16249,688,-9,22,-8
1,960,135132,-2511,-16263,641,-8,11,-9
1,961,135137,-2591,-16271,535,-9,0,-9
1,962,135142,-2645,-16288,457,-9,-5,-10
1,963,135147,-2583,-16276,501,-9,-3,-12
1,964,135152,-2492,-16267,660,-7,-4,-11
1,965,135157,-2468,-16265,749,-7,-8,-11
1,966,135162,-2464,-16254,719,-6,-23,-12
1,967,135167,-2542,-16247,677,-6,-36,-12
1,968,135172,-2473,-16204,610,-6,-38,-12
1,969,135177,-2407,-16165,644,-7,-37,-13
1,970,135182,-2382,-16180,635,-6,-35,-14
1,971,135187,-2398,-16238,599,-5,-29,-11
1,972,135192,-2410,-16233,510,-7,-15,-12
1,973,135197,-2416,-16206,511,-5,2,-13
1,974,135202,-2435,-16222,576,-4,12,-15
1,975,135207,-2430,-16246,625,-6,17,-15
1,976,135212,-2404,-16275,681,-3,15,-14
1,977,135217,-2399,-16319,610,-5,13,-14
1,978,135222,-2363,-16338,552,-4,11,-13
1,979,135227,-2400,-16300,521,-2,2,-13
1,980,135232,-2431,-16332,593,-3,-3,-13
1,981,135237,-2453,-16278,627,-4,-7,-11
1,982,135242,-2402,-16306,680,-3,-11,-14
1,983,135247,-2413,-16280,686,0,-10,-14
1,984,135252,-2402,-16267,649,0,-12,-14
1,985,135257,-2447,-16214,602,-1,-12,-14
1,986,135262,-2472,-16191,531,0,-8,-13
1,987,135267,-2448,-16213,508,1,-5,-14
1,988,135272,-2469,-16238,484,2,10,-14
1,989,135277,-2491,-16233,518,3,20,-16
1,990,135282,-2473,-16250,570,6,21,-14
1,991,135287,-2438,-16189,633,5,19,-15
1,992,135292,-2483,-16193,691,5,11,-15
1,993,135297,-2542,-16202,669,4,3,-16
1,994,135302,-2577,-16253,605,6,2,-15
1,995,135307,-2576,-16262,526,4,4,-17
1,996,135312,-2556,-16261,510,7,5,-15
1,997,135317,-2521,-16220,579,9,8,-18
1,998,135322,-2556,-16263,596,8,7,-19
1,999,135327,-2582,-16282,540,8,4,-21
