event_id,seq,ts_ms,ax,ay,az,gx,gy,gz
1,0,16411,605,-16562,-2291,40,-117,24
1,1,16416,587,-16631,-2245,40,-102,21
1,2,16421,550,-16712,-2252,40,-81,23
1,3,16426,548,-16754,-2166,37,-56,21
1,4,16431,574,-16771,-1999,36,-33,19
1,5,16436,544,-16769,-1944,35,-9,20
1,6,16441,554,-16712,-1907,33,19,12
1,7,16446,458,-16670,-1869,29,44,11
1,8,16451,397,-16642,-1798,26,63,10
1,9,16456,453,-16554,-1834,25,72,8
1,10,16461,451,-16512,-1820,20,78,8
1,11,16466,367,-16501,-1813,20,81,7
1,12,16471,297,-16510,-1853,18,77,5
1,13,16476,181,-16545,-1918,16,72,6
1,14,16481,105,-16527,-1945,16,66,4
1,15,16486,24,-16500,-1968,11,55,0
1,16,16491,32,-16518,-1997,9,38,1
1,17,16496,100,-16502,-1941,8,20,1
1,18,16501,157,-16557,-1763,6,2,-2
1,19,16506,220,-16585,-1736,7,-9,-3
1,20,16511,243,-16697,-1795,9,-10,-6
1,21,16516,239,-16745,-1849,5,3,-7
1,22,16521,149,-16693,-1859,1,19,-11
1,23,16526,76,-16665,-1884,-1,48,-16
1,24,16531,-11,-16585,-2057,-3,92,-23
1,25,16536,17,-16520,-2267,-5,143,-28
1,26,16541,59,-16524,-2281,-5,190,-30
1,27,16546,202,-16472,-2134,-11,225,-34
1,28,16551,363,-16504,-2137,-12,251,-37
1,29,16556,347,-16451,-2323,-8,276,-42
1,30,16561,144,-16453,-2553,-8,293,-45
1,31,16566,-7,-16392,-2543,-11,302,-49
1,32,16571,-65,-16206,-2472,-10,296,-51
1,33,16576,86,-16055,-2376,-6,297,-53
1,34,16581,-169,-15999,-2322,-2,301,-57
1,35,16586,-687,-15405,-1053,-6,277,-63
1,36,16591,-1561,-15008,-125,-20,156,-68
1,37,16596,-1031,-15239,-257,-3,4,-55
1,38,16601,-961,-15695,-143,6,-130,-36
1,39,16606,-434,-15525,811,-18,-348,-76
1,40,16611,-291,-15368,-149,7,-671,-21
1,41,16616,2142,-15708,-1620,22,-860,13
1,42,16621,1750,-15824,-908,-11,-918,-17
1,43,16626,-423,-16025,935,-13,-1040,-24
1,44,16631,-725,-16575,-1116,6,-1217,7
1,45,16636,-7,-16743,-3124,9,-1149,20
1,46,16641,522,-16602,-1880,-14,-976,1
1,47,16646,129,-16205,-1172,-23,-1017,-8
1,48,16651,384,-16105,-2694,-7,-1117,-1
1,49,16656,842,-16201,-4271,-7,-1014,6
1,50,16661,1053,-16189,-3244,-25,-788,0
1,51,16666,1162,-16178,-2165,-28,-730,5
1,52,16671,1491,-16444,-2892,-20,-784,13
1,53,16676,1687,-16763,-3656,-17,-720,12
1,54,16681,1077,-16918,-3034,-23,-574,11
1,55,16686,531,-16857,-2362,-25,-518,11
1,56,16691,483,-16593,-3324,-23,-441,20
1,57,16696,266,-16518,-2919,-28,-291,13
1,58,16701,72,-16457,-2730,-27,-197,11
1,59,16706,251,-16466,-3414,-19,-140,13
1,60,16711,385,-16446,-3803,-22,-42,8
1,61,16716,364,-16388,-3284,-30,84,1
1,62,16721,366,-16335,-3119,-30,159,-1
1,63,16726,384,-16354,-3191,-25,216,-1
1,64,16731,117,-16338,-3105,-28,288,-7
1,65,16736,-212,-16124,-2393,-33,362,-14
1,66,16741,-316,-15995,-2167,-33,393,-12
1,67,16746,-168,-15960,-2371,-30,417,-11
1,68,16751,-63,-15902,-2320,-32,445,-16
1,69,16756,-135,-15758,-1872,-38,441,-14
1,70,16761,-201,-15789,-1776,-37,399,-12
1,71,16766,-88,-16057,-2031,-32,365,-11
1,72,16771,-280,-16272,-2140,-31,355,-16
1,73,16776,-387,-16341,-1943,-33,336,-18
1,74,16781,-337,-16354,-1990,-34,288,-15
1,75,16786,-50,-16485,-2141,-33,254,-13
1,76,16791,52,-16664,-2037,-36,238,-15
1,77,16796,68,-16771,-1920,-35,201,-15
1,78,16801,225,-16862,-2087,-33,144,-13
1,79,16806,404,-16941,-1712,-31,103,-8
1,80,16811,353,-16889,-1200,-36,61,-6
1,81,16816,451,-16837,-1578,-33,4,-3
1,82,16821,788,-16964,-3023,-16,-48,2
1,83,16826,1100,-17134,-4424,-8,-66,8
1,84,16831,922,-17204,-4380,-10,-69,3
1,85,16836,305,-17075,-3909,-10,-78,-2
1,86,16841,-104,-16872,-4019,-2,-25,-6
1,87,16846,-241,-16800,-4488,4,138,-7
1,88,16851,-103,-16834,-4473,6,335,-9
1,89,16856,189,-16574,-4383,13,458,-22
1,90,16861,111,-16605,-4388,24,510,-37
1,91,16866,-298,-16840,-4160,19,559,-48
1,92,16871,226,-16812,-3041,12,650,-40
1,93,16876,1256,-16634,-2374,25,743,-32
1,94,16881,1739,-16701,-2193,40,797,-45
1,95,16886,1173,-16891,-2234,32,771,-57
1,96,16891,649,-16861,-1625,24,717,-40
1,97,16896,695,-16836,-1073,22,701,-26
1,98,16901,813,-16779,-929,23,727,-31
1,99,16906,760,-16897,-1247,26,711,-29
1,100,16911,894,-16871,-1289,22,631,-19
1,101,16916,1244,-16723,-837,12,533,-6
1,102,16921,1510,-16608,-303,6,484,-8
1,103,16926,1288,-16797,-271,9,465,-1
1,104,16931,854,-16996,-661,7,435,1
1,105,16936,713,-17026,-1051,2,378,9
1,106,16941,1094,-16832,-991,-8,332,19
1,107,16946,1451,-16688,-835,-17,311,25
1,108,16951,1465,-16611,-760,-23,316,24
1,109,16956,1020,-16669,-737,-22,306,28
1,110,16961,668,-16652,-989,-28,265,32
1,111,16966,724,-16510,-857,-33,243,40
1,112,16971,1153,-16363,-767,-41,220,50
1,113,16976,1316,-16204,-650,-46,194,53
1,114,16981,1211,-16212,-745,-47,144,57
1,115,16986,969,-16367,-908,-52,95,62
1,116,16991,938,-16500,-839,-59,58,67
1,117,16996,1078,-16440,-749,-64,24,75
1,118,17001,1108,-16331,-860,-63,-16,80
1,119,17006,979,-16182,-1163,-64,-69,82
1,120,17011,887,-16092,-1378,-69,-106,87
1,121,17016,860,-16153,-1432,-76,-124,95
1,122,17021,826,-16261,-1260,-77,-138,96
1,123,17026,765,-16327,-1549,-76,-144,97
1,124,17031,637,-16403,-1866,-80,-122,96
1,125,17036,546,-16408,-1938,-84,-88,94
1,126,17041,479,-16265,-1944,-86,-57,93
1,127,17046,597,-16157,-2099,-87,-37,94
1,128,17051,655,-16228,-2275,-86,-16,94
1,129,17056,436,-16135,-2365,-90,-7,85
1,130,17061,302,-16076,-2574,-81,-26,91
1,131,17066,165,-16024,-2827,-78,-45,88
1,132,17071,-74,-15992,-2866,-73,-71,88
1,133,17076,-77,-15891,-2862,-67,-120,89
1,134,17081,-96,-15882,-2731,-60,-183,90
1,135,17086,107,-15960,-2501,-55,-233,90
1,136,17091,124,-16057,-2244,-51,-267,90
1,137,17096,109,-16090,-2124,-45,-311,86
1,138,17101,158,-16200,-2219,-39,-346,84
1,139,17106,323,-16342,-2070,-39,-365,86
1,140,17111,640,-16300,-1982,-39,-394,86
1,141,17116,626,-16263,-1649,-39,-428,86
1,142,17121,568,-16353,-1959,-34,-472,84
1,143,17126,315,-16399,-2272,-33,-481,82
1,144,17131,121,-16440,-2475,-30,-470,83
1,145,17136,80,-16341,-2652,-31,-465,80
1,146,17141,196,-16229,-2716,-27,-463,79
1,147,17146,239,-16090,-2785,-25,-448,74
1,148,17151,215,-15943,-2680,-22,-415,68
1,149,17156,-418,-15797,-2290,-21,-383,65
1,150,17161,-1785,-15639,-1682,-24,-374,49
1,151,17166,-3006,-15274,-1717,-24,-404,33
1,152,17171,-2521,-14940,-2289,-23,-406,35
1,153,17176,-896,-14514,-2507,-23,-365,36
1,154,17181,228,-14184,-1919,-23,-335,23
1,155,17186,-465,-14120,-1941,-21,-404,-5
1,156,17191,-2036,-14203,-2682,-12,-490,-21
1,157,17196,-2754,-14264,-3370,-10,-493,-19
1,158,17201,-2042,-14332,-2983,-14,-439,-13
1,159,17206,-871,-14295,-2555,-12,-429,-23
1,160,17211,-296,-14424,-2477,-4,-467,-41
1,161,17216,-707,-14558,-2762,5,-512,-54
1,162,17221,-952,-14875,-2713,5,-527,-59
1,163,17226,-682,-14695,-2173,4,-514,-58
1,164,17231,85,-14201,-2624,10,-487,-61
1,165,17236,-51,-14775,-3888,20,-430,-76
1,166,17241,-731,-15629,-3623,17,-360,-82
1,167,17246,-432,-16171,-3001,8,-343,-71
1,168,17251,457,-16547,-2806,17,-300,-76
1,169,17256,1194,-16861,-3032,26,-219,-82
1,170,17261,1098,-16777,-2496,21,-162,-93
1,171,17266,990,-16663,-2265,20,-172,-87
1,172,17271,1126,-16829,-2537,25,-157,-74
1,173,17276,1519,-17165,-2557,24,-71,-71
1,174,17281,1489,-17327,-2289,23,2,-71
1,175,17286,1429,-17331,-2267,28,0,-67
1,176,17291,1317,-17175,-2471,28,-11,-62
1,177,17296,1411,-17106,-2243,28,33,-54
1,178,17301,1339,-17008,-1830,23,79,-48
1,179,17306,1281,-16917,-1673,24,72,-40
1,180,17311,1118,-16830,-2004,29,38,-31
1,181,17316,955,-16732,-2053,27,36,-26
1,182,17321,785,-16571,-1883,21,48,-22
1,183,17326,648,-16425,-1928,24,42,-15
1,184,17331,505,-16339,-2118,25,25,-10
1,185,17336,394,-16344,-2248,23,20,-7
1,186,17341,327,-16355,-2318,23,29,-3
1,187,17346,334,-16375,-2327,23,44,0
1,188,17351,283,-16316,-2290,23,52,1
1,189,17356,41,-16331,-2270,21,51,1
1,190,17361,-271,-16400,-2319,24,56,-1
1,191,17366,-384,-16416,-2405,24,75,1
1,192,17371,-369,-16457,-2448,22,101,0
1,193,17376,-396,-16474,-2306,20,112,-1
1,194,17381,-365,-16534,-2142,19,113,-1
1,195,17386,-305,-16576,-2164,19,114,-2
1,196,17391,-349,-16639,-2251,19,134,-4
1,197,17396,-378,-16610,-2358,18,154,-10
1,198,17401,-387,-16518,-2342,17,160,-10
1,199,17406,-439,-16538,-2334,18,148,-7
1,200,17411,-447,-16638,-2422,15,145,-6
1,201,17416,-274,-16713,-2440,15,149,-4
1,202,17421,-26,-16701,-2271,12,144,0
1,203,17426,58,-16824,-2235,12,135,-6
1,204,17431,-49,-16806,-2151,9,145,-3
1,205,17436,-82,-16708,-1770,5,156,0
1,206,17441,-219,-16633,-1727,2,162,0
1,207,17446,-329,-16628,-2003,0,185,-2
1,208,17451,-278,-16513,-2233,-4,215,6
1,209,17456,-213,-16324,-1955,-9,235,4
1,210,17461,-112,-16234,-1619,-17,224,4
1,211,17466,-155,-16163,-1605,-19,207,6
1,212,17471,-283,-16186,-1595,-22,207,6
1,213,17476,-347,-16217,-1596,-28,207,9
1,214,17481,-65,-16118,-1271,-30,196,13
1,215,17486,735,-15897,147,-40,176,17
1,216,17491,-310,-16280,-1935,-41,118,26
1,217,17496,50,-16370,-3537,-27,132,12
1,218,17501,-670,-16334,-4152,-35,131,32
1,219,17506,-451,-16367,-3177,-44,104,33
1,220,17511,-22,-15559,-2404,-43,69,-6
1,221,17516,-90,-16245,-2415,-37,69,37
1,222,17521,-241,-16301,-1835,-34,199,18
1,223,17526,-665,-16262,-2403,-31,248,7
1,224,17531,-15,-16489,-2784,-28,210,29
1,225,17536,-16,-16239,-2743,-36,177,30
1,226,17541,291,-16296,-2000,-37,159,35
1,227,17546,159,-16272,-1993,-32,118,36
1,228,17551,241,-16395,-2298,-28,92,37
1,229,17556,206,-16481,-2533,-26,101,37
1,230,17561,93,-16300,-2539,-28,112,37
1,231,17566,-17,-16246,-2498,-24,102,46
1,232,17571,-343,-16188,-2665,-22,93,49
1,233,17576,-340,-16238,-2717,-21,105,49
1,234,17581,-343,-16183,-2714,-18,115,49
1,235,17586,-89,-16111,-2547,-14,121,50
1,236,17591,60,-16144,-2441,-12,128,52
1,237,17596,66,-16195,-2361,-11,123,51
1,238,17601,5,-16302,-2419,-10,102,52
1,239,17606,32,-16329,-2489,-8,91,54
1,240,17611,40,-16340,-2567,-7,103,55
1,241,17616,-30,-16392,-2668,-5,116,57
1,242,17621,97,-16426,-2675,-2,116,58
1,243,17626,135,-16620,-2385,0,112,51
1,244,17631,464,-16463,-2739,2,79,53
1,245,17636,601,-16575,-2960,3,107,59
1,246,17641,412,-16456,-2559,-5,198,41
1,247,17646,165,-16447,-2467,7,211,51
1,248,17651,480,-16279,-2936,10,197,45
1,249,17656,611,-16285,-3064,11,222,50
1,250,17661,439,-16261,-2626,5,268,44
1,251,17666,257,-16230,-2290,3,282,40
1,252,17671,238,-16323,-2510,12,265,46
1,253,17676,309,-16212,-2565,11,278,43
1,254,17681,264,-16165,-2263,8,299,42
1,255,17686,193,-16136,-2238,11,283,42
1,256,17691,122,-16091,-2511,10,254,43
1,257,17696,121,-16087,-2622,11,241,41
1,258,17701,83,-16085,-2411,12,233,42
1,259,17706,82,-16206,-2114,13,208,43
1,260,17711,231,-16258,-2151,10,175,45
1,261,17716,395,-16312,-2127,9,167,46
1,262,17721,278,-16359,-2079,8,178,40
1,263,17726,116,-16405,-2120,7,179,36
1,264,17731,102,-16438,-2146,2,179,37
1,265,17736,231,-16395,-2009,1,177,40
1,266,17741,332,-16337,-1850,-1,171,38
1,267,17746,279,-16360,-1878,1,151,37
1,268,17751,251,-16341,-2015,-5,133,35
1,269,17756,219,-16296,-2021,-6,121,34
1,270,17761,297,-16252,-2011,-6,110,37
1,271,17766,335,-16252,-2060,-9,98,38
1,272,17771,332,-16273,-2132,-10,82,34
1,273,17776,265,-16223,-2161,-12,66,31
1,274,17781,248,-16198,-2230,-13,52,35
1,275,17786,210,-16250,-2347,-11,44,33
1,276,17791,166,-16306,-2551,-16,30,31
1,277,17796,158,-16283,-2505,-13,15,32
1,278,17801,214,-16278,-2449,-17,5,35
1,279,17806,262,-16258,-2431,-14,-1,30
1,280,17811,263,-16328,-2521,-13,0,28
1,281,17816,227,-16323,-2561,-11,0,30
1,282,17821,194,-16304,-2546,-14,2,26
1,283,17826,214,-16257,-2486,-15,3,24
1,284,17831,233,-16295,-2434,-13,4,25
1,285,17836,298,-16303,-2328,-12,7,24
1,286,17841,284,-16316,-2331,-13,16,18
1,287,17846,304,-16321,-2410,-18,21,17
1,288,17851,388,-16344,-2404,-16,26,18
1,289,17856,444,-16369,-2398,-14,32,15
1,290,17861,436,-16345,-2344,-17,31,19
1,291,17866,338,-16310,-2367,-19,28,16
1,292,17871,282,-16249,-2416,-17,32,13
1,293,17876,260,-16213,-2451,-16,40,13
1,294,17881,249,-16189,-2371,-19,42,8
1,295,17886,260,-16217,-2317,-20,41,5
1,296,17891,225,-16239,-2385,-18,43,4
1,297,17896,239,-16209,-2398,-17,49,5
1,298,17901,224,-16172,-2348,-16,56,2
1,299,17906,191,-16133,-2304,-16,54,-2
1,300,17911,218,-16082,-2297,-13,49,-5
1,301,17916,251,-16068,-2326,-15,50,-7
1,302,17921,230,-16099,-2309,-16,48,-11
1,303,17926,256,-16107,-2269,-17,36,-13
1,304,17931,221,-16094,-2253,-16,28,-15
1,305,17936,229,-16134,-2266,-13,19,-14
1,306,17941,239,-16189,-2253,-10,11,-20
1,307,17946,268,-16221,-2237,-12,-1,-22
1,308,17951,344,-16290,-2233,-11,-5,-23
1,309,17956,459,-16296,-2314,-6,-10,-24
1,310,17961,450,-16281,-2312,-9,-11,-25
1,311,17966,427,-16284,-2278,-9,-13,-28
1,312,17971,309,-16273,-2273,-12,-10,-29
1,313,17976,260,-16326,-2321,-7,-4,-33
1,314,17981,290,-16321,-2271,-6,9,-38
1,315,17986,391,-16317,-2129,-9,17,-38
1,316,17991,461,-16338,-2092,-8,16,-41
1,317,17996,469,-16301,-2134,-5,13,-45
1,318,18001,364,-16277,-2193,-5,9,-47
1,319,18006,233,-16280,-2228,-3,2,-48
1,320,18011,227,-16205,-2285,-6,1,-51
1,321,18016,238,-16156,-2216,-4,-5,-50
1,322,18021,224,-16128,-2146,0,-13,-51
1,323,18026,207,-16189,-2206,0,-18,-56
1,324,18031,193,-16196,-2273,-3,-25,-57
1,325,18036,193,-16227,-2291,-1,-28,-59
1,326,18041,174,-16278,-2288,-1,-30,-59
1,327,18046,176,-16285,-2290,1,-28,-64
1,328,18051,212,-16300,-2317,5,-28,-69
1,329,18056,199,-16317,-2324,5,-29,-71
1,330,18061,157,-16302,-2319,6,-24,-72
1,331,18066,132,-16312,-2308,9,-24,-74
1,332,18071,58,-16324,-2305,9,-25,-75
1,333,18076,46,-16310,-2333,6,-24,-78
1,334,18081,100,-16348,-2286,8,-21,-79
1,335,18086,236,-16356,-2247,6,-25,-80
1,336,18091,317,-16337,-2240,10,-35,-80
1,337,18096,301,-16293,-2245,12,-47,-81
1,338,18101,231,-16269,-2234,15,-65,-80
1,339,18106,259,-16241,-2185,14,-87,-79
1,340,18111,357,-16258,-2221,14,-107,-77
1,341,18116,505,-16254,-2268,16,-122,-73
1,342,18121,589,-16251,-2329,20,-133,-71
1,343,18126,539,-16198,-2370,20,-140,-70
1,344,18131,419,-16191,-2504,21,-138,-72
1,345,18136,312,-16179,-2686,23,-121,-71
1,346,18141,328,-16219,-2764,18,-99,-71
1,347,18146,425,-16278,-2723,17,-78,-72
1,348,18151,500,-16299,-2657,21,-64,-69
1,349,18156,550,-16330,-2631,21,-35,-67
1,350,18161,494,-16313,-2599,22,-20,-65
1,351,18166,411,-16289,-2534,25,-8,-62
1,352,18171,347,-16238,-2514,23,1,-63
1,353,18176,271,-16265,-2511,24,11,-60
1,354,18181,215,-16250,-2531,23,20,-59
1,355,18186,204,-16226,-2500,24,21,-58
1,356,18191,210,-16201,-2481,21,21,-57
1,357,18196,250,-16197,-2462,21,24,-54
1,358,18201,273,-16254,-2421,20,24,-51
1,359,18206,258,-16310,-2412,20,26,-51
1,360,18211,113,-16345,-2500,20,30,-51
1,361,18216,77,-16296,-2512,20,36,-48
1,362,18221,139,-16291,-2433,20,50,-47
1,363,18226,227,-16279,-2307,12,59,-47
1,364,18231,240,-16291,-2218,12,55,-46
1,365,18236,183,-16264,-2190,11,48,-45
1,366,18241,22,-16221,-2260,11,48,-44
1,367,18246,12,-16212,-2248,9,44,-40
1,368,18251,18,-16200,-2173,7,36,-40
1,369,18256,46,-16216,-2144,5,23,-39
1,370,18261,103,-16220,-2247,8,4,-33
1,371,18266,106,-16246,-2300,4,-11,-32
1,372,18271,65,-16236,-2307,1,-25,-33
1,373,18276,15,-16241,-2296,1,-46,-27
1,374,18281,76,-16289,-2392,3,-50,-24
1,375,18286,164,-16295,-2476,3,-52,-24
1,376,18291,179,-16328,-2436,-4,-51,-24
1,377,18296,202,-16397,-2489,-4,-52,-23
1,378,18301,209,-16479,-2476,-3,-54,-22
1,379,18306,140,-16417,-2467,-4,-45,-23
1,380,18311,72,-16415,-2543,-5,-39,-21
1,381,18316,68,-16396,-2644,-4,-39,-21
1,382,18321,131,-16389,-2644,-6,-38,-18
1,383,18326,214,-16373,-2524,-5,-40,-14
1,384,18331,288,-16377,-2449,-7,-44,-16
1,385,18336,211,-16351,-2575,-7,-43,-18
1,386,18341,168,-16303,-2727,-6,-40,-15
1,387,18346,61,-16210,-2790,-5,-32,-16
1,388,18351,39,-16170,-2772,-6,-25,-17
1,389,18356,109,-16169,-2785,-7,-19,-12
1,390,18361,171,-16152,-2822,-5,-10,-11
1,391,18366,167,-16169,-2766,-4,2,-14
1,392,18371,125,-16188,-2751,-2,18,-16
1,393,18376,9,-16232,-2758,-1,29,-16
1,394,18381,4,-16238,-2761,-1,43,-15
1,395,18386,-29,-16244,-2704,-2,54,-15
1,396,18391,-27,-16263,-2538,-3,61,-14
1,397,18396,-2,-16269,-2447,-3,63,-15
1,398,18401,54,-16255,-2369,-4,69,-15
1,399,18406,61,-16252,-2414,-3,71,-16
1,400,18411,-105,-16294,-2565,-3,66,-14
1,401,18416,-181,-16326,-2725,-1,54,-11
1,402,18421,-271,-16346,-2870,-3,46,-10
1,403,18426,-422,-16433,-2883,-3,31,-9
1,404,18431,-471,-16554,-2802,-1,9,-6
1,405,18436,-350,-16650,-2683,-1,-7,0
1,406,18441,-226,-16674,-2619,-1,-6,2
1,407,18446,-206,-16655,-2558,0,-1,8
1,408,18451,-266,-16670,-2501,0,7,7
1,409,18456,-351,-16689,-2445,-4,12,10
1,410,18461,-564,-16674,-2339,-5,20,19
1,411,18466,-779,-16559,-2197,-8,28,22
1,412,18471,-866,-16482,-2192,-9,28,28
1,413,18476,-913,-16415,-2191,-13,21,35
1,414,18481,-932,-16298,-2077,-17,7,45
1,415,18486,-811,-16123,-1946,-20,-19,55
1,416,18491,-977,-15904,-2168,-17,-58,65
1,417,18496,-1317,-15900,-2442,-20,-93,80
1,418,18501,-1683,-15760,-2609,-25,-118,84
1,419,18506,-1680,-15695,-2469,-28,-139,96
1,420,18511,-1574,-15740,-2486,-29,-160,116
1,421,18516,-1540,-15784,-2634,-31,-159,124
1,422,18521,-1656,-15766,-2737,-38,-160,153
1,423,18526,-1743,-15684,-2643,-41,-158,169
1,424,18531,-1783,-15926,-2738,-45,-141,182
1,425,18536,-1926,-16299,-2733,-49,-117,201
1,426,18541,-1795,-16338,-2582,-53,-100,218
1,427,18546,-1675,-16173,-2330,-59,-95,240
1,428,18551,-1704,-15924,-2338,-60,-84,258
1,429,18556,-1932,-15864,-2572,-65,-61,276
1,430,18561,-2338,-15814,-2548,-75,-42,298
1,431,18566,-2692,-15920,-2807,-80,-41,326
1,432,18571,-2790,-15935,-2843,-84,-33,345
1,433,18576,-2581,-15831,-2539,-90,-16,371
1,434,18581,-2121,-15892,-2503,-95,-9,396
1,435,18586,-1910,-15971,-2762,-99,-3,417
1,436,18591,-2078,-16006,-3002,-98,4,440
1,437,18596,-2556,-16094,-3382,-105,19,464
1,438,18601,-3100,-16385,-3537,-112,45,489
1,439,18606,-2931,-16517,-3368,-120,81,520
1,440,18611,-2358,-16412,-2969,-122,122,550
1,441,18616,-2058,-16298,-2695,-123,145,575
1,442,18621,-2275,-16329,-2670,-128,132,597
1,443,18626,-2824,-16331,-2771,-131,105,627
1,444,18631,-2901,-16334,-2640,-135,75,663
1,445,18636,-2545,-16263,-2543,-142,44,701
1,446,18641,-2190,-16331,-2315,-146,12,729
1,447,18646,-2247,-16393,-2304,-147,-33,758
1,448,18651,-2387,-16444,-2482,-148,-76,794
1,449,18656,-2580,-16407,-2760,-147,-98,826
1,450,18661,-2715,-16457,-2938,-151,-95,853
1,451,18666,-2688,-16454,-3067,-153,-84,883
1,452,18671,-2458,-16483,-3048,-158,-70,915
1,453,18676,-2402,-16462,-3069,-159,-50,938
1,454,18681,-2516,-16397,-3090,-161,-28,959
1,455,18686,-2793,-16397,-3273,-160,-1,983
1,456,18691,-2990,-16389,-3461,-162,31,1008
1,457,18696,-3057,-16447,-3443,-163,67,1030
1,458,18701,-2910,-16477,-3297,-162,102,1055
1,459,18706,-2826,-16515,-3128,-164,123,1075
1,460,18711,-2817,-16570,-3105,-163,133,1096
1,461,18716,-3007,-16542,-3233,-163,135,1113
1,462,18721,-3180,-16484,-3304,-162,132,1132
1,463,18726,-3129,-16512,-3246,-158,128,1151
1,464,18731,-2909,-16514,-3184,-157,116,1174
1,465,18736,-2906,-16501,-3057,-153,104,1187
1,466,18741,-3113,-16509,-3106,-150,95,1197
1,467,18746,-3337,-16491,-3247,-145,92,1212
1,468,18751,-3322,-16468,-3220,-146,105,1222
1,469,18756,-3168,-16545,-3209,-141,132,1232
1,470,18761,-2854,-16634,-3314,-136,157,1244
1,471,18766,-2756,-16609,-3374,-134,177,1245
1,472,18771,-2992,-16478,-3151,-134,193,1247
1,473,18776,-3282,-16378,-3120,-130,196,1248
1,474,18781,-3303,-16333,-3134,-129,210,1252
1,475,18786,-3239,-16283,-3163,-127,232,1254
1,476,18791,-3273,-16253,-3055,-122,242,1254
1,477,18796,-3233,-16214,-3120,-119,232,1251
1,478,18801,-3204,-16216,-3111,-115,225,1252
1,479,18806,-3187,-16262,-3058,-115,235,1247
1,480,18811,-3188,-16274,-2889,-113,247,1240
1,481,18816,-3314,-16267,-2819,-106,257,1232
1,482,18821,-3468,-16231,-2850,-102,265,1226
1,483,18826,-3810,-16046,-2865,-97,283,1216
1,484,18831,-3821,-15867,-3162,-96,305,1200
1,485,18836,-3439,-15953,-3437,-95,343,1189
1,486,18841,-2903,-16229,-3481,-96,385,1173
1,487,18846,-2757,-16429,-2809,-94,400,1155
1,488,18851,-3055,-16320,-2210,-91,368,1137
1,489,18856,-3000,-16147,-2516,-83,337,1123
1,490,18861,-2944,-16044,-2801,-78,357,1108
1,491,18866,-3001,-15981,-2532,-78,365,1090
1,492,18871,-3222,-15883,-2192,-75,315,1075
1,493,18876,-3414,-15763,-2410,-69,262,1058
1,494,18881,-3472,-15755,-2729,-66,255,1036
1,495,18886,-3211,-15643,-2522,-59,237,996
1,496,18891,-2976,-15651,-2671,-52,196,972
1,497,18896,-3031,-15682,-2780,-44,180,944
1,498,18901,-3355,-15764,-2626,-39,176,921
1,499,18906,-3288,-15725,-2728,-35,174,894
1,500,18911,-3148,-15785,-2863,-29,179,870
1,501,18916,-3125,-15795,-2672,-26,200,842
1,502,18921,-3040,-15737,-2460,-21,214,813
1,503,18926,-2997,-15693,-2388,-16,215,784
1,504,18931,-2994,-15598,-2374,-12,214,753
1,505,18936,-2933,-15544,-2311,-7,211,722
1,506,18941,-2763,-15458,-2218,-6,205,697
1,507,18946,-2617,-15510,-2130,-1,191,670
1,508,18951,-2571,-15613,-2087,5,168,639
1,509,18956,-2710,-15562,-2050,10,144,607
1,510,18961,-2855,-15562,-2188,16,130,577
1,511,18966,-2971,-15500,-2301,18,133,548
1,512,18971,-2913,-15390,-2216,22,135,519
1,513,18976,-2796,-15279,-2109,29,127,487
1,514,18981,-2523,-15198,-2203,34,111,457
1,515,18986,-2358,-15266,-2264,42,104,425
1,516,18991,-2456,-15289,-2234,45,91,390
1,517,18996,-2729,-15338,-2307,50,66,361
1,518,19001,-2776,-15308,-2543,58,37,332
1,519,19006,-2522,-15290,-2544,64,33,303
1,520,19011,-2362,-15389,-2285,65,28,273
1,521,19016,-2363,-15353,-2011,71,4,239
1,522,19021,-2399,-15364,-2207,85,-26,209
1,523,19026,-2497,-15554,-2533,92,-29,177
1,524,19031,-2372,-15618,-2380,94,-13,144
1,525,19036,-2271,-15510,-2185,101,-12,113
1,526,19041,-2188,-15550,-2335,109,-27,80
1,527,19046,-2292,-15644,-2519,113,-22,49
1,528,19051,-2330,-15703,-2442,118,-12,18
1,529,19056,-2210,-15655,-2340,125,-19,-11
1,530,19061,-2090,-15641,-2292,132,-32,-44
1,531,19066,-2099,-15665,-2246,139,-36,-78
1,532,19071,-2088,-15646,-2164,145,-37,-108
1,533,19076,-2007,-15633,-2076,147,-47,-138
1,534,19081,-1974,-15636,-2023,154,-61,-165
1,535,19086,-1997,-15654,-2036,161,-72,-199
1,536,19091,-1995,-15648,-2228,167,-83,-231
1,537,19096,-1943,-15661,-2300,171,-88,-261
1,538,19101,-1925,-15646,-2170,170,-89,-294
1,539,19106,-1782,-15739,-2153,175,-80,-323
1,540,19111,-1700,-15828,-2227,179,-52,-356
1,541,19116,-1661,-15882,-2309,185,-11,-391
1,542,19121,-1678,-15872,-2286,186,20,-425
1,543,19126,-1762,-15897,-2183,186,39,-456
1,544,19131,-1984,-16035,-2173,189,58,-487
1,545,19136,-2121,-16232,-2198,192,82,-520
1,546,19141,-2071,-16284,-2144,197,97,-554
1,547,19146,-1928,-16257,-1975,198,92,-584
1,548,19151,-1829,-16128,-1992,204,67,-615
1,549,19156,-1657,-16109,-2258,211,39,-649
1,550,19161,-1593,-16145,-2554,215,17,-680
1,551,19166,-1609,-16078,-2485,215,0,-714
1,552,19171,-1676,-16001,-2261,218,-12,-745
1,553,19176,-1956,-16080,-2387,223,-10,-779
1,554,19181,-2293,-16342,-2832,229,24,-815
1,555,19186,-2425,-16467,-3042,233,76,-853
1,556,19191,-2320,-16466,-2721,228,111,-891
1,557,19196,-2069,-16414,-2318,227,129,-927
1,558,19201,-1898,-16500,-2227,234,158,-967
1,559,19206,-1750,-16571,-2309,238,201,-1006
1,560,19211,-1568,-16544,-2280,237,231,-1041
1,561,19216,-1438,-16530,-1915,237,223,-1076
1,562,19221,-1328,-16569,-1743,238,196,-1108
1,563,19226,-1323,-16555,-1780,242,170,-1142
1,564,19231,-1443,-16486,-1751,244,155,-1180
1,565,19236,-1607,-16447,-1820,246,129,-1214
1,566,19241,-1800,-16550,-2229,247,104,-1249
1,567,19246,-2048,-16712,-2807,251,95,-1283
1,568,19251,-2132,-16751,-3069,254,88,-1316
1,569,19256,-1524,-16701,-2953,248,102,-1385
1,570,19261,-1162,-16835,-2773,251,144,-1429
1,571,19266,-1204,-16932,-2636,254,191,-1472
1,572,19271,-1146,-17026,-2628,260,233,-1513
1,573,19276,-1153,-17018,-2755,262,262,-1548
1,574,19281,-1228,-17084,-2828,262,278,-1588
1,575,19286,-1567,-17210,-2962,266,253,-1628
1,576,19291,-1755,-17168,-2824,272,202,-1659
1,577,19296,-1525,-16960,-2536,271,154,-1690
1,578,19301,-1136,-16904,-2463,275,131,-1724
1,579,19306,-860,-17068,-2658,283,137,-1763
1,580,19311,-885,-17332,-2817,286,158,-1799
1,581,19316,-878,-17469,-2616,286,184,-1831
1,582,19321,-1092,-17605,-3061,292,208,-1865
1,583,19326,-1054,-17894,-3323,296,248,-1895
1,584,19331,-1097,-17958,-3187,298,267,-1920
1,585,19336,-256,-18545,-2433,292,254,-1936
1,586,19341,154,-17749,-1736,286,234,-1992
1,587,19346,-335,-17811,-1693,299,243,-2014
1,588,19351,73,-19206,-2388,310,265,-2025
1,589,19356,-188,-18645,-2694,312,288,-2078
1,590,19361,784,-18317,-2706,313,284,-2084
1,591,19366,377,-18451,-2492,307,269,-2111
1,592,19371,-299,-18684,-2619,316,253,-2143
1,593,19376,604,-18333,-3923,322,231,-2152
1,594,19381,-792,-19500,-2044,318,220,-2124
1,595,19386,-395,-19159,-1980,324,92,-2176
1,596,19391,832,-18564,-2573,329,163,-2215
1,597,19396,541,-19889,-2344,348,173,-2186
1,598,19401,833,-18754,-3046,325,-56,-2223
1,599,19406,3999,-14542,-2480,325,-104,-2183
1,600,19411,4748,-6271,9125,313,115,-2422
1,601,19416,-17911,-1710,-1975,214,-1892,-1577
1,602,19421,2862,-8615,-23643,654,-2551,-565
1,603,19426,21121,-20941,-12087,79,1690,-1579
1,604,19431,-5225,-8930,23738,-181,3452,-2913
1,605,19436,-8,-19172,6126,427,-1084,-1597
1,606,19441,-7006,-16655,-22452,627,-2335,-1170
1,607,19446,5400,-19268,-19197,279,438,-1689
1,608,19451,-3016,-17189,5413,43,2164,-1934
1,609,19456,1026,-16990,16637,205,797,-1791
1,610,19461,6421,-19805,-5385,407,-1456,-1459
1,611,19466,3929,-18873,-11609,369,-968,-1547
1,612,19471,-1553,-18246,-3591,217,296,-1705
1,613,19476,-4487,-16241,4329,229,317,-1643
1,614,19481,1973,-17408,-2952,327,-656,-1466
1,615,19486,4199,-18070,-7542,296,-620,-1484
1,616,19491,2637,-17982,-2777,224,14,-1556
1,617,19496,198,-17766,902,226,91,-1523
1,618,19501,298,-17185,-2184,271,-335,-1452
1,619,19506,1307,-17168,-5278,263,-412,-1406
1,620,19511,1013,-16848,-2744,210,-78,-1411
1,621,19516,1151,-16861,151,202,-13,-1378
1,622,19521,1689,-16932,-933,225,-270,-1327
1,623,19526,1932,-16793,-2981,220,-392,-1302
1,624,19531,1180,-16571,-2298,196,-275,-1284
1,625,19536,555,-16246,-698,178,-222,-1257
1,626,19541,741,-16081,-1247,180,-341,-1211
1,627,19546,1004,-15949,-2657,179,-406,-1172
1,628,19551,667,-15744,-2435,163,-356,-1145
1,629,19556,432,-15548,-1636,149,-372,-1106
1,630,19561,865,-15579,-1648,146,-472,-1057
1,631,19566,1489,-15610,-2216,141,-519,-1020
1,632,19571,1699,-15689,-1950,131,-481,-988
1,633,19576,1713,-15729,-1515,123,-475,-957
1,634,19581,1793,-15684,-1736,120,-518,-919
1,635,19586,1825,-15598,-2128,115,-518,-885
1,636,19591,1791,-15592,-1984,101,-458,-858
1,637,19596,1777,-15552,-1867,94,-418,-827
1,638,19601,1944,-15463,-1969,91,-409,-791
1,639,19606,2120,-15532,-2022,83,-387,-756
1,640,19611,2290,-15612,-1639,74,-347,-724
1,641,19616,2422,-15591,-1195,72,-330,-697
1,642,19621,2056,-15422,-1637,71,-354,-641
1,643,19626,1702,-15050,-1847,63,-353,-619
1,644,19631,1659,-15160,-2149,62,-378,-577
1,645,19636,2124,-14931,-2202,56,-408,-548
1,646,19641,2644,-14980,-1946,52,-427,-512
1,647,19646,2951,-15186,-1736,50,-442,-483
1,648,19651,2982,-15288,-1754,52,-445,-460
1,649,19656,2884,-15342,-1995,54,-424,-434
1,650,19661,2858,-15252,-2109,50,-377,-411
1,651,19666,3081,-15172,-1983,49,-325,-385
1,652,19671,3298,-15220,-1899,45,-288,-364
1,653,19676,3338,-15251,-1752,45,-262,-340
1,654,19681,3257,-15264,-1646,43,-244,-322
1,655,19686,3220,-15222,-1661,44,-231,-300
1,656,19691,3379,-15149,-1710,44,-217,-278
1,657,19696,3594,-15085,-1604,41,-208,-256
1,658,19701,3625,-15146,-1483,39,-220,-238
1,659,19706,3615,-15231,-1539,43,-241,-217
1,660,19711,3645,-15255,-1808,47,-250,-195
1,661,19716,3679,-15155,-2021,46,-235,-177
1,662,19721,3694,-15066,-2130,46,-233,-157
1,663,19726,3647,-15058,-2199,47,-240,-140
1,664,19731,3752,-15056,-2181,46,-239,-121
1,665,19736,3892,-15081,-2070,49,-228,-105
1,666,19741,3966,-15089,-1968,53,-214,-94
1,667,19746,4038,-15159,-1915,57,-205,-83
1,668,19751,4100,-15217,-1906,56,-201,-66
1,669,19756,4219,-15158,-1817,55,-199,-54
1,670,19761,4361,-15062,-1779,56,-199,-42
1,671,19766,4415,-15033,-1828,57,-201,-31
1,672,19771,4486,-15109,-1926,57,-202,-18
1,673,19776,4562,-15111,-1929,56,-197,-8
1,674,19781,4733,-15100,-1845,58,-184,3
1,675,19786,4826,-15088,-1897,55,-156,15
1,676,19791,4869,-15168,-1957,55,-118,23
1,677,19796,4831,-15149,-1900,52,-81,30
1,678,19801,4879,-15061,-1767,47,-43,37
1,679,19806,4948,-15123,-1659,43,-11,46
1,680,19811,5057,-15172,-1530,46,16,58
1,681,19816,5153,-15132,-1398,44,27,68
1,682,19821,5140,-15122,-1367,39,22,74
1,683,19826,5055,-15165,-1407,38,6,83
1,684,19831,5112,-15185,-1443,37,-9,96
1,685,19836,5163,-15149,-1418,33,-24,104
1,686,19841,5098,-15086,-1526,32,-51,110
1,687,19846,4995,-15043,-1777,33,-79,116
1,688,19851,5022,-15053,-1985,31,-93,125
1,689,19856,5200,-15069,-2216,26,-100,132
1,690,19861,5519,-15156,-2009,23,-86,138
1,691,19866,5756,-15308,-1856,20,-72,144
1,692,19871,5844,-15344,-1965,19,-50,144
1,693,19876,5874,-15371,-2051,17,-6,143
1,694,19881,5693,-15301,-2006,12,35,144
1,695,19886,5510,-15283,-1839,8,68,148
1,696,19891,5477,-15298,-1846,4,92,152
1,697,19896,5589,-15287,-1755,2,123,157
1,698,19901,5629,-15263,-1531,-3,143,158
1,699,19906,5676,-15319,-1375,-10,143,161
1,700,19911,5683,-15388,-1435,-12,127,168
1,701,19916,5662,-15427,-1583,-15,107,168
1,702,19921,5585,-15423,-1515,-16,88,173
1,703,19926,5538,-15414,-1616,-19,64,178
1,704,19931,5505,-15361,-1662,-22,42,183
1,705,19936,5572,-15370,-1904,-25,16,185
1,706,19941,5643,-15495,-1994,-24,7,192
1,707,19946,5655,-15355,-1923,-29,10,183
1,708,19951,5642,-15357,-2102,-30,2,181
1,709,19956,5631,-15382,-2196,-34,15,181
1,710,19961,5623,-15369,-2177,-35,38,181
1,711,19966,5607,-15408,-2052,-40,58,179
1,712,19971,5670,-15431,-2009,-40,65,175
1,713,19976,5597,-15375,-1957,-41,74,169
1,714,19981,5495,-15390,-1944,-44,83,170
1,715,19986,5629,-15395,-1787,-50,76,171
1,716,19991,5641,-15408,-1726,-50,65,172
1,717,19996,5576,-15445,-1749,-52,53,167
1,718,20001,5479,-15509,-1743,-53,44,167
1,719,20006,5551,-15520,-1728,-56,40,165
1,720,20011,5627,-15502,-1687,-58,39,163
1,721,20016,5594,-15580,-1724,-58,37,158
1,722,20021,5506,-15604,-1765,-60,34,156
1,723,20026,5524,-15655,-1799,-64,39,156
1,724,20031,5527,-15606,-1842,-65,46,151
1,725,20036,5491,-15554,-1824,-65,49,146
1,726,20041,5343,-15509,-1875,-67,39,142
1,727,20046,5271,-15421,-1929,-66,31,142
1,728,20051,5377,-15422,-2001,-68,36,139
1,729,20056,5473,-15409,-2015,-66,44,135
1,730,20061,5540,-15463,-1980,-68,51,129
1,731,20066,5575,-15423,-1975,-71,57,128
1,732,20071,5532,-15425,-1875,-72,71,125
1,733,20076,5496,-15456,-1804,-73,84,120
1,734,20081,5485,-15423,-1844,-72,91,118
1,735,20086,5533,-15439,-1854,-72,97,116
1,736,20091,5572,-15459,-1783,-75,100,112
1,737,20096,5752,-15528,-1712,-74,95,112
1,738,20101,5874,-15590,-1663,-76,94,111
1,739,20106,5784,-15603,-1552,-78,95,107
1,740,20111,5577,-15547,-1562,-78,92,105
1,741,20116,5436,-15524,-1542,-81,87,103
1,742,20121,5417,-15595,-1512,-83,96,103
1,743,20126,5510,-15559,-1488,-81,100,102
1,744,20131,5533,-15514,-1386,-82,95,98
1,745,20136,5447,-15446,-1389,-83,80,92
1,746,20141,5362,-15350,-1606,-83,66,91
1,747,20146,5291,-15296,-1729,-83,55,91
1,748,20151,5237,-15308,-1709,-85,46,90
1,749,20156,5181,-15334,-1707,-87,34,86
1,750,20161,5133,-15326,-1764,-84,32,84
1,751,20166,5168,-15354,-1852,-83,51,80
1,752,20171,5298,-15390,-1747,-85,72,76
1,753,20176,5308,-15453,-1697,-85,75,71
1,754,20181,5359,-15529,-1639,-85,71,69
1,755,20186,5460,-15551,-1460,-87,69,68
1,756,20191,5597,-15598,-1321,-87,71,67
1,757,20196,5700,-15686,-1224,-87,69,66
1,758,20201,5720,-15740,-1279,-85,65,65
1,759,20206,5723,-15717,-1394,-85,63,63
1,760,20211,5631,-15666,-1472,-87,60,60
1,761,20216,5522,-15632,-1405,-89,58,58
1,762,20221,5341,-15623,-1421,-91,57,56
1,763,20226,5243,-15572,-1611,-88,67,53
1,764,20231,5180,-15522,-1707,-91,87,47
1,765,20236,5143,-15450,-1689,-89,100,45
1,766,20241,5096,-15461,-1674,-89,99,41
1,767,20246,5076,-15506,-1680,-89,99,37
1,768,20251,4965,-15539,-1741,-85,102,34
1,769,20256,4936,-15541,-1664,-87,102,32
1,770,20261,5000,-15559,-1506,-85,96,27
1,771,20266,5029,-15626,-1414,-83,77,29
1,772,20271,5084,-15655,-1502,-83,58,23
1,773,20276,5110,-15706,-1574,-77,45,20
1,774,20281,5152,-15690,-1569,-76,34,20
1,775,20286,5164,-15702,-1559,-75,15,18
1,776,20291,5165,-15754,-1625,-72,4,17
1,777,20296,5199,-15745,-1715,-70,1,15
1,778,20301,5261,-15739,-1786,-68,2,9
1,779,20306,5311,-15795,-1819,-66,5,9
1,780,20311,5390,-15780,-1870,-64,9,7
1,781,20316,5388,-15780,-1858,-62,17,5
1,782,20321,5283,-15753,-1815,-57,29,3
1,783,20326,5211,-15731,-1891,-56,38,-1
1,784,20331,5197,-15733,-1931,-56,47,-5
1,785,20336,5229,-15673,-1885,-55,51,-5
1,786,20341,5182,-15615,-1831,-52,52,-8
1,787,20346,5029,-15603,-1883,-48,48,-9
1,788,20351,5110,-15548,-1791,-43,50,-8
1,789,20356,5103,-15482,-1675,-41,58,-13
1,790,20361,5023,-15444,-1730,-39,58,-14
1,791,20366,5017,-15460,-1780,-35,56,-13
1,792,20371,5066,-15454,-1734,-33,48,-14
1,793,20376,5201,-15430,-1591,-35,43,-15
1,794,20381,5264,-15408,-1561,-32,29,-16
1,795,20386,5210,-15411,-1603,-32,13,-20
1,796,20391,5205,-15414,-1633,-30,2,-19
1,797,20396,5182,-15428,-1678,-27,-2,-16
1,798,20401,5218,-15397,-1713,-27,-3,-19
1,799,20406,5160,-15403,-1716,-27,-3,-20
1,800,20411,5162,-15460,-1842,-23,-3,-15
1,801,20416,5211,-15515,-1907,-22,3,-18
1,802,20421,5282,-15511,-1897,-22,18,-20
1,803,20426,5353,-15506,-1832,-24,29,-19
1,804,20431,5249,-15474,-1834,-22,40,-20
1,805,20436,5151,-15465,-1906,-18,57,-23
1,806,20441,5046,-15479,-1933,-19,84,-25
1,807,20446,5070,-15455,-1843,-20,104,-26
1,808,20451,5121,-15448,-1709,-20,113,-27
1,809,20456,5066,-15451,-1552,-23,119,-25
1,810,20461,5009,-15458,-1481,-19,117,-28
1,811,20466,4993,-15524,-1555,-17,114,-29
1,812,20471,5084,-15530,-1543,-15,100,-27
1,813,20476,5123,-15520,-1471,-15,83,-27
1,814,20481,5153,-15506,-1473,-19,67,-28
1,815,20486,5256,-15535,-1558,-16,56,-25
1,816,20491,5407,-15548,-1638,-14,53,-24
1,817,20496,5523,-15593,-1663,-14,47,-24
1,818,20501,5496,-15636,-1619,-14,34,-24
1,819,20506,5388,-15636,-1694,-14,25,-24
1,820,20511,5357,-15603,-1783,-12,20,-21
1,821,20516,5286,-15575,-1806,-12,19,-20
1,822,20521,5280,-15529,-1880,-10,10,-18
1,823,20526,5231,-15529,-1974,-8,4,-19
1,824,20531,5195,-15584,-2064,-5,4,-18
1,825,20536,5195,-15585,-2064,-5,12,-16
1,826,20541,5234,-15605,-2025,-3,17,-17
1,827,20546,5258,-15604,-2074,0,26,-18
1,828,20551,5253,-15585,-2105,2,38,-22
1,829,20556,5127,-15567,-1995,2,52,-22
1,830,20561,5056,-15548,-2000,5,58,-22
1,831,20566,5021,-15540,-2037,5,72,-26
1,832,20571,5064,-15580,-1891,4,90,-28
1,833,20576,5121,-15573,-1752,7,95,-26
1,834,20581,5183,-15591,-1702,10,91,-26
1,835,20586,5192,-15538,-1643,10,82,-26
1,836,20591,5185,-15496,-1649,12,72,-28
1,837,20596,5209,-15475,-1703,13,65,-31
1,838,20601,5187,-15489,-1653,13,59,-29
1,839,20606,5229,-15508,-1643,16,53,-27
1,840,20611,5332,-15516,-1657,16,50,-28
1,841,20616,5420,-15518,-1670,15,44,-28
1,842,20621,5440,-15545,-1710,16,35,-28
1,843,20626,5414,-15556,-1731,18,22,-24
1,844,20631,5418,-15548,-1783,21,7,-24
1,845,20636,5430,-15533,-1772,22,-4,-22
1,846,20641,5395,-15503,-1835,24,-13,-23
1,847,20646,5370,-15526,-1975,26,-18,-24
1,848,20651,5297,-15496,-2034,26,-21,-20
1,849,20656,5285,-15472,-2057,26,-14,-21
1,850,20661,5275,-15472,-2007,27,1,-21
1,851,20666,5261,-15470,-1923,30,19,-22
1,852,20671,5268,-15527,-1931,29,33,-24
1,853,20676,5270,-15516,-1850,31,43,-25
1,854,20681,5180,-15535,-1754,30,49,-28
1,855,20686,5232,-15450,-1738,33,47,-24
1,856,20691,5219,-15435,-1740,35,46,-25
1,857,20696,5122,-15406,-1791,34,46,-28
1,858,20701,5054,-15355,-1779,33,37,-27
1,859,20706,5149,-15354,-1671,32,31,-25
1,860,20711,5247,-15410,-1654,32,29,-25
1,861,20716,5314,-15445,-1645,31,26,-29
1,862,20721,5304,-15435,-1684,35,23,-24
1,863,20726,5308,-15420,-1684,33,21,-22
1,864,20731,5423,-15431,-1712,33,11,-22
1,865,20736,5544,-15411,-1778,34,-3,-19
1,866,20741,5608,-15361,-1852,35,-17,-14
1,867,20746,5568,-15356,-1794,32,-24,-15
1,868,20751,5477,-15383,-1832,35,-26,-15
1,869,20756,5455,-15351,-1964,37,-12,-14
1,870,20761,5448,-15364,-2048,36,14,-17
1,871,20766,5356,-15371,-2051,34,36,-16
1,872,20771,5287,-15337,-1957,35,49,-13
1,873,20776,5302,-15376,-1847,33,58,-9
1,874,20781,5288,-15385,-1670,34,64,-9
1,875,20786,5285,-15390,-1598,35,60,-8
1,876,20791,5312,-15392,-1642,37,43,-6
1,877,20796,5324,-15422,-1739,36,25,-5
1,878,20801,5301,-15429,-1761,34,7,-3
1,879,20806,5273,-15438,-1728,35,-14,0
1,880,20811,5208,-15478,-1746,37,-30,2
1,881,20816,5149,-15494,-1851,31,-28,1
1,882,20821,5183,-15513,-1912,32,-12,1
1,883,20826,5150,-15507,-1886,32,1,2
1,884,20831,5053,-15463,-1860,33,10,0
1,885,20836,4912,-15477,-1825,35,17,-1
1,886,20841,4874,-15497,-1811,32,32,1
1,887,20846,4965,-15450,-1836,30,44,0
1,888,20851,5019,-15483,-1742,32,46,-1
1,889,20856,4991,-15537,-1683,31,33,-1
1,890,20861,4959,-15593,-1630,29,18,2
1,891,20866,5065,-15643,-1601,30,7,2
1,892,20871,5141,-15649,-1625,29,4,3
1,893,20876,5195,-15624,-1677,29,0,4
1,894,20881,5070,-15605,-1729,28,-16,6
1,895,20886,4988,-15586,-1786,29,-29,9
1,896,20891,4991,-15586,-1820,31,-33,9
1,897,20896,5039,-15597,-1842,28,-36,9
1,898,20901,5044,-15628,-1883,30,-41,8
1,899,20906,5066,-15647,-1973,30,-46,11
1,900,20911,5146,-15646,-1984,28,-37,13
1,901,20916,5145,-15679,-1968,30,-27,11
1,902,20921,5058,-15649,-2020,31,-23,12
1,903,20926,5055,-15613,-2075,29,-20,12
1,904,20931,5070,-15583,-2003,30,-7,12
1,905,20936,5068,-15567,-1868,30,10,13
1,906,20941,4988,-15565,-1856,29,17,12
1,907,20946,5120,-15580,-1832,31,26,12
1,908,20951,5181,-15557,-1754,29,39,13
1,909,20956,5145,-15594,-1665,29,44,15
1,910,20961,5157,-15647,-1578,26,37,16
1,911,20966,5178,-15606,-1594,27,36,18
1,912,20971,5131,-15532,-1528,28,34,16
1,913,20976,5075,-15537,-1547,27,24,18
1,914,20981,5126,-15548,-1639,24,7,20
1,915,20986,5169,-15544,-1704,24,-2,19
1,916,20991,5114,-15513,-1646,25,-3,19
1,917,20996,5019,-15476,-1709,26,-15,19
1,918,21001,5030,-15466,-1788,28,-22,22
1,919,21006,5138,-15449,-1851,25,-14,22
1,920,21011,5203,-15465,-1817,24,-10,25
1,921,21016,5294,-15505,-1780,23,-14,24
1,922,21021,5268,-15545,-1883,25,-11,22
1,923,21026,5255,-15554,-1852,24,-4,19
1,924,21031,5193,-15549,-1805,24,5,22
1,925,21036,5149,-15525,-1778,26,7,24
1,926,21041,5256,-15570,-1763,25,12,24
1,927,21046,5244,-15526,-1695,24,17,24
1,928,21051,5167,-15557,-1659,24,12,21
1,929,21056,5066,-15522,-1730,25,5,21
1,930,21061,5055,-15517,-1738,24,3,23
1,931,21066,5094,-15530,-1693,23,6,22
1,932,21071,5167,-15530,-1649,23,6,21
1,933,21076,5154,-15522,-1704,23,-1,21
1,934,21081,5059,-15495,-1799,25,-9,20
1,935,21086,5083,-15537,-1788,22,-14,23
1,936,21091,5266,-15526,-1770,21,-20,27
1,937,21096,5301,-15534,-1769,24,-21,24
1,938,21101,5193,-15579,-1800,25,-22,21
1,939,21106,5071,-15546,-1843,21,-21,21
1,940,21111,5133,-15537,-1837,22,-6,23
1,941,21116,5160,-15537,-1783,21,6,25
1,942,21121,5169,-15536,-1796,19,12,24
1,943,21126,5218,-15551,-1788,22,11,23
1,944,21131,5260,-15572,-1765,19,13,23
1,945,21136,5265,-15594,-1628,18,18,24
1,946,21141,5204,-15570,-1633,17,20,22
1,947,21146,5171,-15569,-1672,18,21,24
1,948,21151,5195,-15610,-1749,17,25,26
1,949,21156,5147,-15587,-1717,16,30,25
1,950,21161,5075,-15561,-1682,19,23,28
1,951,21166,5036,-15546,-1637,15,12,29
1,952,21171,4988,-15510,-1682,19,8,27
1,953,21176,5059,-15491,-1702,18,12,27
1,954,21181,5056,-15480,-1641,15,10,28
1,955,21186,4930,-15514,-1624,16,3,28
1,956,21191,4884,-15479,-1648,18,-2,30
1,957,21196,4875,-15512,-1663,13,4,26
1,958,21201,5029,-15490,-1653,11,9,24
1,959,21206,5130,-15526,-1531,11,9,26
1,960,21211,5185,-15571,-1548,11,0,31
1,961,21216,5184,-15587,-1602,12,-5,30
1,962,21221,5134,-15610,-1600,11,-2,28
1,963,21226,5009,-15627,-1596,12,-7,32
1,964,21231,4968,-15631,-1661,10,-9,33
1,965,21236,4956,-15606,-1705,11,-5,32
1,966,21241,4920,-15640,-1724,7,2,31
1,967,21246,4982,-15608,-1648,6,2,34
1,968,21251,5027,-15650,-1650,7,-3,34
1,969,21256,5022,-15706,-1697,10,-8,34
1,970,21261,5051,-15706,-1691,11,-5,33
1,971,21266,5026,-15675,-1609,6,0,34
1,972,21271,4942,-15651,-1530,7,0,33
1,973,21276,4882,-15548,-1616,8,1,27
1,974,21281,4825,-15573,-1771,10,1,33
1,975,21286,4833,-15621,-1679,8,23,31
1,976,21291,4824,-15616,-1593,6,36,29
1,977,21296,4866,-15635,-1540,3,31,32
1,978,21301,4802,-15602,-1670,7,26,28
1,979,21306,4749,-15613,-1632,6,33,28
1,980,21311,4800,-15622,-1564,4,34,28
1,981,21316,4927,-15631,-1535,5,27,31
1,982,21321,5061,-15702,-1529,5,20,31
1,983,21326,5103,-15755,-1472,4,10,29
1,984,21331,5052,-15820,-1533,4,-6,32
1,985,21336,5021,-15789,-1576,3,-13,32
1,986,21341,4988,-15796,-1648,5,-11,32
1,987,21346,4943,-15810,-1713,4,-5,34
1,988,21351,4937,-15777,-1736,3,-2,36
1,989,21356,4824,-15758,-1744,3,-2,35
1,990,21361,4843,-15761,-1744,0,3,31
1,991,21366,4809,-15770,-1782,5,7,32
1,992,21371,4821,-15774,-1825,4,14,34
1,993,21376,4833,-15713,-1698,4,19,33
1,994,21381,4764,-15658,-1587,2,18,32
1,995,21386,4715,-15690,-1649,3,11,32
1,996,21391,4780,-15655,-1694,4,7,34
1,997,21396,4803,-15661,-1732,1,9,35
1,998,21401,4790,-15656,-1674,2,9,34
1,999,21406,4759,-15673,-1673,4,5,38
