event_id,seq,ts_ms,ax,ay,az,gx,gy,gz
1,0,19729,-2488,-16201,-1948,18,43,-57
1,1,19734,-2421,-16157,-2004,20,56,-59
1,2,19739,-2473,-16135,-1968,20,67,-58
1,3,19744,-2512,-16096,-1857,21,77,-55
1,4,19749,-2490,-16094,-1745,21,76,-55
1,5,19754,-2388,-16093,-1657,20,65,-54
1,6,19759,-2343,-16116,-1559,19,52,-52
1,7,19764,-2348,-16139,-1462,20,32,-54
1,8,19769,-2397,-16132,-1435,18,2,-55
1,9,19774,-2427,-16133,-1508,16,-29,-55
1,10,19779,-2412,-16197,-1484,14,-60,-56
1,11,19784,-2398,-16224,-1534,11,-77,-53
1,12,19789,-2368,-16166,-1662,10,-88,-53
1,13,19794,-2364,-16093,-1833,11,-94,-54
1,14,19799,-2472,-16084,-1918,13,-96,-50
1,15,19804,-2545,-16086,-1968,10,-91,-49
1,16,19809,-2531,-16139,-1993,6,-82,-49
1,17,19814,-2411,-16146,-1982,13,-65,-46
1,18,19819,-2421,-16124,-2061,15,-44,-48
1,19,19824,-2443,-16094,-2093,16,-26,-47
1,20,19829,-2481,-16087,-2139,16,-12,-51
1,21,19834,-2487,-16082,-2077,19,2,-46
1,22,19839,-2382,-16084,-1889,19,15,-44
1,23,19844,-2326,-16060,-1796,18,22,-45
1,24,19849,-2327,-16113,-1700,18,21,-45
1,25,19854,-2304,-16095,-1715,20,14,-46
1,26,19859,-2272,-16079,-1683,21,-2,-46
1,27,19864,-2349,-16088,-1614,18,-26,-45
1,28,19869,-2349,-16119,-1601,17,-54,-43
1,29,19874,-2330,-16114,-1704,14,-74,-41
1,30,19879,-2266,-16115,-1843,15,-80,-42
1,31,19884,-2266,-16078,-1851,14,-75,-37
1,32,19889,-2223,-16077,-1874,16,-69,-37
1,33,19894,-2198,-16096,-1923,12,-72,-38
1,34,19899,-2246,-16088,-1876,12,-79,-35
1,35,19904,-2284,-16141,-1900,14,-81,-32
1,36,19909,-2310,-16150,-1989,13,-83,-31
1,37,19914,-2308,-16118,-2050,15,-75,-29
1,38,19919,-2260,-16045,-2075,16,-61,-27
1,39,19924,-2275,-16027,-1937,14,-45,-26
1,40,19929,-2309,-16012,-1826,13,-37,-25
1,41,19934,-2246,-16072,-1791,16,-36,-23
1,42,19939,-2194,-16134,-1644,16,-37,-24
1,43,19944,-2226,-16168,-1422,14,-54,-26
1,44,19949,-2343,-16187,-1338,11,-89,-26
1,45,19954,-2364,-16197,-1725,10,-151,-25
1,46,19959,-2360,-16254,-1853,9,-155,-23
1,47,19964,-2390,-16279,-1888,9,-145,-21
1,48,19969,-2420,-16255,-2004,9,-134,-20
1,49,19974,-2409,-16216,-2187,6,-114,-20
1,50,19979,-2446,-16142,-2333,7,-85,-18
1,51,19984,-2457,-16133,-2306,12,-48,-15
1,52,19989,-2497,-16111,-2178,13,-16,-15
1,53,19994,-2488,-16118,-2043,14,1,-14
1,54,19999,-2530,-16180,-2062,16,16,-16
1,55,20004,-2602,-16160,-2093,17,27,-18
1,56,20009,-2645,-16146,-2085,17,39,-18
1,57,20014,-2640,-16154,-1980,18,46,-16
1,58,20019,-2635,-16134,-2016,19,50,-14
1,59,20024,-2659,-16196,-2087,23,55,-17
1,60,20029,-2688,-16154,-2041,22,60,-19
1,61,20034,-2668,-16106,-1998,23,58,-20
1,62,20039,-2611,-16086,-1945,23,58,-22
1,63,20044,-2518,-16154,-1886,23,58,-21
1,64,20049,-2471,-16186,-1798,26,54,-22
1,65,20054,-2452,-16204,-1727,23,46,-26
1,66,20059,-2534,-16184,-1745,22,26,-25
1,67,20064,-2558,-16201,-1825,21,8,-27
1,68,20069,-2441,-16177,-1926,22,0,-27
1,69,20074,-2439,-16180,-1945,19,3,-25
1,70,20079,-2419,-16258,-1947,21,19,-24
1,71,20084,-2404,-16321,-1914,23,32,-21
1,72,20089,-2411,-16367,-1924,22,39,-24
1,73,20094,-2394,-16321,-1906,20,50,-23
1,74,20099,-2339,-16286,-1859,22,59,-22
1,75,20104,-2320,-16239,-1820,21,73,-23
1,76,20109,-2357,-16248,-1793,21,82,-20
1,77,20114,-2344,-16253,-1766,22,88,-17
1,78,20119,-2322,-16191,-1704,19,84,-20
1,79,20124,-2293,-16238,-1683,17,74,-20
1,80,20129,-2309,-16248,-1584,15,66,-18
1,81,20134,-2248,-16236,-1632,15,60,-18
1,82,20139,-2182,-16148,-1706,14,58,-15
1,83,20144,-2123,-16123,-1687,13,62,-15
1,84,20149,-2074,-16127,-1564,13,61,-14
1,85,20154,-2078,-16128,-1425,10,44,-12
1,86,20159,-2160,-16173,-1376,5,20,-13
1,87,20164,-2230,-16194,-1461,4,-8,-15
1,88,20169,-2274,-16136,-1573,1,-32,-12
1,89,20174,-2281,-16076,-1720,-2,-49,-10
1,90,20179,-2228,-16095,-1736,-2,-54,-6
1,91,20184,-2174,-16119,-1811,-3,-51,-7
1,92,20189,-2174,-16139,-1907,-2,-44,-6
1,93,20194,-2281,-16130,-1912,-2,-39,-4
1,94,20199,-2318,-16109,-1966,-3,-27,-6
1,95,20204,-2364,-16135,-1953,-2,-15,-4
1,96,20209,-2367,-16113,-1942,-7,0,-4
1,97,20214,-2364,-16106,-1915,-5,13,-4
1,98,20219,-2348,-16078,-1940,-2,21,-6
1,99,20224,-2387,-16095,-2061,-3,24,-6
1,100,20229,-2375,-16127,-2110,-2,33,-6
1,101,20234,-2421,-16149,-2001,-2,44,-8
1,102,20239,-2417,-16116,-1850,-3,56,-6
1,103,20244,-2339,-16087,-1814,-3,68,-7
1,104,20249,-2334,-16028,-1803,-3,74,-4
1,105,20254,-2327,-16095,-1791,-1,73,-3
1,106,20259,-2254,-16108,-1666,-3,60,-6
1,107,20264,-2303,-16134,-1472,-7,28,-10
1,108,20269,-2317,-16168,-1469,-10,-1,-11
1,109,20274,-2272,-16191,-1686,-9,-23,-11
1,110,20279,-2252,-16167,-1862,-9,-33,-9
1,111,20284,-2223,-16158,-1894,-10,-32,-9
1,112,20289,-2236,-16160,-1802,-11,-36,-7
1,113,20294,-2202,-16173,-1763,-15,-43,-5
1,114,20299,-2200,-16147,-1796,-14,-46,-4
1,115,20304,-2290,-16152,-1826,-13,-44,-4
1,116,20309,-2393,-16215,-1901,-14,-41,-3
1,117,20314,-2428,-16248,-1991,-17,-45,-5
1,118,20319,-2416,-16263,-1972,-17,-47,-7
1,119,20324,-2338,-16241,-2187,-13,-18,-6
1,120,20329,-2339,-16197,-2343,-7,14,-7
1,121,20334,-2440,-16179,-2336,-7,49,-7
1,122,20339,-2475,-16153,-2279,-5,78,-9
1,123,20344,-2439,-16137,-2254,-5,107,-6
1,124,20349,-2417,-16093,-2122,-1,130,-8
1,125,20354,-2397,-16067,-2031,0,142,-13
1,126,20359,-2432,-16013,-1966,0,151,-12
1,127,20364,-2433,-15977,-1900,0,156,-12
1,128,20369,-2371,-16022,-1753,-2,156,-12
1,129,20374,-2316,-16060,-1613,-2,140,-11
1,130,20379,-2270,-16162,-1490,-2,119,-13
1,131,20384,-2273,-16137,-1435,-4,85,-15
1,132,20389,-2328,-16115,-1470,-8,45,-16
1,133,20394,-2294,-16067,-1547,-7,13,-18
1,134,20399,-2218,-16096,-1619,-11,-7,-14
1,135,20404,-2188,-16153,-1736,-10,-16,-12
1,136,20409,-2185,-16172,-1737,-11,-25,-14
1,137,20414,-2247,-16170,-1780,-13,-35,-16
1,138,20419,-2246,-16158,-1860,-14,-38,-15
1,139,20424,-2227,-16116,-1958,-12,-30,-13
1,140,20429,-2238,-16136,-2006,-12,-18,-11
1,141,20434,-2278,-16199,-2049,-12,-7,-13
1,142,20439,-2315,-16188,-2087,-10,2,-15
1,143,20444,-2295,-16164,-2125,-11,17,-12
1,144,20449,-2273,-16170,-2126,-10,36,-12
1,145,20454,-2275,-16156,-2070,-8,55,-11
1,146,20459,-2300,-16090,-1964,-8,69,-11
1,147,20464,-2288,-16082,-1908,-6,78,-10
1,148,20469,-2247,-16066,-1845,-6,85,-13
1,149,20474,-2226,-16117,-1796,-2,83,-11
1,150,20479,-2260,-16146,-1734,-6,76,-13
1,151,20484,-2323,-16069,-1708,-9,63,-15
1,152,20489,-2248,-16038,-1713,-10,49,-12
1,153,20494,-2130,-16004,-1817,-11,45,-11
1,154,20499,-2110,-15978,-1823,-9,49,-12
1,155,20504,-2063,-16011,-1674,-10,45,-7
1,156,20509,-2120,-16061,-1486,-12,24,-9
1,157,20514,-2148,-16151,-1448,-14,-4,-10
1,158,20519,-2212,-16186,-1512,-16,-31,-8
1,159,20524,-2194,-16204,-1643,-18,-52,-7
1,160,20529,-2182,-16262,-1760,-18,-58,-5
1,161,20534,-2156,-16291,-1842,-16,-58,-4
1,162,20539,-2211,-16295,-1953,-20,-53,-3
1,163,20544,-2239,-16235,-2040,-18,-42,-5
1,164,20549,-2236,-16253,-2162,-16,-17,-3
1,165,20554,-2206,-16236,-2180,-16,16,-2
1,166,20559,-2208,-16247,-2075,-16,43,1
1,167,20564,-2187,-16230,-1982,-13,67,3
1,168,20569,-2169,-16228,-1820,-14,78,-1
1,169,20574,-2095,-16232,-1770,-11,76,2
1,170,20579,-2076,-16143,-1700,-10,63,-1
1,171,20584,-2159,-16080,-1655,-14,38,-1
1,172,20589,-2240,-16080,-1624,-18,11,3
1,173,20594,-2327,-16102,-1638,-18,-15,1
1,174,20599,-2347,-16171,-1742,-19,-32,1
1,175,20604,-2211,-16277,-1882,-17,-31,7
1,176,20609,-2112,-16312,-2027,-17,-17,6
1,177,20614,-2169,-16287,-1988,-14,-1,6
1,178,20619,-2345,-16175,-1887,-14,5,2
1,179,20624,-2410,-16113,-1945,-15,1,4
1,180,20629,-2305,-16040,-2022,-14,3,5
1,181,20634,-2198,-15937,-2014,-14,10,9
1,182,20639,-2192,-15863,-1877,-15,8,11
1,183,20644,-2181,-15839,-1871,-13,-12,11
1,184,20649,-2219,-15859,-1986,-13,-39,9
1,185,20654,-2246,-15896,-2070,-14,-68,6
1,186,20659,-2349,-15998,-2085,-12,-88,8
1,187,20664,-2472,-16089,-2159,-9,-97,7
1,188,20669,-2403,-16176,-2357,-8,-86,6
1,189,20674,-2372,-16248,-2549,-3,-48,6
1,190,20679,-2394,-16317,-2520,2,1,8
1,191,20684,-2433,-16359,-2383,5,41,7
1,192,20689,-2426,-16288,-2240,8,104,7
1,193,20694,-2372,-16248,-2152,11,131,5
1,194,20699,-2346,-16260,-1953,11,146,6
1,195,20704,-2266,-16274,-1742,14,143,8
1,196,20709,-2131,-16322,-1615,12,122,8
1,197,20714,-2156,-16354,-1554,13,91,7
1,198,20719,-2205,-16400,-1608,12,61,5
1,199,20724,-2181,-16345,-1658,12,42,5
1,200,20729,-2100,-16279,-1722,8,35,7
1,201,20734,-2055,-16278,-1695,6,33,7
1,202,20739,-2024,-16273,-1647,9,25,9
1,203,20744,-1989,-16232,-1621,6,13,11
1,204,20749,-2057,-16182,-1695,6,-3,11
1,205,20754,-2114,-16182,-1765,4,-20,11
1,206,20759,-2195,-16199,-1751,1,-36,15
1,207,20764,-2187,-16116,-1798,-1,-43,17
1,208,20769,-2107,-16091,-1880,-1,-40,17
1,209,20774,-2076,-16066,-1917,2,-27,18
1,210,20779,-2135,-16002,-1889,3,-16,18
1,211,20784,-2242,-16013,-1868,2,-16,18
1,212,20789,-2316,-16061,-1858,6,-19,16
1,213,20794,-2330,-16075,-1900,5,-21,19
1,214,20799,-2371,-16021,-1884,2,-16,17
1,215,20804,-2426,-16028,-1918,2,-8,15
1,216,20809,-2458,-16028,-1932,3,-5,17
1,217,20814,-2373,-16095,-2020,3,6,15
1,218,20819,-2307,-16118,-1996,5,17,17
1,219,20824,-2383,-16120,-1935,6,21,16
1,220,20829,-2452,-16139,-1936,3,14,12
1,221,20834,-2417,-16111,-1976,6,10,12
1,222,20839,-2428,-16119,-1999,7,13,10
1,223,20844,-2406,-16121,-1948,7,15,12
1,224,20849,-2324,-16139,-1818,5,17,11
1,225,20854,-2264,-16170,-1781,5,16,8
1,226,20859,-2258,-16196,-1717,4,12,7
1,227,20864,-2303,-16207,-1703,6,2,8
1,228,20869,-2357,-16202,-1672,6,-17,8
1,229,20874,-2404,-16235,-1698,3,-33,4
1,230,20879,-2397,-16254,-1827,1,-46,7
1,231,20884,-2436,-16321,-1930,2,-47,10
1,232,20889,-2461,-16321,-1972,3,-38,9
1,233,20894,-2415,-16264,-2051,3,-20,4
1,234,20899,-2377,-16142,-2115,0,11,3
1,235,20904,-2415,-16087,-2125,5,41,6
1,236,20909,-2394,-16089,-1980,8,62,5
1,237,20914,-2376,-16088,-1807,9,71,6
1,238,20919,-2412,-16102,-1681,6,67,3
1,239,20924,-2388,-16139,-1657,4,50,-1
1,240,20929,-2398,-16215,-1733,6,29,-2
1,241,20934,-2459,-16196,-1778,3,13,-4
1,242,20939,-2481,-16126,-1828,-1,-5,-5
1,243,20944,-2422,-16073,-1969,1,-6,-5
1,244,20949,-2310,-16082,-2115,5,11,-4
1,245,20954,-2222,-16082,-2030,4,33,-4
1,246,20959,-2171,-16110,-1908,2,41,-6
1,247,20964,-2185,-16122,-1714,1,33,-6
1,248,20969,-2246,-16137,-1702,2,13,-6
1,249,20974,-2257,-16073,-1785,1,-11,-7
1,250,20979,-2235,-16086,-1935,0,-25,-7
1,251,20984,-2245,-16169,-1949,0,-36,-2
1,252,20989,-2258,-16212,-1895,-4,-41,-6
1,253,20994,-2226,-16202,-1878,-2,-43,-5
1,254,20999,-2218,-16153,-2012,-2,-33,-4
1,255,21004,-2186,-16145,-2135,-1,-9,-1
1,256,21009,-2224,-16176,-2035,1,16,-2
1,257,21014,-2326,-16228,-1855,0,26,-3
1,258,21019,-2317,-16271,-1782,0,23,-4
1,259,21024,-2291,-16282,-1859,-1,16,-6
1,260,21029,-2310,-16274,-1893,-1,15,-6
1,261,21034,-2386,-16217,-1957,0,20,-5
1,262,21039,-2376,-16179,-2045,-1,24,-5
1,263,21044,-2343,-16156,-2073,-2,27,-6
1,264,21049,-2307,-16127,-1986,0,42,-7
1,265,21054,-2289,-16083,-1847,2,59,-7
1,266,21059,-2246,-16120,-1719,-2,53,-6
1,267,21064,-2293,-16123,-1707,-3,36,-9
1,268,21069,-2292,-16154,-1693,-5,14,-8
1,269,21074,-2289,-16170,-1737,-4,-10,-9
1,270,21079,-2265,-16146,-1826,-5,-28,-10
1,271,21084,-2246,-16179,-1920,-4,-35,-7
1,272,21089,-2303,-16200,-2029,-4,-38,-8
1,273,21094,-2329,-16195,-2059,-6,-37,-9
1,274,21099,-2290,-16186,-2051,-7,-34,-10
1,275,21104,-2254,-16192,-2091,-6,-24,-10
1,276,21109,-2271,-16228,-2126,-7,-7,-10
1,277,21114,-2313,-16216,-2105,-3,8,-11
1,278,21119,-2310,-16240,-2031,-3,22,-11
1,279,21124,-2233,-16250,-2101,-3,38,-12
1,280,21129,-2231,-16254,-2021,-2,56,-9
1,281,21134,-2230,-16236,-1897,-4,71,-10
1,282,21139,-2230,-16225,-1830,-2,73,-9
1,283,21144,-2249,-16165,-1818,-3,69,-10
1,284,21149,-2257,-16147,-1843,-5,57,-10
1,285,21154,-2267,-16098,-1765,-3,45,-9
1,286,21159,-2275,-16113,-1789,-5,31,-8
1,287,21164,-2245,-16129,-1823,-7,19,-11
1,288,21169,-2205,-16115,-1799,-9,8,-12
1,289,21174,-2209,-16057,-1803,-6,-3,-9
1,290,21179,-2245,-16045,-1865,-6,-18,-7
1,291,21184,-2305,-16055,-1863,-10,-32,-8
1,292,21189,-2322,-16109,-1875,-11,-45,-9
1,293,21194,-2317,-16162,-1909,-12,-54,-10
1,294,21199,-2317,-16128,-1985,-12,-52,-10
1,295,21204,-2362,-16069,-2085,-10,-50,-10
1,296,21209,-2374,-16062,-2163,-9,-44,-9
1,297,21214,-2361,-16067,-2179,-9,-34,-11
1,298,21219,-2319,-16064,-2176,-6,-19,-11
1,299,21224,-2301,-16078,-2068,-10,0,-11
1,300,21229,-2283,-16148,-2054,-6,14,-11
1,301,21234,-2286,-16155,-2055,-6,25,-10
1,302,21239,-2260,-16156,-1962,-4,33,-12
1,303,21244,-2276,-16163,-1877,-6,35,-12
1,304,21249,-2292,-16193,-1827,-5,34,-13
1,305,21254,-2283,-16206,-1839,-8,23,-16
1,306,21259,-2267,-16207,-1902,-4,22,-14
1,307,21264,-2212,-16154,-1952,-7,24,-11
1,308,21269,-2219,-16155,-1948,-9,27,-12
1,309,21274,-2196,-16147,-1858,-8,27,-15
1,310,21279,-2190,-16142,-1835,-8,19,-11
1,311,21284,-2137,-16135,-1758,-9,12,-11
1,312,21289,-2116,-16114,-1727,-9,3,-11
1,313,21294,-2156,-16142,-1710,-8,-10,-11
1,314,21299,-2156,-16114,-1780,-12,-29,-8
1,315,21304,-2198,-16086,-1821,-13,-45,-8
1,316,21309,-2180,-16161,-1801,-13,-63,-10
1,317,21314,-2177,-16177,-1885,-15,-72,-7
1,318,21319,-2168,-16145,-2000,-12,-71,-5
1,319,21324,-2180,-16132,-2157,-10,-61,-7
1,320,21329,-2278,-16121,-2209,-11,-41,-4
1,321,21334,-2339,-16176,-2107,-12,-25,-5
1,322,21339,-2302,-16193,-2076,-12,-16,-5
1,323,21344,-2272,-16208,-2064,-10,-7,-6
1,324,21349,-2288,-16195,-2036,-7,3,-7
1,325,21354,-2388,-16207,-2093,-6,9,-9
1,326,21359,-2368,-16167,-2135,-7,14,-7
1,327,21364,-2278,-16136,-2077,-7,25,-5
1,328,21369,-2240,-16111,-2046,-4,33,-5
1,329,21374,-2262,-16160,-1933,-2,36,-6
1,330,21379,-2368,-16161,-1939,-3,32,-9
1,331,21384,-2373,-16144,-1942,-6,22,-9
1,332,21389,-2296,-16109,-1904,-5,19,-7
1,333,21394,-2229,-16137,-1830,-2,15,-7
1,334,21399,-2232,-16144,-1802,-4,10,-7
1,335,21404,-2225,-16141,-1806,-4,-1,-9
1,336,21409,-2273,-16134,-1876,-3,-17,-11
1,337,21414,-2260,-16102,-1917,-3,-35,-5
1,338,21419,-2278,-16138,-1920,-5,-42,-7
1,339,21424,-2150,-16202,-2002,-4,-30,-3
1,340,21429,-2116,-16252,-2070,-4,-16,-4
1,341,21434,-2144,-16246,-2000,1,-7,-5
1,342,21439,-2193,-16242,-1929,-2,-5,-6
1,343,21444,-2227,-16215,-1940,-4,-3,-4
1,344,21449,-2193,-16214,-1983,-2,10,-3
1,345,21454,-2166,-16189,-1964,-2,27,-1
1,346,21459,-2237,-16190,-1946,1,35,-2
1,347,21464,-2267,-16200,-1940,0,33,-1
1,348,21469,-2274,-16184,-1938,-2,24,1
1,349,21474,-2206,-16205,-1902,-3,23,-2
1,350,21479,-2238,-16203,-1838,-1,17,-2
1,351,21484,-2259,-16171,-1831,-1,10,0
1,352,21489,-2251,-16128,-1901,2,8,-2
1,353,21494,-2220,-16163,-1961,-1,1,-1
1,354,21499,-2202,-16144,-1944,0,-9,-2
1,355,21504,-2219,-16120,-1848,2,-18,-2
1,356,21509,-2239,-16117,-1838,-4,-31,1
1,357,21514,-2314,-16127,-1946,-1,-43,-2
1,358,21519,-2306,-16141,-2073,-1,-44,-2
1,359,21524,-2257,-16110,-2018,0,-39,-3
1,360,21529,-2259,-16128,-1876,0,-38,-4
1,361,21534,-2253,-16162,-1872,-1,-42,-2
1,362,21539,-2282,-16169,-1985,0,-42,-3
1,363,21544,-2295,-16223,-2023,1,-38,-2
1,364,21549,-2393,-16213,-1924,1,-35,-1
1,365,21554,-2368,-16180,-1946,1,-32,-2
1,366,21559,-2280,-16194,-2039,0,-19,-3
1,367,21564,-2242,-16189,-2120,1,-3,2
1,368,21569,-2292,-16205,-2038,4,15,0
1,369,21574,-2360,-16234,-1927,5,21,-2
1,370,21579,-2408,-16169,-1903,1,16,-4
1,371,21584,-2377,-16111,-1902,0,15,-4
1,372,21589,-2341,-16057,-1952,4,20,-2
1,373,21594,-2277,-16044,-1938,4,23,-1
1,374,21599,-2326,-16043,-1900,5,14,-3
1,375,21604,-2342,-16001,-1822,6,-9,-3
1,376,21609,-2306,-15942,-1805,0,-26,-4
1,377,21614,-2351,-15954,-1927,2,-39,-2
1,378,21619,-2369,-15957,-2021,3,-43,-1
1,379,21624,-2292,-15981,-2065,2,-39,-2
1,380,21629,-2284,-15987,-2063,1,-31,0
1,381,21634,-2268,-15941,-2014,2,-27,0
1,382,21639,-2325,-15928,-2053,3,-23,-3
1,383,21644,-2415,-15863,-2040,5,-16,-2
1,384,21649,-2500,-15852,-1950,4,-12,1
1,385,21654,-2519,-15823,-1938,3,-17,1
1,386,21659,-2481,-15851,-2023,0,-26,6
1,387,21664,-2430,-15806,-2031,0,-34,5
1,388,21669,-2386,-15750,-2070,2,-36,2
1,389,21674,-2316,-15797,-2169,5,-33,5
1,390,21679,-2237,-15846,-2214,6,-26,12
1,391,21684,-2338,-15845,-2059,8,-17,12
1,392,21689,-2503,-15869,-1938,5,-17,12
1,393,21694,-2657,-15843,-2021,4,-28,12
1,394,21699,-2713,-15874,-2164,5,-27,16
1,395,21704,-2737,-15959,-2260,7,-13,21
1,396,21709,-2715,-15965,-2127,9,4,24
1,397,21714,-2843,-16053,-2040,7,11,27
1,398,21719,-3002,-16057,-1947,9,0,26
1,399,21724,-3091,-15995,-2116,10,-18,32
1,400,21729,-3248,-16043,-2198,8,-30,35
1,401,21734,-3407,-16109,-2195,8,-37,37
1,402,21739,-3290,-16167,-2202,5,-39,38
1,403,21744,-3213,-16118,-2598,5,-31,40
1,404,21749,-3173,-16196,-2868,11,9,47
1,405,21754,-3131,-16111,-2771,13,59,52
1,406,21759,-2827,-15970,-2676,16,112,60
1,407,21764,-2467,-15873,-2548,22,182,72
1,408,21769,-2487,-15961,-2275,27,247,81
1,409,21774,-2768,-16025,-1695,25,255,84
1,410,21779,-3230,-15907,-1294,19,208,87
1,411,21784,-3400,-15828,-1536,14,137,95
1,412,21789,-2826,-15912,-2264,13,98,128
1,413,21794,-2867,-15880,-2052,15,122,137
1,414,21799,-3118,-16107,-2304,15,129,145
1,415,21804,-3332,-16079,-2842,18,135,154
1,416,21809,-3143,-16109,-3088,22,177,165
1,417,21814,-3121,-16131,-2878,25,246,181
1,418,21819,-3128,-16221,-2369,25,312,196
1,419,21824,-3184,-16197,-2087,24,350,204
1,420,21829,-3205,-16217,-1982,28,369,217
1,421,21834,-3248,-16045,-1827,27,376,230
1,422,21839,-3327,-16069,-1528,23,366,244
1,423,21844,-3207,-16125,-1359,18,329,260
1,424,21849,-3121,-16087,-1020,8,281,276
1,425,21854,-3266,-15980,-1173,7,231,287
1,426,21859,-3091,-15979,-1563,3,190,302
1,427,21864,-3076,-15815,-1705,0,172,315
1,428,21869,-2974,-15870,-1759,-2,167,330
1,429,21874,-2976,-15932,-1764,-2,165,348
1,430,21879,-2894,-16052,-1784,-1,164,364
1,431,21884,-2827,-16028,-1855,-6,163,379
1,432,21889,-2791,-15984,-1546,-10,174,396
1,433,21894,-2952,-15892,-1466,-11,178,414
1,434,21899,-3085,-15919,-1745,-8,171,430
1,435,21904,-3191,-15903,-2044,-12,164,448
1,436,21909,-3117,-15925,-2181,-15,168,469
1,437,21914,-3077,-15875,-2018,-17,180,486
1,438,21919,-3093,-15894,-1884,-15,198,503
1,439,21924,-3179,-15932,-1869,-15,222,520
1,440,21929,-3207,-15955,-1941,-15,247,537
1,441,21934,-3256,-15910,-1777,-15,260,551
1,442,21939,-3414,-15897,-1465,-17,251,564
1,443,21944,-3570,-15880,-1416,-18,221,579
1,444,21949,-3608,-15821,-1822,-17,188,590
1,445,21954,-3585,-15717,-2285,-16,184,603
1,446,21959,-3446,-15656,-2409,-15,206,622
1,447,21964,-3429,-15798,-2171,-14,240,639
1,448,21969,-3537,-15861,-2125,-10,265,646
1,449,21974,-3616,-15869,-2157,-9,283,659
1,450,21979,-3792,-15749,-2219,-6,303,668
1,451,21984,-3877,-15740,-2222,-4,328,682
1,452,21989,-3871,-15880,-2165,-4,356,696
1,453,21994,-3782,-16013,-2035,-5,367,710
1,454,21999,-3821,-16035,-1657,-4,362,715
1,455,22004,-4023,-15903,-1372,-8,323,719
1,456,22009,-4253,-15800,-1424,-10,271,723
1,457,22014,-4443,-15715,-1969,-7,234,734
1,458,22019,-4520,-15740,-2589,-2,222,742
1,459,22024,-4347,-15839,-2774,-2,236,750
1,460,22029,-4202,-15915,-2683,2,270,756
1,461,22034,-4234,-15834,-2612,3,317,756
1,462,22039,-4405,-15690,-2610,9,383,758
1,463,22044,-4552,-15630,-2461,19,446,764
1,464,22049,-4462,-15695,-1844,20,487,772
1,465,22054,-4264,-15819,-967,14,468,772
1,466,22059,-4308,-15837,-521,10,378,765
1,467,22064,-4592,-15819,-774,9,241,754
1,468,22069,-4802,-15775,-1460,5,121,751
1,469,22074,-4829,-15765,-2016,0,54,759
1,470,22079,-4704,-15884,-2262,0,37,760
1,471,22084,-4617,-15981,-2352,3,46,756
1,472,22089,-4686,-15983,-2599,10,64,751
1,473,22094,-4919,-15882,-2971,15,92,739
1,474,22099,-5061,-15769,-3343,23,135,730
1,475,22104,-4986,-15768,-3319,28,198,728
1,476,22109,-4767,-15704,-2937,34,262,720
1,477,22114,-4721,-15669,-2292,41,308,711
1,478,22119,-4827,-15689,-1845,42,310,698
1,479,22124,-4922,-15519,-1811,44,263,681
1,480,22129,-4871,-15490,-1964,46,191,671
1,481,22134,-4899,-15284,-1890,42,127,660
1,482,22139,-4891,-15227,-1873,37,76,648
1,483,22144,-4781,-15199,-2108,44,41,636
1,484,22149,-4505,-15262,-2515,51,32,625
1,485,22154,-4260,-15345,-2784,55,46,609
1,486,22159,-4375,-15452,-2346,63,97,576
1,487,22164,-4530,-15463,-2217,65,116,557
1,488,22169,-4569,-15435,-2182,65,135,543
1,489,22174,-4634,-15440,-2004,69,153,530
1,490,22179,-4646,-15501,-1779,68,160,514
1,491,22184,-4599,-15583,-1546,67,149,495
1,492,22189,-4541,-15636,-1415,63,125,472
1,493,22194,-4578,-15637,-1558,62,90,451
1,494,22199,-4681,-15626,-1663,63,56,432
1,495,22204,-4867,-15589,-1757,59,21,413
1,496,22209,-4944,-15567,-1836,55,-7,393
1,497,22214,-4824,-15556,-1912,54,-21,371
1,498,22219,-4718,-15547,-2047,57,-22,350
1,499,22224,-4787,-15579,-2201,62,-13,326
1,500,22229,-4991,-15605,-2282,62,-10,299
1,501,22234,-5108,-15567,-2374,60,-8,276
1,502,22239,-5086,-15553,-2396,60,11,252
1,503,22244,-5070,-15497,-2386,60,51,229
1,504,22249,-5027,-15487,-2346,64,90,206
1,505,22254,-5110,-15564,-2319,68,115,183
1,506,22259,-5151,-15601,-2200,69,124,153
1,507,22264,-5092,-15574,-2043,67,123,128
1,508,22269,-5005,-15472,-1958,63,125,104
1,509,22274,-4856,-15470,-2088,66,137,81
1,510,22279,-4724,-15502,-2114,67,148,56
1,511,22284,-4659,-15536,-1943,69,139,29
1,512,22289,-4682,-15492,-1761,68,109,-1
1,513,22294,-4781,-15487,-1810,67,71,-29
1,514,22299,-4873,-15507,-1990,68,40,-51
1,515,22304,-4835,-15489,-2117,68,24,-77
1,516,22309,-4640,-15471,-2073,66,15,-101
1,517,22314,-4452,-15451,-2029,66,4,-122
1,518,22319,-4423,-15456,-2073,65,-8,-148
1,519,22324,-4443,-15466,-2239,63,-14,-174
1,520,22329,-4484,-15447,-2312,66,-16,-201
1,521,22334,-4429,-15473,-2322,66,-16,-222
1,522,22339,-4415,-15480,-2299,64,-10,-244
1,523,22344,-4424,-15512,-2310,66,3,-267
1,524,22349,-4431,-15557,-2404,66,25,-291
1,525,22354,-4478,-15587,-2370,68,48,-315
1,526,22359,-4493,-15576,-2235,71,61,-339
1,527,22364,-4480,-15545,-2093,70,62,-364
1,528,22369,-4547,-15528,-2115,68,57,-390
1,529,22374,-4494,-15478,-2155,69,43,-414
1,530,22379,-4471,-15430,-2179,74,33,-436
1,531,22384,-4456,-15441,-2034,71,13,-459
1,532,22389,-4404,-15459,-1863,69,-17,-484
1,533,22394,-4292,-15497,-1782,67,-47,-507
1,534,22399,-4257,-15568,-1792,69,-73,-531
1,535,22404,-4349,-15668,-1801,69,-97,-553
1,536,22409,-4396,-15820,-1739,65,-137,-577
1,537,22414,-4402,-15868,-1729,63,-183,-598
1,538,22419,-4343,-15908,-1864,62,-219,-622
1,539,22424,-4340,-15934,-2040,59,-233,-642
1,540,22429,-4317,-15879,-2111,59,-235,-663
1,541,22434,-4335,-15896,-2122,58,-225,-685
1,542,22439,-4309,-15920,-2024,57,-220,-705
1,543,22444,-4278,-15927,-2003,58,-221,-726
1,544,22449,-4285,-15959,-1971,60,-221,-743
1,545,22454,-4297,-16037,-1982,61,-227,-763
1,546,22459,-4338,-16111,-1946,60,-234,-784
1,547,22464,-4281,-16187,-2000,60,-234,-802
1,548,22469,-4290,-16283,-2085,64,-225,-820
1,549,22474,-4262,-16301,-2142,63,-215,-840
1,550,22479,-4201,-16297,-2143,65,-200,-858
1,551,22484,-4090,-16365,-2021,66,-178,-871
1,552,22489,-3996,-16436,-1687,69,-157,-891
1,553,22494,-3952,-16504,-1353,69,-152,-909
1,554,22499,-3936,-16583,-1231,69,-169,-924
1,555,22504,-3941,-16623,-1155,67,-206,-941
1,556,22509,-4033,-16464,-1083,63,-258,-956
1,557,22514,-4079,-16460,-1202,57,-308,-968
1,558,22519,-3777,-16430,-1442,54,-340,-977
1,559,22524,-3150,-16496,-1704,59,-322,-995
1,560,22529,-3298,-16476,-1595,59,-316,-1007
1,561,22534,-3475,-16430,-1725,60,-332,-1017
1,562,22539,-3504,-16406,-1916,61,-336,-1023
1,563,22544,-3366,-16430,-1924,63,-315,-1028
1,564,22549,-3235,-16466,-1749,65,-286,-1033
1,565,22554,-3105,-16528,-1559,65,-264,-1039
1,566,22559,-3048,-16480,-1450,65,-256,-1045
1,567,22564,-3048,-16493,-1442,69,-260,-1052
1,568,22569,-3065,-16479,-1382,69,-261,-1054
1,569,22574,-2956,-16415,-1159,69,-273,-1055
1,570,22579,-2812,-16463,-1000,70,-289,-1057
1,571,22584,-2714,-16454,-1018,68,-311,-1059
1,572,22589,-2656,-16473,-909,70,-343,-1061
1,573,22594,-2610,-16450,-802,68,-388,-1061
1,574,22599,-2511,-16452,-744,66,-434,-1065
1,575,22604,-2423,-16447,-763,63,-478,-1064
1,576,22609,-2265,-16480,-872,64,-507,-1062
1,577,22614,-2245,-16457,-933,63,-524,-1058
1,578,22619,-2147,-16491,-864,62,-548,-1052
1,579,22624,-2069,-16472,-882,56,-574,-1050
1,580,22629,-1938,-16506,-917,56,-596,-1048
1,581,22634,-1936,-16421,-1045,60,-605,-1044
1,582,22639,-1843,-16471,-1119,58,-602,-1033
1,583,22644,-1870,-16519,-1082,55,-593,-1028
1,584,22649,-1758,-16565,-1028,56,-583,-1020
1,585,22654,-1762,-16605,-999,57,-574,-1014
1,586,22659,-1816,-16562,-957,60,-567,-1011
1,587,22664,-2021,-16521,-1079,64,-563,-1004
1,588,22669,-2056,-16485,-1458,66,-551,-999
1,589,22674,-1901,-16479,-1625,71,-518,-991
1,590,22679,-1689,-16636,-1637,74,-468,-981
1,591,22684,-1533,-16798,-1444,81,-416,-974
1,592,22689,-1557,-16822,-1363,86,-375,-972
1,593,22694,-1662,-16767,-1364,92,-345,-973
1,594,22699,-1734,-16648,-1493,99,-319,-965
1,595,22704,-1755,-16621,-1432,103,-286,-957
1,596,22709,-1683,-16725,-1122,109,-255,-950
1,597,22714,-1576,-16752,-727,110,-239,-944
1,598,22719,-1472,-16775,-568,115,-254,-941
1,599,22724,4098,-15518,55,116,-277,-940
1,600,22729,1828,-22523,20220,-22,-502,-973
1,601,22751,11950,-23619,-17399,-599,842,-39
1,602,22752,11950,-23619,-17399,-599,842,-39
1,603,22753,11950,-23619,-17399,-599,842,-39
1,604,22753,11950,-23619,-17399,-599,842,-39
1,605,22754,11950,-23619,-17399,-599,842,-39
1,606,22759,-28277,-17412,-7553,-257,2976,-44
1,607,22764,-26354,-10995,-24317,113,3090,313
1,608,22769,-4984,-11212,-26758,222,4266,632
1,609,22774,11477,-16980,-6824,0,5714,562
1,610,22779,4290,-18847,18294,-69,6334,225
1,611,22784,-13417,-18040,30734,59,5413,29
1,612,22789,-14188,-14321,15004,108,2753,21
1,613,22794,-951,-13702,-5790,1,801,157
1,614,22799,6848,-15217,-7073,-196,473,182
1,615,22804,898,-17189,11414,-320,722,126
1,616,22809,-6783,-17316,20495,-253,144,82
1,617,22814,-5065,-16297,6069,-146,-1073,86
1,618,22819,359,-15678,-10803,-98,-1628,98
1,619,22824,1621,-16149,-12338,-214,-1362,79
1,620,22829,-1408,-16020,-1910,-299,-896,54
1,621,22834,-2526,-16681,4107,-275,-714,84
1,622,22839,58,-16346,-3182,-162,-611,71
1,623,22844,1349,-16395,-11416,-61,-127,72
1,624,22849,-744,-16628,-10594,-90,451,63
1,625,22854,-3324,-16054,-2173,-144,731,56
1,626,22859,-2213,-16107,2715,-164,646,78
1,627,22864,551,-16261,875,-79,606,71
1,628,22869,910,-16742,-3099,-21,741,48
1,629,22874,-1426,-16742,-3157,-7,836,20
1,630,22879,-3303,-16477,1156,-65,634,18
1,631,22884,-1727,-16168,2518,-113,205,7
1,632,22889,671,-16321,-1815,-45,127,-21
1,633,22894,-881,-16384,-2470,-21,282,-36
1,634,22899,-1536,-16430,-966,-39,230,-36
1,635,22904,-406,-16226,-264,-73,24,-56
1,636,22909,716,-16188,-480,-75,-70,-71
1,637,22914,295,-16425,-937,-46,15,-71
1,638,22919,-958,-16520,-1209,-21,121,-63
1,639,22924,-1224,-16580,-1352,-21,99,-53
1,640,22929,-306,-16435,-1474,-38,-6,-60
1,641,22934,405,-16611,-944,-48,-53,-72
1,642,22939,85,-16619,-518,-34,-25,-85
1,643,22944,-731,-16607,-945,-8,14,-90
1,644,22949,-1005,-16357,-1996,4,28,-93
1,645,22954,-644,-16237,-2566,3,36,-92
1,646,22959,-289,-16273,-2039,-5,61,-91
1,647,22964,-269,-16307,-1212,-2,94,-99
1,648,22969,-511,-16259,-1360,20,116,-103
1,649,22974,-747,-16165,-2173,40,140,-107
1,650,22979,-870,-16056,-2624,46,169,-107
1,651,22984,-809,-16014,-1942,41,202,-107
1,652,22989,-606,-16118,-1069,40,211,-108
1,653,22994,-350,-16215,-782,55,206,-113
1,654,22999,-272,-16178,-1096,68,194,-121
1,655,23004,-483,-16075,-1251,75,165,-127
1,656,23009,-649,-15950,-985,72,109,-136
1,657,23014,-438,-15882,-642,62,41,-135
1,658,23019,299,-15548,476,61,-21,-131
1,659,23024,-1382,-15718,4484,52,-176,-135
1,660,23029,-4062,-15788,6569,15,-707,-134
1,661,23034,-3146,-15706,2071,-25,-1426,-111
1,662,23039,542,-15785,-6002,-41,-1733,-74
1,663,23044,2156,-16139,-10050,-29,-1337,-27
1,664,23049,-60,-16521,-7643,-5,-610,9
1,665,23054,-2657,-16444,-4104,18,-116,30
1,666,23059,-3036,-15929,-3247,32,53,31
1,667,23064,-2135,-15579,-4168,42,138,39
1,668,23069,-1513,-15691,-3995,48,305,58
1,669,23074,-1279,-15914,-2953,48,484,79
1,670,23079,-1008,-16223,-2655,53,605,95
1,671,23084,-784,-16234,-2939,71,676,95
1,672,23089,-1042,-16277,-2431,79,730,95
1,673,23094,-1475,-16190,-1168,81,727,92
1,674,23099,-1375,-16231,59,79,649,93
1,675,23104,-829,-16283,317,77,533,90
1,676,23109,-571,-16291,330,75,410,87
1,677,23114,-722,-16323,436,68,251,83
1,678,23119,-879,-16279,517,53,44,78
1,679,23124,-678,-16224,185,37,-157,76
1,680,23129,-396,-16182,-347,31,-292,80
1,681,23134,-395,-16335,-739,30,-351,88
1,682,23139,-751,-16328,-957,33,-396,93
1,683,23144,-897,-16439,-1360,27,-457,103
1,684,23149,-826,-16465,-1994,23,-498,111
1,685,23154,-735,-16505,-2352,23,-477,113
1,686,23159,-812,-16515,-2502,29,-394,118
1,687,23164,-1048,-16424,-2620,37,-295,123
1,688,23169,-1117,-16413,-2869,47,-200,130
1,689,23174,-1041,-16409,-2914,54,-106,132
1,690,23179,-1118,-16446,-2565,55,-18,135
1,691,23184,-1259,-16542,-2117,57,49,137
1,692,23189,-1456,-16539,-1955,66,83,133
1,693,23194,-1558,-16487,-2053,70,102,129
1,694,23199,-1521,-16444,-1966,68,116,128
1,695,23204,-1425,-16351,-1667,71,126,130
1,696,23209,-1255,-16284,-1415,71,129,129
1,697,23214,-992,-16297,-1351,70,123,123
1,698,23219,-884,-16275,-1215,72,102,125
1,699,23224,-1010,-16253,-1024,69,55,122
1,700,23229,-1085,-16207,-801,64,-15,119
1,701,23234,-992,-16148,-836,58,-97,125
1,702,23239,-907,-16197,-985,55,-167,129
1,703,23244,-930,-16229,-1117,50,-229,132
1,704,23249,-1034,-16278,-1181,47,-287,139
1,705,23254,-1047,-16259,-1468,43,-339,140
1,706,23259,-1162,-16304,-2097,42,-353,147
1,707,23264,-1352,-16337,-2277,42,-323,150
1,708,23269,-1459,-16346,-2451,44,-284,153
1,709,23274,-1348,-16267,-2679,48,-227,156
1,710,23279,-1342,-16258,-2817,53,-157,157
1,711,23284,-1418,-16244,-2714,58,-78,156
1,712,23289,-1527,-16268,-2513,61,-10,157
1,713,23294,-1577,-16288,-2349,64,46,157
1,714,23299,-1586,-16256,-2118,68,91,156
1,715,23304,-1611,-16260,-1837,70,118,152
1,716,23309,-1647,-16267,-1647,68,123,148
1,717,23314,-1664,-16293,-1529,68,110,145
1,718,23319,-1573,-16271,-1491,71,92,143
1,719,23324,-1479,-16271,-1525,66,75,141
1,720,23329,-1429,-16228,-1437,63,54,140
1,721,23334,-1446,-16171,-1399,59,28,140
1,722,23339,-1414,-16141,-1434,56,4,139
1,723,23344,-1390,-16159,-1470,55,-20,143
1,724,23349,-1383,-16186,-1439,52,-38,144
1,725,23354,-1374,-16180,-1445,46,-57,145
1,726,23359,-1394,-16205,-1592,46,-75,144
1,727,23364,-1415,-16256,-1723,47,-85,145
1,728,23369,-1502,-16291,-1813,43,-85,146
1,729,23374,-1603,-16318,-1841,43,-80,148
1,730,23379,-1623,-16294,-1896,42,-65,150
1,731,23384,-1547,-16270,-2153,39,-36,146
1,732,23389,-1481,-16277,-2232,43,5,144
1,733,23394,-1469,-16274,-2139,47,51,146
1,734,23399,-1531,-16224,-1869,45,84,140
1,735,23404,-1608,-16176,-1634,45,101,137
1,736,23409,-1626,-16128,-1667,43,112,137
1,737,23414,-1605,-16197,-1719,45,122,137
1,738,23419,-1517,-16300,-1657,43,121,136
1,739,23424,-1496,-16340,-1457,39,104,133
1,740,23429,-1466,-16247,-1420,36,80,131
1,741,23434,-1457,-16183,-1588,32,63,128
1,742,23439,-1546,-16198,-1724,35,64,126
1,743,23444,-1607,-16270,-1605,32,71,127
1,744,23449,-1640,-16307,-1377,28,68,128
1,745,23454,-1566,-16404,-1236,23,50,126
1,746,23459,-1471,-16473,-1197,20,31,124
1,747,23464,-1445,-16443,-1264,18,9,123
1,748,23469,-1562,-16352,-1382,15,-14,121
1,749,23474,-1647,-16284,-1521,10,-38,120
1,750,23479,-1560,-16259,-1676,8,-50,119
1,751,23484,-1546,-16220,-1750,6,-49,122
1,752,23489,-1598,-16242,-1762,6,-38,123
1,753,23494,-1638,-16297,-1701,6,-34,119
1,754,23499,-1737,-16390,-1740,6,-33,117
1,755,23504,-1868,-16537,-1715,0,-29,113
1,756,23509,-1903,-16581,-1586,0,-21,110
1,757,23514,-1898,-16541,-1574,-4,-2,104
1,758,23519,-1777,-16420,-1773,-2,18,106
1,759,23524,-1621,-16376,-1987,-1,41,104
1,760,23529,-1592,-16377,-1905,-5,68,101
1,761,23534,-1650,-16331,-1626,-4,74,99
1,762,23539,-1710,-16288,-1589,-5,67,97
1,763,23544,-1705,-16173,-1774,-5,61,96
1,764,23549,-1713,-16081,-1956,-6,68,97
1,765,23554,-1739,-16111,-1891,-6,75,98
1,766,23559,-1778,-16130,-1779,-6,75,95
1,767,23564,-1704,-16132,-1751,-7,62,94
1,768,23569,-1691,-16146,-1858,-7,63,88
1,769,23574,-1805,-16117,-1947,0,72,87
1,770,23579,-1837,-16098,-1948,-3,80,89
1,771,23584,-1795,-16116,-1798,-3,87,88
1,772,23589,-1595,-16064,-1625,-4,88,87
1,773,23594,-1620,-16083,-1255,-2,79,86
1,774,23599,-1873,-16264,-1001,-5,53,81
1,775,23604,-2077,-16443,-960,-7,6,75
1,776,23609,-2035,-16505,-1075,-11,-38,76
1,777,23614,-1842,-16490,-1164,-13,-61,77
1,778,23619,-1722,-16493,-1178,-14,-73,73
1,779,23624,-1804,-16418,-1366,-17,-92,67
1,780,23629,-1822,-16426,-1551,-17,-83,68
1,781,23634,-1829,-16490,-1530,-17,-58,69
1,782,23639,-1840,-16520,-1397,-18,-38,71
1,783,23644,-1843,-16467,-1467,-17,-27,70
1,784,23649,-1838,-16408,-1560,-16,-22,65
1,785,23654,-1817,-16353,-1623,-15,-7,64
1,786,23659,-1783,-16330,-1540,-14,10,64
1,787,23664,-1776,-16329,-1403,-15,18,63
1,788,23669,-1757,-16368,-1329,-15,20,66
1,789,23674,-1766,-16375,-1259,-13,12,66
1,790,23679,-1871,-16346,-1208,-12,-4,63
1,791,23684,-1941,-16290,-1172,-12,-29,61
1,792,23689,-1871,-16267,-1172,-16,-53,60
1,793,23694,-1765,-16253,-1183,-14,-76,59
1,794,23699,-1716,-16269,-1069,-17,-95,58
1,795,23704,-1878,-16338,-954,-20,-122,56
1,796,23709,-1894,-16339,-919,-22,-164,55
1,797,23714,-1893,-16345,-1003,-22,-205,54
1,798,23719,-1909,-16365,-1146,-21,-230,53
1,799,23724,-2030,-16428,-1315,-25,-240,51
1,800,23729,-2137,-16398,-1521,-27,-242,52
1,801,23734,-2124,-16281,-1777,-21,-228,55
1,802,23739,-2048,-16258,-2051,-20,-191,54
1,803,23744,-2038,-16254,-2214,-14,-137,54
1,804,23749,-2010,-16299,-2266,-9,-74,55
1,805,23754,-2030,-16269,-2252,-5,-14,53
1,806,23759,-2078,-16285,-2132,1,43,53
1,807,23764,-2106,-16318,-1935,4,96,51
1,808,23769,-2112,-16254,-1727,5,137,49
1,809,23774,-2067,-16227,-1560,9,165,46
1,810,23779,-1996,-16174,-1406,12,182,47
1,811,23784,-1949,-16141,-1139,11,184,44
1,812,23789,-1917,-16130,-1080,15,159,42
1,813,23794,-1895,-16173,-1014,14,120,43
1,814,23799,-1875,-16164,-1045,11,77,42
1,815,23804,-1825,-16170,-913,9,45,40
1,816,23809,-1781,-16187,-913,6,18,43
1,817,23814,-1736,-16232,-978,8,-16,42
1,818,23819,-1781,-16242,-903,7,-51,39
1,819,23824,-1839,-16172,-980,0,-91,39
1,820,23829,-1832,-16074,-1130,-1,-125,40
1,821,23834,-1851,-16126,-1293,2,-152,43
1,822,23839,-1871,-16194,-1401,3,-156,46
1,823,23844,-1988,-16317,-1436,0,-146,48
1,824,23849,-2086,-16392,-1399,-2,-136,46
1,825,23854,-2011,-16395,-1572,0,-124,42
1,826,23859,-1914,-16311,-1767,6,-103,43
1,827,23864,-1815,-16181,-1847,8,-66,44
1,828,23869,-1877,-16107,-1831,9,-30,43
1,829,23874,-1998,-16065,-1841,12,-5,45
1,830,23879,-1991,-16072,-1860,14,24,44
1,831,23884,-2054,-16120,-1820,21,51,44
1,832,23889,-2171,-16187,-1618,22,70,42
1,833,23894,-2232,-16277,-1480,25,78,40
1,834,23899,-2286,-16279,-1356,26,76,34
1,835,23904,-2211,-16232,-1289,22,73,33
1,836,23909,-2126,-16206,-1336,21,81,31
1,837,23914,-1983,-16227,-1444,23,85,36
1,838,23919,-1794,-16253,-1400,23,84,38
1,839,23924,-1781,-16196,-1203,21,75,33
1,840,23929,-1902,-16084,-1178,17,51,32
1,841,23934,-1970,-16045,-1415,16,30,32
1,842,23939,-1996,-16004,-1582,18,20,35
1,843,23944,-2029,-16018,-1577,19,21,43
1,844,23949,-2086,-16054,-1449,18,19,42
1,845,23954,-2130,-16111,-1534,18,7,39
1,846,23959,-2233,-16122,-1670,20,-14,34
1,847,23964,-2284,-16138,-1750,25,-24,34
1,848,23969,-2287,-16167,-1737,26,-15,34
1,849,23974,-2296,-16175,-1613,26,-1,32
1,850,23979,-2326,-16236,-1387,27,5,32
1,851,23984,-2425,-16382,-1375,27,-1,25
1,852,23989,-2411,-16394,-1419,26,-17,21
1,853,23994,-2404,-16363,-1330,27,-37,19
1,854,23999,-2503,-16382,-1347,27,-42,21
1,855,24004,-2518,-16494,-1448,25,-38,17
1,856,24009,-2451,-16615,-1524,26,-27,18
1,857,24014,-2411,-16633,-1555,26,-10,15
1,858,24019,-2342,-16627,-1619,25,12,10
1,859,24024,-2338,-16506,-1738,29,37,9
1,860,24029,-2309,-16386,-1765,31,68,7
1,861,24034,-2268,-16311,-1702,30,95,10
1,862,24039,-2210,-16269,-1552,30,116,10
1,863,24044,-2152,-16331,-1397,30,125,12
1,864,24049,-2134,-16346,-1247,30,122,7
1,865,24054,-2144,-16379,-1139,30,104,6
1,866,24059,-2155,-16327,-1077,30,71,3
1,867,24064,-2152,-16306,-1091,27,40,2
1,868,24069,-2140,-16296,-1222,24,23,3
1,869,24074,-2057,-16299,-1272,23,15,3
1,870,24079,-2023,-16328,-1262,22,13,3
1,871,24084,-1952,-16311,-1255,23,7,3
1,872,24089,-1929,-16281,-1387,20,6,1
1,873,24094,-1986,-16274,-1416,20,11,2
1,874,24099,-2119,-16281,-1305,20,13,5
1,875,24104,-2132,-16285,-1201,15,8,6
1,876,24109,-2086,-16266,-1215,13,-4,4
1,877,24114,-2084,-16233,-1303,12,-16,2
1,878,24119,-2058,-16217,-1331,13,-25,4
1,879,24124,-2077,-16186,-1279,11,-30,4
1,880,24129,-2115,-16255,-1208,9,-44,6
1,881,24134,-2080,-16264,-1257,7,-63,6
1,882,24139,-2115,-16304,-1387,6,-74,4
1,883,24144,-2165,-16307,-1445,5,-78,2
1,884,24149,-2224,-16289,-1557,3,-77,2
1,885,24154,-2222,-16278,-1676,4,-67,2
1,886,24159,-2225,-16229,-1688,2,-55,3
1,887,24164,-2191,-16293,-1610,3,-34,2
1,888,24169,-2263,-16289,-1550,4,-13,0
1,889,24174,-2215,-16288,-1567,4,-3,0
1,890,24179,-2238,-16274,-1560,5,6,1
1,891,24184,-2269,-16218,-1474,6,11,-1
1,892,24189,-2301,-16191,-1382,1,9,-3
1,893,24194,-2280,-16192,-1281,1,-2,-4
1,894,24199,-2355,-16241,-1264,4,-14,-2
1,895,24204,-2322,-16362,-1325,-1,-24,-4
1,896,24209,-2283,-16352,-1442,-1,-35,-5
1,897,24214,-2169,-16280,-1436,0,-37,-6
1,898,24219,-2142,-16223,-1521,-2,-33,-5
1,899,24224,-2164,-16202,-1617,-3,-27,-10
1,900,24229,-2199,-16167,-1699,-1,-16,-9
1,901,24234,-2208,-16155,-1641,-1,1,-7
1,902,24239,-2228,-16242,-1442,-3,13,-9
1,903,24244,-2299,-16378,-1309,-4,13,-9
1,904,24249,-2280,-16409,-1278,-4,4,-8
1,905,24254,-2200,-16345,-1351,-5,-1,-7
1,906,24259,-2182,-16304,-1544,-6,-1,-11
1,907,24264,-2113,-16253,-1682,-9,7,-13
1,908,24269,-2041,-16208,-1776,-10,21,-10
1,909,24274,-1962,-16217,-1792,-1,42,-6
1,910,24279,-1973,-16192,-1771,-1,70,-10
1,911,24284,-2112,-16150,-1712,-1,91,-8
1,912,24289,-2236,-16088,-1560,0,96,-7
1,913,24294,-2271,-16114,-1369,-5,93,-6
1,914,24299,-2236,-16256,-1132,-7,73,-7
1,915,24304,-2086,-16405,-983,-7,51,-10
1,916,24309,-1961,-16468,-880,-11,21,-11
1,917,24314,-1972,-16438,-804,-14,-24,-12
1,918,24319,-2039,-16296,-873,-15,-70,-14
1,919,24324,-2084,-16242,-1132,-19,-114,-12
1,920,24329,-2035,-16214,-1374,-22,-136,-12
1,921,24334,-1966,-16251,-1472,-23,-141,-6
1,922,24339,-2042,-16267,-1417,-25,-140,-4
1,923,24344,-2153,-16367,-1451,-28,-142,-6
1,924,24349,-2217,-16317,-1616,-25,-142,-9
1,925,24354,-2249,-16239,-1799,-27,-129,-5
1,926,24359,-2165,-16283,-1852,-21,-63,-3
1,927,24364,-2146,-16291,-1705,-22,-26,-1
1,928,24369,-2215,-16294,-1672,-19,3,-3
1,929,24374,-2312,-16264,-1658,-17,23,-7
1,930,24379,-2419,-16298,-1583,-16,29,-4
1,931,24384,-2387,-16295,-1497,-18,30,-5
1,932,24389,-2361,-16381,-1373,-18,30,-9
1,933,24394,-2344,-16378,-1270,-22,28,-8
1,934,24399,-2331,-16332,-1191,-21,22,-7
1,935,24404,-2335,-16300,-1211,-21,10,-10
1,936,24409,-2227,-16345,-1227,-24,-4,-12
1,937,24414,-2160,-16360,-1134,-23,-23,-8
1,938,24419,-2212,-16349,-1052,-27,-53,-11
1,939,24424,-2317,-16381,-1063,-31,-88,-14
1,940,24429,-2325,-16367,-1199,-32,-118,-14
1,941,24434,-2289,-16311,-1441,-35,-135,-11
1,942,24439,-2227,-16212,-1584,-31,-134,-7
1,943,24444,-2181,-16221,-1615,-32,-127,-7
1,944,24449,-2117,-16213,-1626,-35,-122,-7
1,945,24454,-2187,-16178,-1699,-34,-117,-7
1,946,24459,-2266,-16169,-1670,-32,-113,-7
1,947,24464,-2424,-16230,-1675,-32,-106,-6
1,948,24469,-2477,-16212,-1741,-33,-95,-6
1,949,24474,-2364,-16224,-1844,-30,-78,-5
1,950,24479,-2258,-16178,-1935,-29,-47,-8
1,951,24484,-2225,-16155,-1912,-24,-13,-10
1,952,24489,-2287,-16157,-1829,-21,8,-13
1,953,24494,-2319,-16109,-1686,-23,32,-11
1,954,24499,-2230,-16038,-1646,-21,51,-10
1,955,24504,-2219,-16086,-1516,-18,68,-7
1,956,24509,-2251,-16152,-1305,-18,68,-7
1,957,24514,-2237,-16153,-1201,-21,47,-12
1,958,24519,-2158,-16094,-1181,-24,14,-12
1,959,24524,-2096,-16013,-1245,-22,-11,-9
1,960,24529,-2082,-16001,-1328,-23,-27,-5
1,961,24534,-2032,-16021,-1443,-23,-38,-5
1,962,24539,-2049,-16059,-1393,-27,-51,-5
1,963,24544,-2056,-16101,-1294,-29,-66,-6
1,964,24549,-2106,-16061,-1342,-29,-83,-5
1,965,24554,-2163,-16014,-1545,-26,-96,-2
1,966,24559,-2153,-15954,-1698,-24,-95,-1
1,967,24564,-2203,-15997,-1664,-25,-83,0
1,968,24569,-2256,-16082,-1567,-25,-79,5
1,969,24574,-2213,-16162,-1532,-26,-80,3
1,970,24579,-2246,-16251,-1459,-22,-82,4
1,971,24584,-2401,-16250,-1563,-23,-85,-3
1,972,24589,-2462,-16233,-1652,-25,-89,-2
1,973,24594,-2450,-16170,-1735,-25,-81,-1
1,974,24599,-2385,-16175,-1798,-24,-61,-1
1,975,24604,-2400,-16171,-1723,-23,-37,1
1,976,24609,-2401,-16179,-1705,-18,-22,-2
1,977,24614,-2380,-16204,-1776,-15,-11,-3
1,978,24619,-2428,-16179,-1731,-19,3,-2
1,979,24624,-2438,-16140,-1623,-14,19,-3
1,980,24629,-2371,-16107,-1520,-16,25,-2
1,981,24634,-2325,-16109,-1449,-13,24,-3
1,982,24639,-2273,-16177,-1402,-13,20,-4
1,983,24644,-2277,-16174,-1390,-14,7,-3
1,984,24649,-2253,-16172,-1316,-15,-15,-6
1,985,24654,-2225,-16117,-1315,-18,-39,-5
1,986,24659,-2198,-16096,-1393,-16,-55,-3
1,987,24664,-2166,-16114,-1514,-14,-60,1
1,988,24669,-2209,-16157,-1544,-14,-59,0
1,989,24674,-2256,-16182,-1481,-15,-63,1
1,990,24679,-2238,-16218,-1455,-15,-68,1
1,991,24684,-2177,-16206,-1555,-14,-68,-1
1,992,24689,-2143,-16141,-1600,-13,-57,1
1,993,24694,-2173,-16132,-1709,-12,-42,2
1,994,24699,-2222,-16110,-1691,-12,-30,3
1,995,24704,-2166,-16096,-1585,-10,-21,7
1,996,24709,-2207,-16115,-1457,-9,-15,6
1,997,24714,-2310,-16218,-1376,-11,-16,6
1,998,24719,-2349,-16282,-1413,-10,-23,5
1,999,24724,-2309,-16206,-1473,-11,-36,6
2,0,28314,-2352,-16197,-1546,-13,2,-11
2,1,28319,-2353,-16200,-1503,-14,1,-10
2,2,28324,-2356,-16159,-1500,-14,-5,-10
2,3,28329,-2339,-16098,-1518,-14,-15,-9
2,4,28334,-2376,-16116,-1540,-15,-24,-12
2,5,28339,-2307,-16059,-1585,-14,-36,-12
2,6,28344,-2330,-16094,-1632,-18,-41,-9
2,7,28349,-2348,-16109,-1596,-15,-38,-12
2,8,28354,-2324,-16112,-1642,-12,-32,-11
2,9,28359,-2282,-16116,-1722,-10,-32,-9
2,10,28364,-2274,-16106,-1697,-13,-27,-9
2,11,28369,-2300,-16078,-1691,-13,-28,-13
2,12,28374,-2370,-16053,-1666,-12,-32,-13
2,13,28379,-2376,-16054,-1704,-11,-28,-13
2,14,28384,-2308,-16113,-1765,-12,-19,-7
2,15,28389,-2330,-16172,-1716,-12,1,-9
2,16,28394,-2417,-16197,-1589,-9,12,-14
2,17,28399,-2337,-16108,-1597,-11,8,-10
2,18,28404,-2200,-16112,-1629,-11,20,-8
2,19,28409,-2239,-16124,-1525,-9,28,-11
2,20,28414,-2293,-16116,-1492,-9,18,-11
2,21,28419,-2327,-16129,-1473,-10,1,-11
2,22,28424,-2268,-16103,-1576,-9,-10,-12
2,23,28429,-2213,-16119,-1593,-8,-5,-8
2,24,28434,-2234,-16159,-1561,-9,-1,-7
2,25,28439,-2242,-16247,-1604,-7,0,-9
2,26,28444,-2270,-16233,-1564,-8,5,-9
2,27,28449,-2253,-16212,-1497,-12,9,-8
2,28,28454,-2220,-16119,-1438,-14,14,-11
2,29,28459,-2140,-16106,-1426,-13,14,-7
2,30,28464,-2159,-16097,-1404,-12,5,-8
2,31,28469,-2220,-16100,-1358,-12,-13,-6
2,32,28474,-2272,-16114,-1335,-16,-41,-6
2,33,28479,-2262,-16145,-1427,-15,-70,-7
2,34,28484,-2235,-16119,-1574,-18,-86,-7
2,35,28489,-2199,-16190,-1684,-14,-81,-5
2,36,28494,-2222,-16227,-1790,-13,-68,-5
2,37,28499,-2297,-16252,-1750,-12,-57,-5
2,38,28504,-2364,-16277,-1675,-13,-46,-5
2,39,28509,-2467,-16300,-1697,-14,-37,-6
2,40,28514,-2447,-16258,-1817,-13,-25,-7
2,41,28519,-2413,-16229,-1865,-12,-1,-6
2,42,28524,-2389,-16200,-1909,-9,25,-6
2,43,28529,-2390,-16207,-1803,-5,42,-4
2,44,28534,-2402,-16235,-1717,-5,47,-7
2,45,28539,-2418,-16228,-1669,-5,52,-7
2,46,28544,-2396,-16197,-1596,-2,53,-4
2,47,28549,-2398,-16240,-1555,-2,57,-5
2,48,28554,-2379,-16314,-1537,-4,54,-8
2,49,28559,-2373,-16269,-1483,-4,41,-8
2,50,28564,-2382,-16230,-1525,-5,28,-11
2,51,28569,-2408,-16203,-1631,-4,16,-14
2,52,28574,-2403,-16221,-1700,-4,8,-11
2,53,28579,-2347,-16179,-1734,-2,12,-9
2,54,28584,-2341,-16178,-1668,-3,20,-9
2,55,28589,-2275,-16132,-1597,-6,33,-8
2,56,28594,-2269,-16090,-1528,-6,30,-4
2,57,28599,-2271,-16113,-1518,-1,21,-10
2,58,28604,-2327,-16092,-1441,0,6,-15
2,59,28609,-2366,-16044,-1393,-4,-23,-11
2,60,28614,-2352,-16074,-1477,-4,-45,-11
2,61,28619,-2309,-16072,-1665,-2,-56,-14
2,62,28624,-2255,-16158,-1814,-3,-55,-12
2,63,28629,-2243,-16171,-1853,-3,-42,-9
2,64,28634,-2202,-16157,-1810,-1,-27,-9
2,65,28639,-2314,-16053,-1781,-1,-15,-11
2,66,28644,-2340,-16029,-1778,2,-2,-11
2,67,28649,-2357,-16091,-1883,6,10,-7
2,68,28654,-2290,-16156,-1848,7,27,-8
2,69,28659,-2249,-16198,-1699,5,36,-7
2,70,28664,-2215,-16229,-1492,3,39,-9
2,71,28669,-2262,-16249,-1456,7,29,-9
2,72,28674,-2289,-16210,-1542,9,22,-9
2,73,28679,-2312,-16180,-1606,7,15,-8
2,74,28684,-2323,-16229,-1551,4,10,-7
2,75,28689,-2266,-16263,-1437,4,3,-6
2,76,28694,-2258,-16291,-1396,4,-5,-7
2,77,28699,-2263,-16292,-1490,7,-13,-8
2,78,28704,-2302,-16258,-1629,7,-19,-6
2,79,28709,-2293,-16209,-1699,5,-15,-7
2,80,28714,-2288,-16195,-1586,5,-14,-2
2,81,28719,-2286,-16253,-1545,5,-10,0
2,82,28724,-2318,-16303,-1588,5,-7,-3
2,83,28729,-2285,-16287,-1699,8,-6,-6
2,84,28734,-2280,-16284,-1719,9,-1,-4
2,85,28739,-2323,-16261,-1692,8,7,-3
2,86,28744,-2326,-16261,-1683,8,14,-4
2,87,28749,-2372,-16245,-1760,10,24,-5
2,88,28754,-2381,-16217,-1774,11,35,-3
2,89,28759,-2288,-16210,-1752,12,48,-3
2,90,28764,-2313,-16093,-1581,11,58,-7
2,91,28769,-2282,-16079,-1559,14,50,-3
2,92,28774,-2221,-16114,-1537,14,44,0
2,93,28779,-2214,-16165,-1448,11,34,-3
2,94,28784,-2198,-16144,-1370,13,21,-3
2,95,28789,-2212,-16082,-1416,8,6,-2
2,96,28794,-2174,-16072,-1499,7,-6,-5
2,97,28799,-2151,-16093,-1554,9,-12,0
2,98,28804,-2119,-16138,-1605,10,-17,3
2,99,28809,-2126,-16163,-1574,7,-24,2
2,100,28814,-2157,-16149,-1624,6,-31,3
2,101,28819,-2181,-16146,-1668,10,-39,3
2,102,28824,-2185,-16145,-1740,10,-38,3
2,103,28829,-2217,-16181,-1735,9,-28,5
2,104,28834,-2217,-16241,-1722,10,-21,9
2,105,28839,-2214,-16248,-1699,10,-15,8
2,106,28844,-2271,-16233,-1697,12,-6,5
2,107,28849,-2295,-16179,-1748,13,2,6
2,108,28854,-2335,-16174,-1767,12,6,8
2,109,28859,-2320,-16213,-1734,12,14,7
2,110,28864,-2312,-16212,-1611,12,24,6
2,111,28869,-2337,-16250,-1589,12,29,6
2,112,28874,-2333,-16224,-1552,14,28,6
2,113,28879,-2307,-16199,-1621,13,21,8
2,114,28884,-2293,-16183,-1534,14,19,4
2,115,28889,-2343,-16137,-1458,13,8,5
2,116,28894,-2355,-16187,-1470,10,-7,6
2,117,28899,-2371,-16223,-1536,11,-21,7
2,118,28904,-2420,-16323,-1564,13,-32,7
2,119,28909,-2418,-16329,-1556,10,-36,5
2,120,28914,-2342,-16249,-1646,10,-35,7
2,121,28919,-2342,-16233,-1721,5,-28,5
2,122,28924,-2376,-16215,-1767,8,-18,1
2,123,28929,-2414,-16221,-1765,8,-9,4
2,124,28934,-2444,-16256,-1704,8,-4,4
2,125,28939,-2396,-16265,-1650,11,-3,4
2,126,28944,-2379,-16217,-1732,11,0,4
2,127,28949,-2346,-16162,-1777,11,5,3
2,128,28954,-2321,-16134,-1747,12,14,4
2,129,28959,-2326,-16084,-1736,15,23,3
2,130,28964,-2290,-16142,-1714,14,25,3
2,131,28969,-2262,-16194,-1679,13,22,3
2,132,28974,-2276,-16167,-1646,15,19,1
2,133,28979,-2283,-16173,-1671,14,17,0
2,134,28984,-2309,-16185,-1669,15,15,0
2,135,28989,-2237,-16218,-1620,12,18,3
2,136,28994,-2159,-16194,-1599,11,17,1
2,137,28999,-2191,-16211,-1494,9,16,1
2,138,29004,-2282,-16233,-1526,12,4,2
2,139,29009,-2280,-16199,-1602,13,-9,4
2,140,29014,-2314,-16181,-1595,10,-18,7
2,141,29019,-2331,-16219,-1637,10,-22,3
2,142,29024,-2297,-16227,-1682,11,-22,5
2,143,29029,-2242,-16175,-1719,8,-18,3
2,144,29034,-2224,-16165,-1770,10,-12,5
2,145,29039,-2259,-16188,-1742,9,-5,4
2,146,29044,-2255,-16139,-1752,9,6,4
2,147,29049,-2277,-16165,-1696,9,10,5
2,148,29054,-2276,-16219,-1668,12,15,4
2,149,29059,-2259,-16227,-1694,13,22,4
2,150,29064,-2297,-16222,-1598,11,27,6
2,151,29069,-2295,-16228,-1511,11,29,7
2,152,29074,-2272,-16277,-1557,7,34,6
2,153,29079,-2266,-16308,-1489,8,34,4
2,154,29084,-2252,-16270,-1443,8,29,5
2,155,29089,-2277,-16267,-1447,6,21,6
2,156,29094,-2291,-16251,-1438,3,13,4
2,157,29099,-2254,-16234,-1403,3,8,5
2,158,29104,-2279,-16276,-1392,1,-3,7
2,159,29109,-2277,-16313,-1403,-1,-18,6
2,160,29114,-2278,-16299,-1441,-3,-30,3
2,161,29119,-2299,-16281,-1554,-1,-45,5
2,162,29124,-2318,-16172,-1574,-3,-46,3
2,163,29129,-2297,-16204,-1697,-6,-34,4
2,164,29134,-2312,-16242,-1743,-5,-25,7
2,165,29139,-2310,-16202,-1768,-6,-15,8
2,166,29144,-2337,-16144,-1760,-5,-8,5
2,167,29149,-2381,-16153,-1716,-2,-1,2
2,168,29154,-2423,-16171,-1699,-3,0,3
2,169,29159,-2393,-16171,-1710,-6,2,0
2,170,29164,-2378,-16181,-1683,-2,8,1
2,171,29169,-2371,-16194,-1656,-2,15,3
2,172,29174,-2428,-16194,-1698,-5,17,0
2,173,29179,-2428,-16198,-1678,-3,17,1
2,174,29184,-2408,-16195,-1630,-5,15,0
2,175,29189,-2314,-16187,-1590,-7,12,-3
2,176,29194,-2286,-16180,-1600,-4,6,-2
2,177,29199,-2306,-16199,-1630,-6,6,-2
2,178,29204,-2257,-16221,-1632,-6,2,-2
2,179,29209,-2228,-16197,-1585,-5,-5,-1
2,180,29214,-2248,-16190,-1622,-9,-9,-2
2,181,29219,-2220,-16176,-1691,-9,-8,-1
2,182,29224,-2175,-16150,-1728,-6,-2,1
2,183,29229,-2190,-16155,-1678,-3,5,-1
2,184,29234,-2173,-16147,-1619,-6,7,-2
2,185,29239,-2149,-16158,-1561,-4,4,2
2,186,29244,-2131,-16214,-1610,-5,3,1
2,187,29249,-2197,-16210,-1555,-8,2,-1
2,188,29254,-2204,-16130,-1574,-9,-3,-1
2,189,29259,-2253,-16154,-1618,-8,-10,0
2,190,29264,-2295,-16158,-1638,-7,-16,2
2,191,29269,-2234,-16142,-1648,-8,-21,3
2,192,29274,-2244,-16161,-1678,-6,-16,5
2,193,29279,-2216,-16165,-1698,-8,-9,4
2,194,29284,-2246,-16171,-1694,-6,-3,3
2,195,29289,-2281,-16159,-1634,-8,-1,3
2,196,29294,-2291,-16163,-1620,-8,-4,5
2,197,29299,-2305,-16180,-1584,-7,-4,2
2,198,29304,-2258,-16226,-1553,-9,-7,3
2,199,29309,-2234,-16192,-1552,-11,-9,5
2,200,29314,-2230,-16210,-1545,-11,-8,5
2,201,29319,-2245,-16220,-1542,-10,-12,4
2,202,29324,-2286,-16189,-1518,-11,-18,4
2,203,29329,-2302,-16217,-1539,-11,-23,4
2,204,29334,-2295,-16247,-1551,-13,-25,2
2,205,29339,-2267,-16221,-1612,-12,-24,5
2,206,29344,-2262,-16161,-1576,-11,-15,4
2,207,29349,-2310,-16175,-1594,-8,-13,2
2,208,29354,-2330,-16184,-1616,-13,-13,3
2,209,29359,-2275,-16187,-1610,-12,-11,3
2,210,29364,-2289,-16201,-1592,-10,-10,2
2,211,29369,-2389,-16145,-1568,-9,-13,1
2,212,29374,-2415,-16149,-1674,-10,-16,3
2,213,29379,-2370,-16123,-1769,-12,-18,2
2,214,29384,-2327,-16107,-1733,-12,-13,1
2,215,29389,-2235,-16126,-1669,-10,-4,1
2,216,29394,-2274,-16114,-1633,-7,-3,2
2,217,29399,-2345,-16084,-1672,-10,-4,-2
2,218,29404,-2378,-16066,-1701,-10,-6,-3
2,219,29409,-2369,-16096,-1662,-10,-7,-3
2,220,29414,-2352,-16126,-1612,-6,-10,-1
2,221,29419,-2348,-16160,-1642,-10,-12,-4
2,222,29424,-2346,-16156,-1677,-11,-5,-3
2,223,29429,-2391,-16139,-1682,-8,2,-3
2,224,29434,-2410,-16153,-1705,-6,9,-5
2,225,29439,-2337,-16184,-1657,-4,13,-7
2,226,29444,-2323,-16185,-1578,-8,16,-6
2,227,29449,-2284,-16217,-1556,-8,20,-4
2,228,29454,-2318,-16199,-1479,-8,21,-6
2,229,29459,-2394,-16236,-1441,-9,11,-6
2,230,29464,-2354,-16315,-1478,-8,-5,-8
2,231,29469,-2328,-16305,-1561,-9,-17,-9
2,232,29474,-2294,-16246,-1535,-10,-24,-9
2,233,29479,-2333,-16269,-1576,-11,-26,-7
2,234,29484,-2383,-16286,-1689,-9,-26,-8
2,235,29489,-2323,-16237,-1741,-8,-23,-7
2,236,29494,-2312,-16229,-1736,-10,-15,-6
2,237,29499,-2351,-16221,-1660,-6,-5,-12
2,238,29504,-2376,-16219,-1738,-5,-3,-12
2,239,29509,-2386,-16210,-1743,-4,-1,-11
2,240,29514,-2317,-16189,-1719,-3,3,-10
2,241,29519,-2324,-16218,-1571,-4,3,-8
2,242,29524,-2368,-16206,-1570,-3,3,-12
2,243,29529,-2386,-16244,-1573,-3,-4,-14
2,244,29534,-2447,-16307,-1602,-7,-11,-12
2,245,29539,-2455,-16312,-1590,-5,-14,-15
2,246,29544,-2344,-16289,-1556,-3,-11,-12
2,247,29549,-2292,-16202,-1598,-4,-11,-16
2,248,29554,-2322,-16230,-1654,-2,-7,-15
2,249,29559,-2345,-16219,-1644,-3,-7,-14
2,250,29564,-2301,-16188,-1644,-2,-9,-14
2,251,29569,-2278,-16186,-1618,-2,-8,-15
2,252,29574,-2232,-16229,-1553,-1,-3,-13
2,253,29579,-2246,-16210,-1538,-2,1,-15
2,254,29584,-2231,-16230,-1576,-4,-1,-15
2,255,29589,-2244,-16173,-1634,-1,-1,-16
2,256,29594,-2243,-16131,-1547,-1,-5,-13
2,257,29599,-2274,-16111,-1575,-2,-8,-14
2,258,29604,-2266,-16153,-1565,-5,-10,-15
2,259,29609,-2272,-16140,-1527,-3,-12,-11
2,260,29614,-2275,-16140,-1608,-1,-17,-12
2,261,29619,-2289,-16113,-1619,-1,-17,-13
2,262,29624,-2243,-16123,-1609,-1,-15,-12
2,263,29629,-2255,-16147,-1569,1,-18,-9
2,264,29634,-2296,-16149,-1587,0,-21,-12
2,265,29639,-2275,-16116,-1631,-1,-26,-10
2,266,29644,-2283,-16132,-1661,-1,-27,-9
2,267,29649,-2236,-16123,-1711,0,-21,-13
2,268,29654,-2268,-16096,-1622,1,-21,-13
2,269,29659,-2296,-16106,-1637,2,-18,-11
2,270,29664,-2273,-16079,-1718,2,-14,-11
2,271,29669,-2308,-16132,-1753,4,-7,-10
2,272,29674,-2263,-16169,-1656,-2,2,-10
2,273,29679,-2268,-16121,-1628,-1,10,-9
2,274,29684,-2275,-16095,-1602,3,8,-10
2,275,29689,-2277,-16091,-1572,3,7,-11
2,276,29694,-2310,-16133,-1595,0,3,-7
2,277,29699,-2293,-16149,-1584,0,-2,-11
2,278,29704,-2307,-16184,-1546,2,-7,-10
2,279,29709,-2279,-16180,-1565,1,-11,-10
2,280,29714,-2263,-16181,-1627,1,-13,-11
2,281,29719,-2281,-16127,-1644,-1,-19,-10
2,282,29724,-2334,-16120,-1677,2,-23,-10
2,283,29729,-2329,-16123,-1730,3,-23,-9
2,284,29734,-2353,-16148,-1747,2,-19,-11
2,285,29739,-2312,-16123,-1721,2,-16,-9
2,286,29744,-2300,-16116,-1730,2,-15,-8
2,287,29749,-2215,-16137,-1775,4,-7,-9
2,288,29754,-2272,-16148,-1741,8,-2,-10
2,289,29759,-2338,-16188,-1644,6,-6,-10
2,290,29764,-2389,-16221,-1664,4,-14,-10
2,291,29769,-2412,-16252,-1667,6,-19,-11
2,292,29774,-2406,-16250,-1712,8,-17,-8
2,293,29779,-2396,-16254,-1728,9,-10,-8
2,294,29784,-2356,-16279,-1698,8,-3,-9
2,295,29789,-2374,-16345,-1673,12,-2,-11
2,296,29794,-2374,-16352,-1650,10,-9,-10
2,297,29799,-2442,-16352,-1660,11,-14,-12
2,298,29804,-2498,-16332,-1671,9,-19,-13
2,299,29809,-2455,-16324,-1684,8,-20,-9
2,300,29814,-2430,-16322,-1691,9,-16,-13
2,301,29819,-2423,-16308,-1651,11,-14,-14
2,302,29824,-2347,-16338,-1691,10,-10,-15
2,303,29829,-2348,-16350,-1662,10,-10,-15
2,304,29834,-2405,-16345,-1596,14,-11,-13
2,305,29839,-2397,-16318,-1592,14,-8,-15
2,306,29844,-2355,-16317,-1642,11,-4,-13
2,307,29849,-2280,-16292,-1630,12,1,-10
2,308,29854,-2201,-16252,-1584,13,9,-12
2,309,29859,-2196,-16232,-1548,13,11,-10
2,310,29864,-2241,-16221,-1444,12,-4,-13
2,311,29869,-2249,-16238,-1416,10,-15,-11
2,312,29874,-2203,-16249,-1453,10,-26,-9
2,313,29879,-2229,-16193,-1442,9,-30,-10
2,314,29884,-2183,-16178,-1471,10,-39,-10
2,315,29889,-2218,-16184,-1531,8,-46,-8
2,316,29894,-2287,-16193,-1560,7,-50,-5
2,317,29899,-2189,-16208,-1576,7,-48,-7
2,318,29904,-2167,-16217,-1527,9,-35,-4
2,319,29909,-2161,-16198,-1553,9,-26,-3
2,320,29914,-2226,-16172,-1572,10,-17,-6
2,321,29919,-2237,-16149,-1629,8,-12,-5
2,322,29924,-2194,-16104,-1574,5,-14,0
2,323,29929,-2227,-16109,-1510,4,-16,-2
2,324,29934,-2246,-16102,-1432,2,-20,0
2,325,29939,-2270,-16084,-1456,4,-22,1
2,326,29944,-2216,-16077,-1588,4,-28,5
2,327,29949,-2242,-16038,-1548,2,-29,5
2,328,29954,-2352,-16057,-1505,0,-36,-1
2,329,29959,-2358,-16053,-1510,0,-49,-1
2,330,29964,-2338,-16059,-1552,1,-57,2
2,331,29969,-2245,-16091,-1597,1,-57,2
2,332,29974,-2272,-16067,-1661,1,-50,3
2,333,29979,-2324,-15994,-1677,0,-53,2
2,334,29984,-2372,-15967,-1677,0,-61,1
2,335,29989,-2354,-16008,-1718,0,-62,1
2,336,29994,-2321,-16062,-1734,0,-52,3
2,337,29999,-2302,-16073,-1735,2,-40,6
2,338,30004,-2322,-16109,-1758,2,-34,3
2,339,30009,-2397,-16094,-1746,2,-28,3
2,340,30014,-2410,-16062,-1708,0,-28,2
2,341,30019,-2414,-16072,-1739,3,-25,0
2,342,30024,-2370,-16083,-1704,5,-19,3
2,343,30029,-2435,-16144,-1650,1,-15,3
2,344,30034,-2421,-16216,-1596,3,-10,2
2,345,30039,-2421,-16237,-1545,4,-14,-2
2,346,30044,-2421,-16241,-1585,1,-24,-1
2,347,30049,-2438,-16237,-1660,2,-24,-2
2,348,30054,-2434,-16262,-1713,4,-25,-1
2,349,30059,-2441,-16215,-1706,1,-21,0
2,350,30064,-2386,-16229,-1663,0,-14,2
2,351,30069,-2372,-16282,-1652,3,-9,1
2,352,30074,-2376,-16270,-1651,4,-8,-2
2,353,30079,-2443,-16294,-1586,5,-11,0
2,354,30084,-2458,-16334,-1597,2,-12,-1
2,355,30089,-2409,-16273,-1631,1,-13,-2
2,356,30094,-2426,-16258,-1589,3,-14,2
2,357,30099,-2445,-16199,-1600,3,-15,2
2,358,30104,-2533,-16175,-1696,4,-18,0
2,359,30109,-2560,-16035,-1811,4,-21,0
2,360,30114,-2522,-15978,-2053,2,-16,5
2,361,30119,-2487,-16012,-2217,7,-2,12
2,362,30124,-2213,-15945,-2337,6,31,14
2,363,30129,-2225,-15736,-2405,5,77,17
2,364,30134,-2367,-15643,-2612,10,134,20
2,365,30139,-2514,-15614,-2796,19,201,21
2,366,30144,-2286,-15604,-2721,22,281,33
2,367,30149,-1944,-15515,-2168,19,372,44
2,368,30154,-1729,-15589,-1355,20,433,52
2,369,30159,-1827,-15639,-733,21,442,61
2,370,30164,-2145,-15699,-599,17,387,63
2,371,30169,-2344,-15735,-770,9,289,68
2,372,30174,-2244,-15678,-467,-2,183,81
2,373,30179,-2104,-15713,36,-16,84,91
2,374,30184,-2374,-15869,278,-21,-14,98
2,375,30189,-2469,-16010,-214,-26,-114,107
2,376,30194,-2314,-16035,-749,-34,-190,121
2,377,30199,-2242,-16161,-779,-46,-255,133
2,378,30204,-2291,-16177,-452,-59,-322,145
2,379,30209,-2361,-16137,-453,-69,-398,154
2,380,30214,-2464,-16043,-988,-72,-455,169
2,381,30219,-2588,-16075,-1573,-73,-479,186
2,382,30224,-2703,-16137,-1569,-78,-481,205
2,383,30229,-2648,-16200,-1298,-89,-496,221
2,384,30234,-2699,-16167,-1567,-93,-543,245
2,385,30239,-2853,-16058,-2030,-89,-535,263
2,386,30244,-3130,-15997,-2104,-88,-506,283
2,387,30249,-3355,-15960,-1983,-91,-482,296
2,388,30254,-3491,-15894,-2059,-95,-465,306
2,389,30259,-3484,-15842,-2323,-88,-441,319
2,390,30264,-3513,-15822,-2597,-81,-398,332
2,391,30269,-3688,-15816,-2648,-75,-343,345
2,392,30274,-3721,-15786,-2562,-76,-293,358
2,393,30279,-3934,-15780,-2407,-72,-239,372
2,394,30284,-3806,-15987,-2552,-67,-186,388
2,395,30289,-3899,-15832,-2555,-58,-125,399
2,396,30294,-3841,-15881,-2539,-55,-70,414
2,397,30299,-3848,-15772,-2518,-54,-19,426
2,398,30304,-3737,-15871,-2183,-53,37,438
2,399,30309,-3782,-15991,-1910,-49,72,450
2,400,30314,-3828,-15983,-1575,-43,82,460
2,401,30319,-3927,-15916,-1504,-45,56,473
2,402,30324,-4058,-15867,-1596,-47,28,485
2,403,30329,-4134,-15840,-1775,-49,7,496
2,404,30334,-4091,-15835,-1775,-50,4,513
2,405,30339,-3940,-15880,-1683,-50,0,526
2,406,30344,-3889,-15875,-1813,-48,-8,537
2,407,30349,-3935,-15827,-1998,-47,-4,549
2,408,30354,-4013,-15817,-2171,-46,8,559
2,409,30359,-4057,-15789,-2061,-42,34,574
2,410,30364,-4136,-15793,-1831,-43,59,589
2,411,30369,-4300,-15806,-1892,-41,71,598
2,412,30374,-4456,-15804,-2167,-39,79,608
2,413,30379,-4411,-15706,-2266,-41,94,617
2,414,30384,-4382,-15580,-2123,-39,123,633
2,415,30389,-4396,-15564,-1856,-35,162,642
2,416,30394,-4531,-15535,-1713,-35,181,649
2,417,30399,-4748,-15534,-1643,-35,173,655
2,418,30404,-4837,-15546,-1551,-37,153,662
2,419,30409,-4929,-15575,-1450,-39,118,670
2,420,30414,-4966,-15576,-1502,-40,78,675
2,421,30419,-5019,-15511,-1760,-42,48,680
2,422,30424,-5122,-15489,-2101,-40,38,686
2,423,30429,-5140,-15398,-2345,-39,55,694
2,424,30434,-5069,-15408,-2305,-37,89,702
2,425,30439,-5067,-15480,-2183,-34,124,706
2,426,30444,-5198,-15509,-2140,-31,146,707
2,427,30449,-5282,-15500,-2152,-29,155,711
2,428,30454,-5375,-15519,-2242,-25,164,711
2,429,30459,-5345,-15552,-2262,-28,179,714
2,430,30464,-5273,-15573,-2257,-27,198,718
2,431,30469,-5214,-15581,-2261,-23,217,720
2,432,30474,-5225,-15543,-2325,-22,238,720
2,433,30479,-5273,-15469,-2409,-17,262,719
2,434,30484,-5269,-15426,-2386,-14,291,723
2,435,30489,-5230,-15432,-2359,-15,324,723
2,436,30494,-5212,-15388,-2177,-14,349,723
2,437,30499,-5212,-15363,-1975,-10,366,723
2,438,30504,-5369,-15412,-1826,-9,358,721
2,439,30509,-5441,-15349,-1688,-10,330,718
2,440,30514,-5592,-15310,-1789,-12,293,713
2,441,30519,-5660,-15276,-1932,-10,264,708
2,442,30524,-5488,-15296,-2060,-9,248,707
2,443,30529,-5371,-15352,-1917,-8,247,703
2,444,30534,-5422,-15438,-1780,-8,231,694
2,445,30539,-5490,-15514,-1836,-8,200,681
2,446,30544,-5536,-15567,-2141,-7,177,672
2,447,30549,-5620,-15614,-2263,-6,171,667
2,448,30554,-5689,-15694,-2239,-5,176,659
2,449,30559,-5785,-15705,-2101,-1,184,651
2,450,30564,-5785,-15737,-2140,4,193,639
2,451,30569,-5888,-15834,-2398,7,214,626
2,452,30574,-5897,-15889,-2511,10,245,613
2,453,30579,-5830,-15906,-2414,12,274,604
2,454,30584,-5763,-15945,-2163,15,302,588
2,455,30589,-5729,-15975,-2128,21,331,571
2,456,30594,-5763,-16046,-2138,24,365,556
2,457,30599,-5611,-16075,-1998,30,437,529
2,458,30604,-5604,-15982,-1790,31,460,514
2,459,30609,-5650,-16040,-1646,30,473,499
2,460,30614,-5653,-16064,-1724,32,475,477
2,461,30619,-5514,-16055,-1669,32,472,462
2,462,30624,-5322,-16004,-1407,29,466,445
2,463,30629,-5291,-15982,-1261,25,448,429
2,464,30634,-5310,-15986,-1326,27,420,412
2,465,30639,-5250,-15944,-1440,28,387,393
2,466,30644,-5192,-15860,-1429,24,354,375
2,467,30649,-5109,-15848,-1392,22,322,358
2,468,30654,-5019,-15787,-1389,21,294,344
2,469,30659,-4997,-15746,-1408,18,267,325
2,470,30664,-5011,-15674,-1420,20,237,311
2,471,30669,-5135,-15563,-1566,20,203,294
2,472,30674,-5161,-15489,-1751,17,175,275
2,473,30679,-5093,-15497,-1840,18,155,254
2,474,30684,-5100,-15454,-1704,17,146,238
2,475,30689,-5163,-15443,-1763,17,141,222
2,476,30694,-5235,-15457,-2057,24,142,201
2,477,30699,-5247,-15388,-2247,28,146,181
2,478,30704,-5344,-15248,-2283,27,159,166
2,479,30709,-5269,-15177,-2301,30,171,148
2,480,30714,-5177,-15135,-2286,35,188,128
2,481,30719,-5232,-15188,-2287,38,209,105
2,482,30724,-5371,-15197,-2225,40,223,86
2,483,30729,-5386,-15213,-2260,44,232,64
2,484,30734,-5358,-15204,-2243,48,238,45
2,485,30739,-5293,-15197,-2194,51,246,25
2,486,30744,-5257,-15187,-2040,56,245,4
2,487,30749,-5282,-15192,-1912,56,228,-18
2,488,30754,-5280,-15190,-1898,55,204,-38
2,489,30759,-5235,-15193,-1932,57,183,-61
2,490,30764,-5179,-15230,-1930,60,168,-77
2,491,30769,-5170,-15245,-1847,65,150,-95
2,492,30774,-5212,-15254,-1778,62,124,-118
2,493,30779,-5208,-15267,-1863,63,95,-135
2,494,30784,-5065,-15216,-2033,65,79,-155
2,495,30789,-5002,-15240,-2089,68,81,-171
2,496,30794,-5001,-15308,-1991,69,87,-191
2,497,30799,-5016,-15359,-1899,69,79,-209
2,498,30804,-4978,-15399,-1907,71,66,-226
2,499,30809,-5033,-15343,-1860,73,51,-246
2,500,30814,-5101,-15321,-1824,76,36,-265
2,501,30819,-5098,-15284,-1849,77,24,-280
2,502,30824,-4990,-15246,-1896,76,15,-300
2,503,30829,-4964,-15258,-1976,80,6,-317
2,504,30834,-5007,-15289,-2040,83,-6,-333
2,505,30839,-4993,-15358,-2071,86,-18,-350
2,506,30844,-4887,-15368,-2178,87,-23,-368
2,507,30849,-4862,-15361,-2176,91,-19,-382
2,508,30854,-4823,-15348,-2079,92,-8,-399
2,509,30859,-4734,-15381,-2082,96,3,-414
2,510,30864,-4718,-15374,-2054,99,10,-430
2,511,30869,-4835,-15424,-2008,107,5,-443
2,512,30874,-4855,-15430,-1929,107,-3,-462
2,513,30879,-4874,-15401,-1929,108,-16,-476
2,514,30884,-4859,-15410,-1981,110,-28,-488
2,515,30889,-4819,-15367,-2067,111,-30,-501
2,516,30894,-4779,-15432,-2041,115,-27,-515
2,517,30899,-4858,-15449,-2102,118,-31,-533
2,518,30904,-4867,-15430,-2201,121,-31,-544
2,519,30909,-4772,-15450,-2313,125,-23,-557
2,520,30914,-4563,-15498,-2425,129,0,-571
2,521,30919,-4486,-15481,-2266,133,28,-580
2,522,30924,-4514,-15442,-2117,136,52,-595
2,523,30929,-4557,-15480,-2028,143,64,-608
2,524,30934,-4529,-15495,-1916,145,74,-619
2,525,30939,-4456,-15510,-1696,146,72,-631
2,526,30944,-4442,-15613,-1463,147,57,-637
2,527,30949,-4408,-15644,-1283,149,25,-647
2,528,30954,-4383,-15656,-1217,147,-21,-661
2,529,30959,-4347,-15661,-1315,145,-71,-671
2,530,30964,-4279,-15694,-1409,145,-112,-676
2,531,30969,-4146,-15705,-1480,144,-165,-694
2,532,30974,-4263,-15641,-1658,145,-181,-702
2,533,30979,-4306,-15609,-1984,144,-197,-706
2,534,30984,-4232,-15604,-2356,146,-189,-713
2,535,30989,-4090,-15573,-2522,150,-155,-717
2,536,30994,-4084,-15561,-2604,152,-107,-722
2,537,30999,-4163,-15550,-2825,159,-50,-726
2,538,31004,-4098,-15535,-2960,167,23,-731
2,539,31009,-4060,-15506,-2931,174,112,-733
2,540,31014,-4025,-15529,-2761,182,193,-736
2,541,31019,-4055,-15630,-2481,189,255,-741
2,542,31024,-3981,-15618,-2223,194,297,-745
2,543,31029,-3954,-15572,-1942,200,320,-748
2,544,31034,-3965,-15547,-1765,208,334,-754
2,545,31039,-3903,-15609,-1577,210,337,-756
2,546,31044,-3856,-15653,-1312,210,318,-759
2,547,31049,-3844,-15674,-899,210,273,-763
2,548,31054,-3910,-15717,-709,208,208,-767
2,549,31059,-3869,-15827,-747,206,134,-771
2,550,31064,-3792,-15804,-854,204,61,-774
2,551,31069,-3822,-15872,-920,201,-6,-775
2,552,31074,-3973,-15959,-1120,199,-75,-777
2,553,31079,-4083,-16043,-1534,196,-128,-780
2,554,31084,-4060,-16158,-2062,194,-144,-777
2,555,31089,-3913,-16211,-2442,198,-111,-774
2,556,31094,-3817,-16222,-2544,203,-40,-776
2,557,31099,-3861,-16213,-2717,208,39,-778
2,558,31104,-3977,-16198,-2935,216,124,-774
2,559,31109,-3932,-16183,-2972,223,214,-776
2,560,31114,-3775,-16221,-2606,230,322,-773
2,561,31119,-3584,-16305,-2055,237,408,-770
2,562,31124,-3438,-16345,-1495,243,450,-770
2,563,31129,-3474,-16315,-1111,246,450,-768
2,564,31134,-3435,-16328,-820,248,411,-769
2,565,31139,-3347,-16356,-501,243,345,-767
2,566,31144,-3051,-16471,-32,238,260,-763
2,567,31149,-2918,-16549,324,230,156,-763
2,568,31154,-2908,-16594,279,227,39,-763
2,569,31159,-2943,-16559,-162,221,-83,-762
2,570,31164,-2962,-16549,-588,213,-175,-758
2,571,31169,-3055,-16547,-977,205,-232,-750
2,572,31174,-2895,-16653,-1342,198,-251,-736
2,573,31179,-2541,-16750,-1709,197,-230,-722
2,574,31184,-2284,-16731,-2007,202,-178,-716
2,575,31189,-2457,-16707,-2128,201,-108,-715
2,576,31194,-2652,-16595,-2121,201,-37,-704
2,577,31199,-2611,-16599,-2134,203,36,-692
2,578,31204,-2395,-16617,-1904,207,118,-676
2,579,31209,-2295,-16655,-1522,211,188,-664
2,580,31214,-2303,-16657,-1123,209,212,-660
2,581,31219,-2366,-16562,-1076,210,199,-658
2,582,31224,-2370,-16425,-1209,208,175,-651
2,583,31229,-2200,-16314,-1129,206,173,-640
2,584,31234,-1963,-16296,-694,205,184,-626
2,585,31239,-1947,-16362,-282,204,168,-618
2,586,31244,-2072,-16423,-215,201,115,-613
2,587,31249,-2022,-16444,-353,194,41,-611
2,588,31254,-1911,-16420,-301,187,-35,-603
2,589,31259,-1950,-16530,-136,178,-103,-593
2,590,31264,-1987,-16618,-132,173,-167,-588
2,591,31269,-1987,-16676,-347,169,-225,-580
2,592,31274,-2030,-16711,-721,163,-288,-575
2,593,31279,-2015,-16746,-1047,153,-326,-569
2,594,31284,-1944,-16742,-1358,152,-330,-556
2,595,31289,-1813,-16734,-1373,150,-294,-544
2,596,31294,-1706,-16759,-1402,151,-241,-537
2,597,31299,-1669,-16762,-1435,150,-190,-529
2,598,31304,-1593,-16806,-1493,151,-152,-523
2,599,31309,3131,-14376,175,138,-122,-515
2,600,31314,-3590,-22558,16483,109,-247,-552
2,601,31336,3011,-24649,14697,-122,2381,22
2,602,31337,3011,-24649,14697,-122,2381,22
2,603,31338,3011,-24649,14697,-122,2381,22
2,604,31338,3011,-24649,14697,-122,2381,22
2,605,31339,-25038,-16852,-2140,77,1216,-195
2,606,31344,-21948,-9188,-24898,117,238,78
2,607,31349,198,-11035,-20696,-73,952,434
2,608,31354,11114,-15870,4234,-246,2571,448
2,609,31359,4664,-20629,20619,-141,3317,288
2,610,31364,-6605,-19241,13980,54,2419,80
2,611,31369,-8869,-15213,-4468,113,697,20
2,612,31374,-3886,-12716,-13713,-80,-320,84
2,613,31379,-71,-13743,72,-272,-19,188
2,614,31384,1036,-16620,12757,-285,420,252
2,615,31389,235,-18346,9323,-112,415,220
2,616,31394,-1035,-17658,-4133,9,-26,130
2,617,31399,-2448,-15994,-10810,-72,-491,46
2,618,31404,-3333,-14408,-4668,-227,-637,49
2,619,31409,-1388,-15026,3831,-284,-430,136
2,620,31414,992,-16185,3718,-180,-34,199
2,621,31419,1075,-17287,-2359,-57,307,205
2,622,31424,-1139,-17219,-6614,-58,274,150
2,623,31429,-3304,-16017,-2805,-155,-34,105
2,624,31434,-2266,-15456,2249,-234,-351,111
2,625,31439,-159,-15947,3484,-195,-314,158
2,626,31444,252,-16900,-483,-120,-35,185
2,627,31449,-1489,-17292,-3887,-78,155,175
2,628,31454,-3234,-16926,-2699,-130,19,141
2,629,31459,-2385,-16267,-159,-190,-309,108
2,630,31464,-509,-16132,666,-206,-412,103
2,631,31469,-1,-16253,-1517,-146,-156,112
2,632,31474,-1661,-16711,-3430,-84,217,138
2,633,31479,-2918,-16631,-3271,-79,332,138
2,634,31484,-2357,-16471,-1822,-127,171,129
2,635,31489,-796,-16329,-524,-159,22,108
2,636,31494,-451,-16361,-320,-139,104,101
2,637,31499,-1583,-16561,-1033,-89,305,109
2,638,31504,-2629,-16468,-1860,-61,389,117
2,639,31509,-2221,-16365,-1632,-86,293,116
2,640,31514,-1134,-16321,-384,-125,138,97
2,641,31519,-686,-16392,712,-130,45,79
2,642,31524,-1297,-16411,425,-101,25,77
2,643,31529,-2113,-16415,-950,-72,18,84
2,644,31534,-2165,-16371,-1808,-77,-27,88
2,645,31539,-1576,-16363,-1277,-105,-97,91
2,646,31544,-1152,-16455,-260,-122,-160,85
2,647,31549,-1153,-16519,-177,-111,-184,80
2,648,31554,-1504,-16424,-1263,-83,-167,78
2,649,31559,-1875,-16316,-2393,-70,-129,79
2,650,31564,-1890,-16224,-2463,-75,-95,83
2,651,31569,-1597,-16269,-1592,-88,-77,82
2,652,31574,-1354,-16392,-994,-86,-58,81
2,653,31579,-1453,-16456,-1217,-65,-24,77
2,654,31584,-1788,-16417,-2002,-45,28,72
2,655,31589,-2053,-16306,-2244,-41,74,69
2,656,31594,-1960,-16288,-1776,-49,96,70
2,657,31599,-1690,-16327,-1105,-53,107,70
2,658,31604,-1440,-16314,-948,-41,123,67
2,659,31609,-1489,-16304,-1231,-28,137,61
2,660,31614,-1625,-16238,-1451,-18,148,61
2,661,31619,-1715,-16186,-1284,-22,135,64
2,662,31624,-1586,-16127,-772,-30,94,63
2,663,31629,-1438,-16113,-385,-33,47,62
2,664,31634,-1368,-16092,-455,-22,2,62
2,665,31639,-1500,-16109,-795,-16,-46,65
2,666,31644,-1604,-16029,-1149,-20,-95,63
2,667,31649,-1489,-16008,-1186,-23,-139,65
2,668,31654,-1460,-15978,-999,-25,-173,66
2,669,31659,-1509,-16046,-1137,-21,-189,69
2,670,31664,-1525,-16107,-1440,-14,-188,73
2,671,31669,-1633,-16141,-1816,-9,-167,72
2,672,31674,-1670,-16174,-1951,-8,-131,70
2,673,31679,-1634,-16124,-1805,-5,-94,72
2,674,31684,-1666,-16100,-1703,-1,-52,73
2,675,31689,-1700,-16128,-1870,7,-9,74
2,676,31694,-1687,-16150,-2036,17,44,76
2,677,31699,-1661,-16129,-1360,19,126,78
2,678,31704,-1766,-16084,-1139,21,132,76
2,679,31709,-1774,-16060,-1210,28,127,75
2,680,31714,-1726,-16052,-1142,30,121,79
2,681,31719,-1815,-16078,-932,28,98,79
2,682,31724,-1814,-16096,-641,26,51,79
2,683,31729,-1726,-16062,-627,21,-11,81
2,684,31734,-1635,-16074,-763,24,-67,83
2,685,31739,-1723,-16151,-889,22,-119,81
2,686,31744,-1818,-16224,-985,19,-170,80
2,687,31749,-1750,-16150,-1140,18,-215,82
2,688,31754,-1681,-16141,-1380,16,-240,84
2,689,31759,-1742,-16124,-1639,15,-237,88
2,690,31764,-1879,-16131,-1780,19,-217,91
2,691,31769,-1954,-16118,-1912,28,-186,96
2,692,31774,-2010,-16157,-2071,27,-147,98
2,693,31779,-2051,-16182,-2262,28,-100,99
2,694,31784,-1934,-16170,-2329,31,-33,102
2,695,31789,-1885,-16116,-2377,40,48,106
2,696,31794,-1809,-16126,-2292,46,131,109
2,697,31799,-1909,-16142,-2038,51,197,109
2,698,31804,-2082,-16175,-1849,56,237,108
2,699,31809,-2092,-16154,-1701,54,256,107
2,700,31814,-2068,-16100,-1436,52,259,107
2,701,31819,-2048,-16066,-1103,52,248,108
2,702,31824,-2109,-16056,-985,54,217,108
2,703,31829,-2029,-16090,-1000,53,176,111
2,704,31834,-1961,-16102,-1019,53,132,112
2,705,31839,-1914,-16163,-869,46,81,112
2,706,31844,-1934,-16182,-791,40,24,115
2,707,31849,-1973,-16201,-884,37,-35,118
2,708,31854,-2013,-16208,-1099,37,-88,116
2,709,31859,-2048,-16189,-1285,34,-129,120
2,710,31864,-2103,-16211,-1404,30,-150,123
2,711,31869,-2109,-16240,-1489,27,-162,122
2,712,31874,-2114,-16308,-1459,24,-163,125
2,713,31879,-2132,-16367,-1566,25,-152,127
2,714,31884,-2161,-16420,-1639,28,-129,128
2,715,31889,-2219,-16447,-1649,26,-108,129
2,716,31894,-2252,-16445,-1654,27,-90,129
2,717,31899,-2321,-16361,-1668,27,-78,129
2,718,31904,-2287,-16349,-1719,26,-61,129
2,719,31909,-2262,-16335,-1759,28,-38,127
2,720,31914,-2270,-16386,-1698,29,-12,128
2,721,31919,-2390,-16424,-1573,26,9,127
2,722,31924,-2475,-16447,-1501,27,15,124
2,723,31929,-2466,-16456,-1518,27,13,123
2,724,31934,-2376,-16437,-1648,27,17,123
2,725,31939,-2307,-16365,-1653,26,28,124
2,726,31944,-2237,-16275,-1645,24,37,123
2,727,31949,-2165,-16239,-1660,27,47,122
2,728,31954,-2218,-16262,-1601,24,55,122
2,729,31959,-2351,-16304,-1462,20,54,118
2,730,31964,-2444,-16379,-1388,22,47,119
2,731,31969,-2406,-16430,-1422,23,41,121
2,732,31974,-2352,-16423,-1465,22,45,121
2,733,31979,-2263,-16348,-1488,19,53,118
2,734,31984,-2220,-16358,-1494,17,59,118
2,735,31989,-2162,-16222,-1459,16,63,117
2,736,31994,-2152,-16220,-1415,15,61,113
2,737,31999,-2172,-16133,-1451,19,56,115
2,738,32004,-2120,-15979,-1367,14,51,116
2,739,32009,-2066,-15886,-1294,10,40,116
2,740,32014,-2129,-15948,-1242,8,19,117
2,741,32019,-2189,-16171,-1153,3,-10,113
2,742,32024,-2329,-16347,-912,0,-57,107
2,743,32029,-2466,-16444,-908,-5,-107,104
2,744,32034,-2536,-16448,-1219,-8,-131,106
2,745,32039,-2419,-16394,-1579,-8,-124,106
2,746,32044,-2351,-16416,-1718,-7,-92,107
2,747,32049,-2279,-16364,-1621,-11,-60,102
2,748,32054,-2205,-16278,-1521,-13,-44,97
2,749,32059,-2200,-16204,-1491,-13,-29,98
2,750,32064,-2278,-16188,-1489,-11,-15,99
2,751,32069,-2467,-16345,-1263,-15,-28,99
2,752,32074,-2558,-16391,-1157,-19,-58,97
2,753,32079,-2469,-16338,-1393,-23,-83,91
2,754,32084,-2310,-16290,-1689,-19,-77,90
2,755,32089,-2190,-16270,-1801,-17,-41,89
2,756,32094,-2160,-16264,-1702,-18,-1,90
2,757,32099,-2218,-16253,-1499,-19,20,87
2,758,32104,-2310,-16205,-1412,-22,29,83
2,759,32109,-2378,-16213,-1421,-20,26,81
2,760,32114,-2487,-16259,-1418,-19,19,81
2,761,32119,-2568,-16330,-1296,-24,8,79
2,762,32124,-2503,-16362,-1203,-28,-10,77
2,763,32129,-2413,-16336,-1250,-30,-32,74
2,764,32134,-2357,-16286,-1360,-31,-45,75
2,765,32139,-2388,-16275,-1528,-30,-51,74
2,766,32144,-2428,-16235,-1555,-29,-54,68
2,767,32149,-2481,-16249,-1472,-30,-57,64
2,768,32154,-2524,-16311,-1488,-32,-64,61
2,769,32159,-2535,-16358,-1498,-35,-67,59
2,770,32164,-2547,-16306,-1611,-34,-63,54
2,771,32169,-2560,-16283,-1721,-32,-53,53
2,772,32174,-2642,-16274,-1785,-33,-38,52
2,773,32179,-2695,-16274,-1741,-33,-23,49
2,774,32184,-2775,-16320,-1630,-34,-11,49
2,775,32189,-2806,-16325,-1548,-34,2,46
2,776,32194,-2764,-16364,-1601,-30,12,40
2,777,32199,-2708,-16359,-1725,-29,26,38
2,778,32204,-2773,-16337,-1673,-32,31,31
2,779,32209,-2751,-16326,-1590,-31,27,24
2,780,32214,-2770,-16291,-1513,-32,21,20
2,781,32219,-2789,-16264,-1592,-31,20,16
2,782,32224,-2799,-16226,-1713,-29,24,14
2,783,32229,-2794,-16174,-1751,-31,33,12
2,784,32234,-2718,-16235,-1640,-31,36,7
2,785,32239,-2637,-16279,-1535,-31,27,3
2,786,32244,-2605,-16180,-1489,-31,12,0
2,787,32249,-2622,-16117,-1589,-29,-3,-4
2,788,32254,-2677,-16125,-1709,-29,-10,-6
2,789,32259,-2611,-16112,-1769,-29,-4,-8
2,790,32264,-2527,-16024,-1703,-31,3,-10
2,791,32269,-2421,-16009,-1633,-29,10,-13
2,792,32274,-2331,-16035,-1680,-27,14,-15
2,793,32279,-2295,-15998,-1666,-26,22,-19
2,794,32284,-2391,-16049,-1544,-28,28,-22
2,795,32289,-2446,-16103,-1483,-30,31,-23
2,796,32294,-2402,-16090,-1504,-29,31,-21
2,797,32299,-2280,-16096,-1587,-28,39,-25
2,798,32304,-2262,-16085,-1614,-29,54,-29
2,799,32309,-2306,-16100,-1533,-29,59,-29
2,800,32314,-2346,-16066,-1452,-31,63,-30
2,801,32319,-2297,-16100,-1407,-31,63,-32
2,802,32324,-2374,-16165,-1355,-27,65,-32
2,803,32329,-2486,-16217,-1198,-29,66,-34
2,804,32334,-2510,-16234,-1117,-32,50,-37
2,805,32339,-2356,-16225,-1172,-35,35,-38
2,806,32344,-2236,-16301,-1210,-35,28,-39
2,807,32349,-2230,-16276,-1121,-36,13,-39
2,808,32354,-2404,-16208,-1071,-40,-11,-47
2,809,32359,-2431,-16177,-1269,-42,-39,-45
2,810,32364,-2341,-16174,-1550,-44,-54,-44
2,811,32369,-2324,-16163,-1595,-43,-47,-44
2,812,32374,-2408,-16163,-1437,-41,-44,-44
2,813,32379,-2647,-16268,-1332,-43,-54,-47
2,814,32384,-2723,-16413,-1370,-43,-69,-50
2,815,32389,-2632,-16440,-1522,-43,-72,-53
2,816,32394,-2521,-16401,-1622,-42,-56,-55
2,817,32399,-2498,-16367,-1654,-41,-34,-57
2,818,32404,-2471,-16250,-1737,-40,-20,-59
2,819,32409,-2455,-16176,-1830,-39,-7,-60
2,820,32414,-2391,-16081,-1794,-39,13,-61
2,821,32419,-2396,-15996,-1674,-34,28,-62
2,822,32424,-2448,-16042,-1535,-30,31,-59
2,823,32429,-2549,-16192,-1462,-32,24,-59
2,824,32434,-2599,-16361,-1308,-32,-6,-66
2,825,32439,-2472,-16348,-1450,-32,-19,-69
2,826,32444,-2357,-16264,-1689,-31,-22,-72
2,827,32449,-2289,-16218,-1864,-31,-9,-70
2,828,32454,-2305,-16143,-1870,-31,10,-72
2,829,32459,-2261,-16033,-1736,-29,29,-69
2,830,32464,-2242,-15988,-1643,-26,40,-67
2,831,32469,-2277,-16025,-1590,-26,38,-67
2,832,32474,-2413,-16135,-1384,-25,29,-69
2,833,32479,-2444,-16241,-1146,-27,3,-69
2,834,32484,-2383,-16281,-1055,-29,-33,-68
2,835,32489,-2225,-16280,-1191,-30,-58,-70
2,836,32494,-2154,-16228,-1335,-30,-70,-72
2,837,32499,-2194,-16195,-1393,-26,-79,-69
2,838,32504,-2214,-16154,-1337,-25,-90,-67
2,839,32509,-2294,-16213,-1304,-26,-106,-66
2,840,32514,-2385,-16294,-1370,-29,-121,-67
2,841,32519,-2387,-16298,-1548,-28,-128,-67
2,842,32524,-2422,-16299,-1700,-27,-127,-65
2,843,32529,-2345,-16245,-1828,-25,-110,-65
2,844,32534,-2279,-16193,-1866,-25,-82,-63
2,845,32539,-2197,-16152,-1826,-24,-50,-65
2,846,32544,-2190,-16074,-1759,-21,-23,-62
2,847,32549,-2278,-16058,-1677,-17,-10,-60
2,848,32554,-2361,-16053,-1578,-15,-5,-64
2,849,32559,-2468,-16061,-1455,-13,-15,-60
2,850,32564,-2473,-16113,-1444,-15,-32,-58
2,851,32569,-2305,-16111,-1541,-16,-46,-58
2,852,32574,-2219,-16058,-1608,-11,-51,-60
2,853,32579,-2240,-16050,-1614,-9,-52,-59
2,854,32584,-2311,-16039,-1601,-8,-57,-58
2,855,32589,-2367,-16047,-1560,-7,-63,-58
2,856,32594,-2433,-16147,-1556,-7,-67,-55
2,857,32599,-2450,-16194,-1473,-9,-68,-57
2,858,32604,-2425,-16231,-1496,-7,-71,-58
2,859,32609,-2358,-16205,-1550,-5,-74,-57
2,860,32614,-2331,-16155,-1642,-6,-69,-58
2,861,32619,-2310,-16118,-1649,-2,-59,-54
2,862,32624,-2279,-16129,-1607,0,-46,-51
2,863,32629,-2232,-16100,-1491,-1,-42,-50
2,864,32634,-2311,-16123,-1390,0,-42,-51
2,865,32639,-2345,-16141,-1332,-1,-48,-50
2,866,32644,-2383,-16175,-1387,2,-66,-45
2,867,32649,-2317,-16205,-1398,1,-84,-44
2,868,32654,-2248,-16124,-1425,-1,-94,-46
2,869,32659,-2229,-16109,-1459,1,-105,-47
2,870,32664,-2269,-16116,-1533,1,-109,-45
2,871,32669,-2259,-16139,-1619,0,-109,-44
2,872,32674,-2258,-16140,-1651,5,-105,-41
2,873,32679,-2328,-16200,-1602,5,-102,-39
2,874,32684,-2381,-16183,-1534,6,-99,-37
2,875,32689,-2378,-16185,-1572,7,-100,-38
2,876,32694,-2360,-16139,-1667,9,-97,-39
2,877,32699,-2324,-16102,-1799,10,-85,-36
2,878,32704,-2332,-16107,-1745,14,-69,-33
2,879,32709,-2337,-16115,-1634,14,-60,-31
2,880,32714,-2395,-16144,-1556,10,-64,-32
2,881,32719,-2453,-16141,-1589,13,-70,-32
2,882,32724,-2438,-16110,-1659,16,-70,-34
2,883,32729,-2364,-16077,-1709,18,-63,-32
2,884,32734,-2384,-16083,-1702,19,-53,-30
2,885,32739,-2360,-16115,-1633,18,-48,-28
2,886,32744,-2365,-16076,-1522,19,-51,-30
2,887,32749,-2416,-16116,-1495,20,-49,-28
2,888,32754,-2433,-16118,-1463,21,-55,-29
2,889,32759,-2445,-16151,-1453,19,-64,-27
2,890,32764,-2445,-16145,-1502,21,-73,-26
2,891,32769,-2367,-16135,-1616,20,-84,-26
2,892,32774,-2381,-16125,-1577,22,-89,-26
2,893,32779,-2369,-16112,-1595,21,-95,-24
2,894,32784,-2405,-16103,-1672,21,-101,-23
2,895,32789,-2452,-16136,-1670,23,-99,-24
2,896,32794,-2446,-16165,-1606,25,-96,-25
2,897,32799,-2418,-16204,-1626,25,-96,-21
2,898,32804,-2329,-16160,-1687,28,-83,-22
2,899,32809,-2359,-16100,-1640,28,-70,-24
2,900,32814,-2378,-16095,-1535,28,-67,-22
2,901,32819,-2445,-16121,-1449,29,-73,-19
2,902,32824,-2489,-16197,-1439,29,-78,-19
2,903,32829,-2453,-16228,-1495,26,-83,-18
2,904,32834,-2386,-16264,-1563,28,-80,-18
2,905,32839,-2420,-16233,-1607,31,-81,-16
2,906,32844,-2421,-16203,-1696,32,-78,-21
2,907,32849,-2395,-16148,-1686,32,-71,-21
2,908,32854,-2363,-16139,-1645,31,-60,-18
2,909,32859,-2362,-16152,-1575,28,-48,-19
2,910,32864,-2422,-16194,-1483,34,-43,-18
2,911,32869,-2488,-16272,-1437,35,-50,-15
2,912,32874,-2390,-16292,-1391,31,-57,-18
2,913,32879,-2328,-16289,-1423,30,-61,-18
2,914,32884,-2305,-16227,-1454,31,-65,-18
2,915,32889,-2315,-16184,-1627,31,-65,-17
2,916,32894,-2278,-16102,-1666,34,-59,-16
2,917,32899,-2243,-16043,-1682,31,-49,-13
2,918,32904,-2230,-16054,-1527,31,-41,-10
2,919,32909,-2323,-16112,-1346,31,-43,-8
2,920,32914,-2480,-16221,-1292,33,-59,-10
2,921,32919,-2521,-16285,-1304,29,-72,-12
2,922,32924,-2411,-16296,-1363,27,-79,-13
2,923,32929,-2388,-16284,-1410,30,-79,-15
2,924,32934,-2372,-16241,-1473,28,-82,-11
2,925,32939,-2345,-16186,-1615,30,-81,-9
2,926,32944,-2277,-16205,-1654,31,-74,-10
2,927,32949,-2344,-16264,-1523,28,-64,-12
2,928,32954,-2473,-16351,-1432,27,-57,-11
2,929,32959,-2517,-16403,-1421,28,-57,-9
2,930,32964,-2449,-16362,-1526,28,-53,-10
2,931,32969,-2387,-16370,-1556,28,-46,-9
2,932,32974,-2300,-16353,-1529,27,-36,-9
2,933,32979,-2274,-16278,-1447,30,-36,-9
2,934,32984,-2254,-16265,-1455,27,-35,-11
2,935,32989,-2259,-16264,-1448,29,-32,-10
2,936,32994,-2348,-16314,-1430,28,-33,-7
2,937,32999,-2378,-16322,-1326,25,-36,-8
2,938,33004,-2304,-16284,-1328,23,-50,-10
2,939,33009,-2249,-16238,-1373,21,-62,-11
2,940,33014,-2265,-16148,-1470,25,-70,-8
2,941,33019,-2240,-16136,-1564,24,-80,-7
2,942,33024,-2257,-16070,-1576,23,-90,-5
2,943,33029,-2339,-16135,-1472,25,-94,-6
2,944,33034,-2408,-16264,-1495,24,-99,-5
2,945,33039,-2315,-16311,-1505,23,-99,-7
2,946,33044,-2300,-16333,-1660,25,-88,-7
2,947,33049,-2308,-16249,-1711,27,-78,-6
2,948,33054,-2346,-16157,-1740,24,-60,-6
2,949,33059,-2327,-16092,-1768,25,-40,-6
2,950,33064,-2256,-16058,-1743,29,-19,-5
2,951,33069,-2264,-16099,-1667,30,4,-5
2,952,33074,-2322,-16171,-1534,32,23,-4
2,953,33079,-2364,-16208,-1448,29,24,-4
2,954,33084,-2357,-16197,-1392,26,18,-7
2,955,33089,-2335,-16167,-1419,26,7,-8
2,956,33094,-2296,-16096,-1480,27,0,-11
2,957,33099,-2251,-16000,-1595,27,-5,-10
2,958,33104,-2226,-15934,-1646,26,-1,-8
2,959,33109,-2198,-15955,-1596,24,6,-9
2,960,33114,-2209,-15968,-1590,28,9,-7
2,961,33119,-2236,-15995,-1517,30,10,-7
2,962,33124,-2270,-16039,-1459,27,4,-9
2,963,33129,-2234,-16126,-1369,28,-4,-6
2,964,33134,-2250,-16160,-1323,26,-7,-9
2,965,33139,-2222,-16158,-1332,24,-12,-8
2,966,33144,-2216,-16104,-1371,24,-21,-8
2,967,33149,-2169,-16008,-1406,24,-23,-7
2,968,33154,-2171,-16021,-1428,23,-22,-8
2,969,33159,-2244,-16029,-1294,21,-23,-7
2,970,33164,-2238,-16110,-1265,20,-29,-5
2,971,33169,-2227,-16323,-1196,16,-28,-7
2,972,33174,-2242,-16233,-1274,16,-31,-8
2,973,33179,-2206,-16175,-1350,14,-30,-9
2,974,33184,-2204,-16121,-1438,13,-19,-9
2,975,33189,-2136,-16072,-1464,12,-5,-7
2,976,33194,-2112,-16103,-1371,8,6,-6
2,977,33199,-2237,-16133,-1252,7,5,-3
2,978,33204,-2357,-16215,-1207,9,-5,-5
2,979,33209,-2386,-16258,-1266,6,-13,-7
2,980,33214,-2297,-16213,-1341,4,-17,-4
2,981,33219,-2182,-16137,-1443,5,-9,-4
2,982,33224,-2157,-16131,-1483,6,4,-5
2,983,33229,-2151,-16044,-1492,5,9,-5
2,984,33234,-2181,-15959,-1505,4,14,-5
2,985,33239,-2164,-15971,-1511,3,17,-4
2,986,33244,-2263,-16014,-1422,5,9,-5
2,987,33249,-2325,-16086,-1292,4,1,-5
2,988,33254,-2372,-16173,-1163,1,-15,-2
2,989,33259,-2326,-16234,-1168,-1,-27,-4
2,990,33264,-2182,-16230,-1307,-1,-30,-6
2,991,33269,-2094,-16247,-1372,-2,-18,-7
2,992,33274,-2165,-16205,-1382,-3,-12,-6
2,993,33279,-2225,-16155,-1321,-4,-17,-6
2,994,33284,-2271,-16214,-1336,-6,-25,-6
2,995,33289,-2387,-16248,-1370,-7,-35,-7
2,996,33294,-2467,-16369,-1380,-7,-41,-6
2,997,33299,-2501,-16419,-1406,-11,-41,-5
2,998,33304,-2327,-16399,-1515,-11,-33,-5
2,999,33309,-2273,-16375,-1626,-11,-11,-7
3,0,52659,-2651,-16294,-1966,-4,-214,-77
3,1,52664,-2697,-16259,-2264,-2,-172,-73
3,2,52669,-2767,-16230,-2375,-2,-119,-68
3,3,52674,-2781,-16230,-2219,0,-61,-67
3,4,52679,-2649,-16191,-2168,2,0,-65
3,5,52684,-2464,-16201,-2259,7,63,-62
3,6,52689,-2437,-16274,-2110,11,124,-63
3,7,52694,-2573,-16237,-1760,11,153,-66
3,8,52699,-2757,-16201,-1504,10,154,-69
3,9,52704,-2658,-16212,-1532,7,140,-69
3,10,52709,-2415,-16171,-1621,8,140,-69
3,11,52714,-2206,-16212,-1531,10,154,-65
3,12,52719,-2121,-16219,-1350,8,160,-64
3,13,52724,-2181,-16228,-1145,7,140,-65
3,14,52729,-2200,-16150,-1141,6,99,-68
3,15,52734,-2149,-16098,-1213,5,64,-63
3,16,52739,-2037,-16126,-1182,1,41,-58
3,17,52744,-1978,-16108,-1081,-1,17,-53
3,18,52749,-1928,-16149,-1047,-3,-22,-50
3,19,52754,-1918,-16172,-1171,-5,-67,-47
3,20,52759,-1935,-16219,-1332,-9,-98,-46
3,21,52764,-2073,-16279,-1359,-10,-109,-41
3,22,52769,-2073,-16318,-1335,-13,-107,-35
3,23,52774,-2089,-16324,-1291,-14,-103,-31
3,24,52779,-2109,-16344,-1417,-13,-97,-32
3,25,52784,-2136,-16275,-1560,-12,-96,-32
3,26,52789,-2229,-16287,-1595,-11,-90,-32
3,27,52794,-2371,-16392,-1634,-13,-77,-32
3,28,52799,-2301,-16408,-1584,-15,-58,-30
3,29,52804,-2236,-16346,-1512,-13,-36,-27
3,30,52809,-2162,-16294,-1598,-12,-13,-27
3,31,52814,-2157,-16263,-1681,-11,0,-29
3,32,52819,-2188,-16201,-1621,-8,2,-33
3,33,52824,-2190,-16164,-1454,-11,0,-31
3,34,52829,-2272,-16227,-1385,-9,-6,-30
3,35,52834,-2348,-16256,-1431,-7,-13,-32
3,36,52839,-2345,-16223,-1371,-12,-25,-31
3,37,52844,-2277,-16186,-1413,-9,-38,-28
3,38,52849,-2160,-16173,-1565,-5,-44,-26
3,39,52854,-2048,-16162,-1578,-5,-40,-26
3,40,52859,-2008,-16105,-1468,-7,-48,-26
3,41,52864,-2050,-16138,-1323,-7,-61,-24
3,42,52869,-2111,-16104,-1435,-7,-74,-25
3,43,52874,-2147,-16177,-1554,-4,-84,-22
3,44,52879,-2152,-16260,-1534,-4,-77,-22
3,45,52884,-2133,-16314,-1367,-6,-69,-23
3,46,52889,-2180,-16333,-1353,-2,-70,-24
3,47,52894,-2167,-16278,-1547,-2,-64,-27
3,48,52899,-2165,-16268,-1784,1,-44,-27
3,49,52904,-2171,-16266,-1793,2,-13,-24
3,50,52909,-2173,-16265,-1698,3,18,-26
3,51,52914,-2086,-16247,-1602,6,42,-23
3,52,52919,-2069,-16236,-1577,8,65,-25
3,53,52924,-2135,-16263,-1677,12,81,-27
3,54,52929,-2165,-16185,-1540,14,90,-26
3,55,52934,-2168,-16157,-1254,11,86,-25
3,56,52939,-2197,-16102,-1005,13,74,-24
3,57,52944,-2193,-16063,-948,14,53,-26
3,58,52949,-2150,-16145,-1139,13,28,-23
3,59,52954,-2067,-16166,-1262,13,-3,-25
3,60,52959,-2087,-16189,-1137,10,-42,-27
3,61,52964,-2159,-16123,-1083,8,-90,-30
3,62,52969,-2242,-16139,-1272,12,-128,-28
3,63,52974,-2221,-16141,-1617,14,-140,-24
3,64,52979,-2215,-16226,-1738,15,-125,-23
3,65,52984,-2363,-16412,-1509,17,-109,-25
3,66,52989,-2465,-16437,-1411,16,-107,-28
3,67,52994,-2471,-16335,-1700,17,-100,-34
3,68,52999,-2144,-16242,-2146,27,9,-31
3,69,53004,-2147,-16218,-1852,30,65,-28
3,70,53009,-2168,-16271,-1572,33,89,-31
3,71,53014,-2147,-16266,-1496,35,103,-32
3,72,53019,-2213,-16237,-1575,37,115,-31
3,73,53024,-2355,-16243,-1543,42,118,-29
3,74,53029,-2389,-16191,-1373,40,117,-29
3,75,53034,-2290,-16153,-1292,38,100,-32
3,76,53039,-2060,-16138,-1326,39,89,-30
3,77,53044,-1936,-16193,-1350,41,87,-32
3,78,53049,-1990,-16205,-1251,46,82,-32
3,79,53054,-2092,-16169,-1214,46,65,-34
3,80,53059,-2163,-16168,-1198,47,38,-32
3,81,53064,-2126,-16195,-1183,42,19,-33
3,82,53069,-1992,-16218,-1176,42,8,-29
3,83,53074,-1989,-16246,-1156,46,-1,-29
3,84,53079,-2009,-16155,-1273,44,-11,-28
3,85,53084,-2016,-16182,-1394,46,-19,-29
3,86,53089,-1905,-16151,-1516,46,-21,-23
3,87,53094,-1882,-16162,-1431,46,-12,-21
3,88,53099,-2122,-16249,-1352,45,-8,-24
3,89,53104,-2252,-16359,-1409,45,-9,-26
3,90,53109,-2301,-16356,-1490,49,-2,-24
3,91,53114,-2220,-16302,-1617,50,23,-22
3,92,53119,-2187,-16310,-1505,50,55,-22
3,93,53124,-2109,-16327,-1431,50,74,-23
3,94,53129,-2200,-16311,-1379,54,84,-23
3,95,53134,-2320,-16351,-1370,53,83,-23
3,96,53139,-2321,-16350,-1228,50,84,-24
3,97,53144,-2196,-16325,-1194,49,88,-25
3,98,53149,-2039,-16259,-1225,52,90,-27
3,99,53154,-2028,-16290,-1269,50,86,-22
3,100,53159,-2069,-16226,-1217,53,66,-20
3,101,53164,-2112,-16266,-1107,51,42,-23
3,102,53169,-2122,-16230,-1076,50,27,-21
3,103,53174,-2035,-16279,-1236,52,24,-18
3,104,53179,-2090,-16284,-1296,50,21,-18
3,105,53184,-2033,-16327,-1296,47,18,-20
3,106,53189,-1996,-16330,-1229,46,6,-18
3,107,53194,-1965,-16255,-1075,46,-7,-18
3,108,53199,-1943,-16223,-1228,44,-17,-18
3,109,53204,-2004,-16203,-1335,46,-21,-12
3,110,53209,-2064,-16238,-1239,44,-23,-9
3,111,53214,-2144,-16326,-1150,43,-29,-8
3,112,53219,-2079,-16365,-1036,41,-32,-10
3,113,53224,-2041,-16312,-1077,39,-36,-11
3,114,53229,-2050,-16215,-1215,39,-36,-10
3,115,53234,-1974,-16243,-1351,39,-33,-9
3,116,53239,-2033,-16261,-1354,34,-28,-7
3,117,53244,-2048,-16292,-1256,33,-30,-8
3,118,53249,-2018,-16242,-1299,35,-30,-7
3,119,53254,-1980,-16238,-1436,38,-16,-2
3,120,53259,-2044,-16162,-1452,36,3,-2
3,121,53264,-2123,-16096,-1419,34,13,-2
3,122,53269,-2001,-16112,-1380,36,13,1
3,123,53274,-1958,-16126,-1252,34,17,3
3,124,53279,-1976,-16157,-1134,35,13,4
3,125,53284,-2066,-16212,-1198,34,6,2
3,126,53289,-2084,-16178,-1266,36,-2,8
3,127,53294,-2074,-16124,-1279,34,-10,8
3,128,53299,-2050,-16086,-1253,32,-25,7
3,129,53304,-1997,-16036,-1211,30,-41,11
3,130,53309,-2004,-15976,-1238,29,-51,13
3,131,53314,-2075,-15929,-1359,32,-57,11
3,132,53319,-2158,-16044,-1391,30,-60,13
3,133,53324,-2331,-16278,-1278,27,-66,15
3,134,53329,-2253,-16455,-1194,26,-70,14
3,135,53334,-2089,-16433,-1306,25,-63,13
3,136,53339,-2004,-16369,-1482,27,-40,11
3,137,53344,-2095,-16299,-1617,28,-7,12
3,138,53349,-2178,-16193,-1564,30,25,14
3,139,53354,-2076,-16179,-1501,29,48,17
3,140,53359,-1873,-16173,-1456,27,65,19
3,141,53364,-1953,-16039,-1288,30,77,21
3,142,53369,-2042,-15810,-1193,27,58,23
3,143,53374,-1980,-15766,-1192,24,38,25
3,144,53379,-1877,-15883,-1247,26,15,28
3,145,53384,-2007,-16059,-1093,26,-19,27
3,146,53389,-2292,-16184,-862,22,-67,16
3,147,53394,-2422,-16244,-974,18,-122,19
3,148,53399,-2373,-16230,-1223,19,-143,20
3,149,53404,-2251,-16278,-1389,21,-125,25
3,150,53409,-2153,-16355,-1419,23,-95,29
3,151,53414,-2083,-16386,-1391,21,-77,25
3,152,53419,-2060,-16401,-1387,18,-70,21
3,153,53424,-2176,-16429,-1327,18,-61,19
3,154,53429,-2381,-16358,-1274,19,-49,19
3,155,53434,-2459,-16385,-1305,19,-29,25
3,156,53439,-2325,-16348,-1373,17,-11,30
3,157,53444,-2142,-16372,-1328,19,12,31
3,158,53449,-2059,-16374,-1185,19,24,29
3,159,53454,-2129,-16301,-1043,17,14,22
3,160,53459,-2257,-16230,-1089,18,-11,18
3,161,53464,-2319,-16149,-1313,20,-29,21
3,162,53469,-2238,-16177,-1349,18,-30,27
3,163,53474,-2210,-16180,-1239,17,-24,27
3,164,53479,-2228,-16169,-1026,16,-30,26
3,165,53484,-2167,-16151,-1201,17,-50,24
3,166,53489,-2140,-16180,-1404,19,-60,24
3,167,53494,-2158,-16154,-1414,20,-58,23
3,168,53499,-2290,-16208,-1166,15,-58,25
3,169,53504,-2357,-16333,-1145,16,-66,27
3,170,53509,-2350,-16370,-1252,18,-69,24
3,171,53514,-2376,-16389,-1318,17,-55,23
3,172,53519,-2342,-16328,-1350,20,-30,24
3,173,53524,-2251,-16319,-1313,20,-4,26
3,174,53529,-2179,-16300,-1275,21,22,26
3,175,53534,-2173,-16301,-1143,20,46,27
3,176,53539,-2177,-16347,-1076,21,58,27
3,177,53544,-2279,-16301,-1008,21,60,22
3,178,53549,-2290,-16321,-922,18,58,23
3,179,53554,-2289,-16286,-929,16,55,23
3,180,53559,-2207,-16335,-931,16,52,25
3,181,53564,-2105,-16350,-929,15,44,26
3,182,53569,-2051,-16355,-915,14,27,22
3,183,53574,-2064,-16317,-938,12,5,22
3,184,53579,-2118,-16268,-1055,9,-11,22
3,185,53584,-2163,-16266,-1109,7,-16,21
3,186,53589,-2202,-16307,-1121,10,-16,25
3,187,53594,-2179,-16382,-1115,8,-13,26
3,188,53599,-2190,-16346,-1093,6,-12,26
3,189,53604,-2211,-16279,-1104,5,-17,24
3,190,53609,-2163,-16221,-1235,6,-18,24
3,191,53614,-2122,-16198,-1304,6,-12,25
3,192,53619,-2114,-16198,-1241,12,-9,28
3,193,53624,-2137,-16190,-1126,10,-14,25
3,194,53629,-2209,-16192,-1113,7,-26,22
3,195,53634,-2276,-16214,-1235,6,-37,20
3,196,53639,-2355,-16333,-1266,6,-42,23
3,197,53644,-2449,-16438,-1165,5,-41,24
3,198,53649,-2425,-16467,-1195,2,-36,19
3,199,53654,-2253,-16413,-1277,6,-21,20
3,200,53659,-2187,-16293,-1445,9,3,22
3,201,53664,-2188,-16268,-1513,11,29,21
3,202,53669,-2251,-16268,-1353,7,45,17
3,203,53674,-2313,-16260,-1273,4,47,19
3,204,53679,-2277,-16251,-1225,7,47,19
3,205,53684,-2336,-16308,-1137,6,52,19
3,206,53689,-2472,-16375,-1065,8,47,19
3,207,53694,-2482,-16393,-1011,7,37,16
3,208,53699,-2360,-16348,-1135,3,25,14
3,209,53704,-2182,-16268,-1243,2,30,11
3,210,53709,-2080,-16266,-1232,4,37,10
3,211,53714,-2184,-16216,-1182,5,31,12
3,212,53719,-2289,-16168,-1202,2,19,11
3,213,53724,-2265,-16151,-1267,2,13,12
3,214,53729,-2191,-16139,-1061,0,24,13
3,215,53734,-2206,-16147,-1017,0,20,13
3,216,53739,-2175,-16195,-1076,0,7,10
3,217,53744,-2079,-16202,-1183,-4,-6,10
3,218,53749,-2082,-16150,-1176,-5,-20,7
3,219,53754,-2121,-16103,-1213,-7,-29,5
3,220,53759,-2167,-16047,-1295,-7,-36,7
3,221,53764,-2182,-16066,-1390,-7,-38,7
3,222,53769,-2201,-16111,-1388,-6,-24,6
3,223,53774,-2237,-16204,-1327,-6,-6,7
3,224,53779,-2259,-16237,-1224,-9,5,4
3,225,53784,-2261,-16257,-1235,-7,9,6
3,226,53789,-2246,-16239,-1353,-5,17,5
3,227,53794,-2249,-16217,-1366,-6,32,5
3,228,53799,-2221,-16231,-1276,-4,41,4
3,229,53804,-2250,-16221,-1274,-6,40,5
3,230,53809,-2226,-16242,-1226,-5,40,5
3,231,53814,-2281,-16256,-1159,-4,43,4
3,232,53819,-2364,-16281,-1118,-7,45,5
3,233,53824,-2388,-16332,-1065,-7,45,2
3,234,53829,-2275,-16297,-1088,-6,42,1
3,235,53834,-2131,-16293,-1139,-12,38,1
3,236,53839,-2127,-16273,-1143,-12,37,0
3,237,53844,-2156,-16224,-1131,-10,29,-3
3,238,53849,-2195,-16215,-1207,-11,16,-1
3,239,53854,-2164,-16199,-1205,-13,10,0
3,240,53859,-2202,-16182,-1211,-14,12,-1
3,241,53864,-2312,-16252,-1180,-14,11,0
3,242,53869,-2301,-16261,-1143,-14,4,0
3,243,53874,-2227,-16245,-1241,-17,-1,-2
3,244,53879,-2170,-16252,-1273,-14,-4,-5
3,245,53884,-2166,-16216,-1304,-13,-1,-2
3,246,53889,-2225,-16185,-1297,-15,1,-1
3,247,53894,-2200,-16181,-1305,-14,1,-1
3,248,53899,-2215,-16165,-1363,-14,4,-3
3,249,53904,-2254,-16233,-1266,-13,11,-2
3,250,53909,-2348,-16378,-1134,-12,14,3
3,251,53914,-2361,-16474,-1128,-14,19,-2
3,252,53919,-2292,-16395,-1265,-14,21,-5
3,253,53924,-2235,-16315,-1338,-13,33,-4
3,254,53929,-2193,-16246,-1299,-15,48,-5
3,255,53934,-2208,-16176,-1257,-17,56,-8
3,256,53939,-2215,-16179,-1282,-15,56,-6
3,257,53944,-2225,-16233,-1265,-15,56,-5
3,258,53949,-2226,-16222,-1148,-17,58,-6
3,259,53954,-2290,-16234,-974,-16,55,-4
3,260,53959,-2302,-16250,-877,-18,44,-6
3,261,53964,-2200,-16291,-882,-20,26,-10
3,262,53969,-2135,-16250,-896,-19,5,-10
3,263,53974,-2149,-16226,-899,-23,-19,-9
3,264,53979,-2131,-16188,-1044,-24,-47,-10
3,265,53984,-2082,-16102,-1323,-23,-70,-8
3,266,53989,-2045,-16069,-1438,-24,-74,-6
3,267,53994,-2095,-16145,-1398,-22,-64,-4
3,268,53999,-2155,-16182,-1298,-22,-55,-3
3,269,54004,-2282,-16250,-1379,-23,-48,-5
3,270,54009,-2314,-16331,-1455,-21,-31,-5
3,271,54014,-2312,-16293,-1573,-20,-7,-6
3,272,54019,-2243,-16204,-1600,-18,17,-5
3,273,54024,-2274,-16175,-1546,-16,42,-5
3,274,54029,-2308,-16158,-1490,-17,58,-6
3,275,54034,-2248,-16170,-1462,-16,73,-3
3,276,54039,-2278,-16152,-1359,-10,84,-1
3,277,54044,-2339,-16155,-1121,-10,91,-4
3,278,54049,-2431,-16256,-938,-15,83,-6
3,279,54054,-2382,-16322,-921,-15,63,-5
3,280,54059,-2278,-16346,-939,-15,46,-7
3,281,54064,-2178,-16304,-920,-18,30,-11
3,282,54069,-2167,-16280,-950,-14,13,-11
3,283,54074,-2206,-16172,-1121,-15,-7,-8
3,284,54079,-2139,-16161,-1232,-14,-16,-8
3,285,54084,-2132,-16158,-1261,-16,-14,-7
3,286,54089,-2100,-16155,-1183,-17,-10,-6
3,287,54094,-2151,-16143,-1133,-17,-12,-5
3,288,54099,-2160,-16280,-1138,-17,-22,-4
3,289,54104,-2154,-16302,-1084,-16,-21,-1
3,290,54109,-2174,-16242,-1144,-17,-25,-2
3,291,54114,-2200,-16206,-1232,-17,-29,-5
3,292,54119,-2232,-16102,-1304,-17,-32,-3
3,293,54124,-2174,-16126,-1407,-14,-26,-2
3,294,54129,-2189,-16128,-1393,-14,-13,-3
3,295,54134,-2258,-16185,-1253,-13,-3,-1
3,296,54139,-2378,-16272,-1117,-15,1,-1
3,297,54144,-2541,-16336,-1097,-17,-2,-2
3,298,54149,-2549,-16373,-1230,-12,-4,-7
3,299,54154,-2387,-16345,-1397,-12,6,-6
3,300,54159,-2266,-16261,-1532,-10,20,-5
3,301,54164,-2238,-16250,-1509,-8,31,-7
3,302,54169,-2313,-16232,-1481,-9,35,-8
3,303,54174,-2350,-16187,-1485,-7,42,-7
3,304,54179,-2329,-16221,-1453,-5,55,-6
3,305,54184,-2306,-16160,-1359,-1,74,-3
3,306,54189,-2282,-16189,-1204,-1,83,-4
3,307,54194,-2278,-16237,-1113,-2,69,-6
3,308,54199,-2197,-16178,-1072,0,48,-6
3,309,54204,-2176,-16127,-1073,-3,24,-9
3,310,54209,-2167,-16059,-1146,-3,2,-7
3,311,54214,-2173,-16004,-1253,-4,-13,-7
3,312,54219,-2164,-16042,-1264,-2,-29,-4
3,313,54224,-2259,-16167,-1213,-1,-37,-5
3,314,54229,-2328,-16295,-1232,-3,-45,-6
3,315,54234,-2267,-16334,-1290,-2,-42,-9
3,316,54239,-2162,-16295,-1351,0,-20,-6
3,317,54244,-2154,-16267,-1450,1,11,-8
3,318,54249,-2177,-16172,-1463,2,38,-6
3,319,54254,-2271,-16142,-1315,3,52,-7
3,320,54259,-2300,-16159,-1257,2,58,-6
3,321,54264,-2242,-16200,-1178,3,59,-5
3,322,54269,-2261,-16232,-1082,3,56,-6
3,323,54274,-2287,-16246,-1098,2,51,-3
3,324,54279,-2259,-16206,-1163,5,37,-2
3,325,54284,-2167,-16096,-1165,4,26,-2
3,326,54289,-2106,-16067,-1155,3,18,-5
3,327,54294,-2170,-16129,-1145,3,7,-6
3,328,54299,-2289,-16217,-1148,3,-10,-4
3,329,54304,-2256,-16272,-1179,0,-20,-6
3,330,54309,-2186,-16268,-1266,1,-23,-6
3,331,54314,-2097,-16216,-1355,2,-13,-5
3,332,54319,-2115,-16194,-1435,1,4,-7
3,333,54324,-2159,-16202,-1429,6,18,-3
3,334,54329,-2146,-16188,-1411,7,31,-1
3,335,54334,-2248,-16199,-1419,5,41,-4
3,336,54339,-2220,-16172,-1312,4,50,-3
3,337,54344,-2216,-16139,-1169,5,57,0
3,338,54349,-2194,-16147,-1154,5,54,0
3,339,54354,-2207,-16211,-1149,5,45,-1
3,340,54359,-2248,-16229,-1074,4,31,-3
3,341,54364,-2277,-16209,-1053,3,12,-4
3,342,54369,-2235,-16179,-1150,3,-7,-5
3,343,54374,-2174,-16157,-1238,1,-15,-3
3,344,54379,-2174,-16167,-1283,4,-16,1
3,345,54384,-2203,-16174,-1274,3,-19,-1
3,346,54389,-2200,-16181,-1246,1,-22,-1
3,347,54394,-2213,-16194,-1236,1,-31,-2
3,348,54399,-2284,-16187,-1206,0,-39,-3
3,349,54404,-2350,-16190,-1268,-1,-50,-3
3,350,54409,-2359,-16203,-1314,-1,-64,-2
3,351,54414,-2359,-16176,-1293,-1,-71,-4
3,352,54419,-2381,-16143,-1273,-4,-79,-4
3,353,54424,-2444,-16123,-1312,-1,-87,-6
3,354,54429,-2437,-16109,-1456,0,-87,-1
3,355,54434,-2395,-16028,-1574,0,-79,-1
3,356,54439,-2358,-16067,-1559,-1,-61,3
3,357,54444,-2508,-16101,-1504,-3,-46,3
3,358,54449,-2500,-16022,-1496,-4,-38,3
3,359,54454,-2221,-15976,-1666,0,-16,9
3,360,54459,-2044,-16010,-1599,2,27,11
3,361,54464,-2455,-16043,-1147,5,68,13
3,362,54469,-2550,-16143,-1186,3,45,17
3,363,54474,-2405,-16190,-1225,-1,33,20
3,364,54479,-2225,-16234,-963,-5,30,26
3,365,54484,-2269,-16251,-656,-6,18,30
3,366,54489,-2402,-16290,-668,-10,-19,32
3,367,54494,-2563,-16189,-868,-12,-67,35
3,368,54499,-2647,-16127,-1234,-13,-103,43
3,369,54504,-2775,-16119,-1439,-19,-125,54
3,370,54509,-2608,-16156,-1449,-23,-133,63
3,371,54514,-2461,-16171,-1468,-24,-120,67
3,372,54519,-2549,-16212,-1728,-20,-98,74
3,373,54524,-2978,-16143,-1972,-18,-64,77
3,374,54529,-3069,-16181,-2021,-18,-23,86
3,375,54534,-3096,-16134,-2030,-21,31,101
3,376,54539,-3008,-16112,-2051,-19,97,112
3,377,54544,-2876,-16192,-2215,-11,171,123
3,378,54549,-2742,-16260,-2161,-9,249,131
3,379,54554,-2676,-16205,-1963,-8,305,139
3,380,54559,-2837,-16268,-1519,-9,337,145
3,381,54564,-3061,-16253,-1221,-13,345,152
3,382,54569,-3012,-16259,-1048,-19,345,170
3,383,54574,-2972,-16243,-1044,-17,334,181
3,384,54579,-2978,-16263,-721,-17,307,191
3,385,54584,-3135,-16183,-580,-30,248,199
3,386,54589,-3046,-16204,-569,-39,171,209
3,387,54594,-2918,-16122,-722,-46,104,226
3,388,54599,-2869,-16181,-922,-51,64,242
3,389,54604,-3052,-16088,-1188,-55,37,257
3,390,54609,-3050,-16077,-1522,-62,27,275
3,391,54614,-2977,-15948,-1846,-65,43,296
3,392,54619,-2865,-15969,-1858,-67,82,314
3,393,54624,-3055,-15900,-1688,-71,121,327
3,394,54629,-3190,-16013,-1719,-71,150,342
3,395,54634,-3389,-15963,-1890,-74,177,358
3,396,54639,-3237,-15914,-1940,-76,216,379
3,397,54644,-3354,-15765,-1797,-78,259,395
3,398,54649,-3365,-15798,-1581,-79,291,410
3,399,54654,-3402,-15738,-1540,-83,295,425
3,400,54659,-3365,-15705,-1554,-85,291,439
3,401,54664,-3540,-15689,-1592,-89,293,453
3,402,54669,-3615,-15750,-1604,-93,290,467
3,403,54674,-3435,-15734,-1601,-99,279,485
3,404,54679,-3363,-15751,-1470,-104,271,502
3,405,54684,-3379,-15732,-1253,-109,256,517
3,406,54689,-3633,-15675,-1119,-114,228,529
3,407,54694,-3758,-15632,-1184,-119,183,547
3,408,54699,-3883,-15657,-1381,-125,140,562
3,409,54704,-3869,-15610,-1565,-130,106,577
3,410,54709,-3915,-15599,-1778,-133,82,595
3,411,54714,-3958,-15573,-2093,-136,80,611
3,412,54719,-3917,-15608,-2513,-137,106,625
3,413,54724,-3919,-15674,-2638,-137,155,639
3,414,54729,-4054,-15749,-2462,-139,210,651
3,415,54734,-4266,-15754,-2188,-137,255,663
3,416,54739,-4406,-15773,-2171,-136,284,676
3,417,54744,-4479,-15770,-2235,-135,303,687
3,418,54749,-4437,-15721,-2109,-136,322,698
3,419,54754,-4531,-15692,-1960,-142,325,707
3,420,54759,-4666,-15716,-1861,-144,311,712
3,421,54764,-4734,-15713,-1946,-145,292,721
3,422,54769,-4781,-15675,-2172,-145,280,729
3,423,54774,-4831,-15668,-2360,-144,281,736
3,424,54779,-4834,-15574,-2408,-147,291,743
3,425,54784,-4804,-15617,-2397,-146,309,750
3,426,54789,-4801,-15633,-2333,-147,329,755
3,427,54794,-4825,-15668,-2231,-145,337,759
3,428,54799,-4945,-15643,-2062,-144,325,761
3,429,54804,-5105,-15626,-1977,-146,292,763
3,430,54809,-5186,-15625,-1940,-151,252,762
3,431,54814,-5177,-15587,-2014,-152,213,767
3,432,54819,-5161,-15624,-2149,-151,185,766
3,433,54824,-5291,-15639,-2263,-153,162,764
3,434,54829,-5469,-15628,-2465,-152,139,765
3,435,54834,-5360,-15552,-3025,-149,151,760
3,436,54839,-5302,-15607,-3037,-144,191,757
3,437,54844,-5400,-15573,-2947,-137,235,752
3,438,54849,-5588,-15576,-2982,-130,275,747
3,439,54854,-5565,-15602,-3094,-128,314,742
3,440,54859,-5476,-15588,-3020,-128,362,734
3,441,54864,-5392,-15577,-2758,-124,414,726
3,442,54869,-5328,-15522,-2462,-117,442,719
3,443,54874,-5326,-15565,-2326,-115,448,713
3,444,54879,-5341,-15607,-2286,-114,438,702
3,445,54884,-5386,-15576,-2146,-112,422,692
3,446,54889,-5349,-15543,-1975,-115,402,681
3,447,54894,-5228,-15518,-1934,-117,382,673
3,448,54899,-5105,-15525,-1985,-115,368,666
3,449,54904,-5053,-15613,-2041,-113,358,654
3,450,54909,-5049,-15675,-1944,-115,339,644
3,451,54914,-5104,-15618,-1746,-117,303,629
3,452,54919,-5189,-15637,-1640,-117,263,616
3,453,54924,-5296,-15618,-1795,-114,229,605
3,454,54929,-5313,-15698,-1969,-113,209,595
3,455,54934,-5336,-15764,-2105,-114,199,585
3,456,54939,-5327,-15797,-2169,-112,189,571
3,457,54944,-5284,-15763,-2301,-112,189,558
3,458,54949,-5227,-15720,-2520,-106,205,544
3,459,54954,-5294,-15710,-2672,-101,242,534
3,460,54959,-5419,-15704,-2771,-97,289,520
3,461,54964,-5414,-15642,-2727,-94,336,508
3,462,54969,-5354,-15620,-2684,-88,380,496
3,463,54974,-5246,-15670,-2543,-83,423,478
3,464,54979,-5259,-15646,-2350,-78,457,459
3,465,54984,-5321,-15578,-2270,-77,471,440
3,466,54989,-5330,-15489,-2177,-73,467,425
3,467,54994,-5315,-15490,-2081,-69,450,411
3,468,54999,-5267,-15469,-1905,-70,423,393
3,469,55004,-5208,-15475,-1723,-67,383,379
3,470,55009,-5171,-15445,-1687,-65,335,360
3,471,55014,-5141,-15387,-1824,-61,290,342
3,472,55019,-5183,-15358,-1926,-61,248,325
3,473,55024,-5246,-15380,-1932,-61,205,311
3,474,55029,-5176,-15373,-1967,-60,163,291
3,475,55034,-5089,-15303,-2124,-59,129,275
3,476,55039,-5121,-15282,-2272,-55,107,255
3,477,55044,-5215,-15328,-2376,-51,101,237
3,478,55049,-5301,-15340,-2473,-49,97,223
3,479,55054,-5277,-15359,-2596,-42,103,208
3,480,55059,-5173,-15379,-2676,-34,119,192
3,481,55064,-5176,-15299,-2743,-26,141,175
3,482,55069,-5283,-15253,-2727,-23,163,153
3,483,55074,-5407,-15245,-2719,-18,178,137
3,484,55079,-5348,-15213,-2808,-12,202,116
3,485,55084,-5222,-15224,-2825,-4,235,96
3,486,55089,-5151,-15219,-2684,7,271,82
3,487,55094,-5089,-15164,-2560,14,290,63
3,488,55099,-5182,-15107,-2327,17,288,41
3,489,55104,-5261,-15117,-2292,22,270,21
3,490,55109,-5209,-15105,-2322,23,247,3
3,491,55114,-5071,-15097,-2201,30,233,-13
3,492,55119,-4967,-15087,-1984,35,213,-29
3,493,55124,-5041,-15121,-1953,40,185,-48
3,494,55129,-5119,-15194,-2122,45,146,-66
3,495,55134,-5074,-15179,-2298,47,111,-83
3,496,55139,-4969,-15183,-2223,50,86,-100
3,497,55144,-4901,-15144,-2134,51,62,-122
3,498,55149,-4871,-15141,-2253,55,40,-139
3,499,55154,-4840,-15111,-2413,62,27,-154
3,500,55159,-4878,-15115,-2467,67,21,-167
3,501,55164,-4885,-15199,-2371,71,12,-184
3,502,55169,-4873,-15234,-2343,73,-3,-202
3,503,55174,-4894,-15257,-2372,73,-13,-220
3,504,55179,-4926,-15208,-2416,82,-21,-237
3,505,55184,-5010,-15146,-2555,88,-25,-254
3,506,55189,-4998,-15134,-2667,92,-17,-268
3,507,55194,-4967,-15200,-2632,99,-7,-283
3,508,55199,-4848,-15266,-2580,109,19,-320
3,509,55204,-4917,-15287,-2686,118,33,-336
3,510,55209,-4909,-15332,-2756,126,49,-350
3,511,55214,-4774,-15308,-2588,128,65,-365
3,512,55219,-4756,-15266,-2119,132,69,-380
3,513,55224,-4738,-15196,-1920,137,57,-396
3,514,55229,-4722,-15311,-2010,141,36,-412
3,515,55234,-4662,-15289,-2114,146,7,-425
3,516,55239,-4593,-15361,-1905,145,-31,-436
3,517,55244,-4613,-15399,-1670,146,-88,-450
3,518,55249,-4585,-15381,-1585,143,-154,-467
3,519,55254,-4589,-15342,-1802,147,-213,-482
3,520,55259,-4608,-15352,-2095,153,-258,-496
3,521,55264,-4691,-15382,-2212,153,-296,-506
3,522,55269,-4714,-15452,-2222,151,-330,-520
3,523,55274,-4708,-15448,-2386,153,-352,-533
3,524,55279,-4608,-15426,-2624,159,-356,-548
3,525,55284,-4590,-15350,-2776,166,-334,-560
3,526,55289,-4723,-15378,-2956,176,-295,-568
3,527,55294,-4790,-15394,-3113,179,-256,-581
3,528,55299,-4799,-15372,-3041,182,-216,-591
3,529,55304,-4680,-15316,-3020,190,-171,-601
3,530,55309,-4547,-15294,-2999,198,-123,-611
3,531,55314,-4538,-15310,-2939,207,-76,-621
3,532,55319,-4543,-15384,-2801,215,-39,-634
3,533,55324,-4520,-15438,-2505,218,-17,-642
3,534,55329,-4474,-15476,-2264,224,-15,-652
3,535,55334,-4490,-15547,-2030,230,-29,-665
3,536,55339,-4536,-15581,-1909,236,-52,-672
3,537,55344,-4593,-15571,-2014,236,-83,-684
3,538,55349,-4475,-15504,-2093,238,-111,-691
3,539,55354,-4363,-15472,-2058,240,-128,-698
3,540,55359,-4246,-15452,-1987,242,-146,-706
3,541,55364,-4264,-15479,-1854,243,-171,-715
3,542,55369,-4249,-15500,-1855,243,-207,-725
3,543,55374,-4316,-15489,-2027,246,-239,-731
3,544,55379,-4321,-15484,-2252,250,-259,-734
3,545,55384,-4222,-15482,-2342,251,-257,-735
3,546,55389,-4053,-15538,-2348,251,-244,-741
3,547,55394,-4051,-15615,-2330,254,-224,-748
3,548,55399,-4155,-15683,-2404,260,-202,-756
3,549,55404,-4209,-15737,-2398,263,-179,-760
3,550,55409,-4166,-15792,-2380,269,-146,-763
3,551,55414,-4044,-15845,-2237,273,-106,-766
3,552,55419,-4005,-15975,-2031,274,-76,-771
3,553,55424,-4085,-16032,-1823,277,-68,-775
3,554,55429,-4168,-16028,-1730,281,-72,-781
3,555,55434,-4172,-15967,-1725,279,-78,-786
3,556,55439,-3985,-15960,-1701,279,-82,-788
3,557,55444,-3810,-16010,-1620,281,-78,-790
3,558,55449,-3754,-16072,-1465,281,-83,-791
3,559,55454,-3802,-16164,-1349,278,-110,-794
3,560,55459,-3757,-16138,-1469,274,-142,-797
3,561,55464,-3528,-16116,-1666,274,-163,-799
3,562,55469,-3420,-16138,-1608,277,-162,-796
3,563,55474,-3522,-16222,-1460,273,-156,-795
3,564,55479,-3568,-16352,-1312,271,-167,-796
3,565,55484,-3495,-16496,-1243,271,-181,-795
3,566,55489,-3352,-16662,-1202,269,-184,-795
3,567,55494,-3266,-16788,-1059,264,-186,-797
3,568,55499,-3331,-16814,-966,265,-195,-796
3,569,55504,-3356,-16752,-1052,260,-217,-793
3,570,55509,-3308,-16741,-1179,256,-231,-792
3,571,55514,-3200,-16704,-1137,253,-238,-788
3,572,55519,-3105,-16697,-1076,250,-241,-786
3,573,55524,-3055,-16698,-1046,248,-251,-782
3,574,55529,-3123,-16636,-1229,243,-268,-779
3,575,55534,-3164,-16580,-1532,241,-283,-777
3,576,55539,-2965,-16521,-1658,236,-280,-771
3,577,55544,-2714,-16510,-1637,232,-259,-765
3,578,55549,-2568,-16549,-1574,234,-228,-764
3,579,55554,-2653,-16586,-1499,235,-195,-762
3,580,55559,-2732,-16527,-1477,234,-173,-758
3,581,55564,-2624,-16488,-1345,233,-156,-751
3,582,55569,-2336,-16486,-858,227,-140,-736
3,583,55574,-2217,-16506,-817,228,-156,-734
3,584,55579,-2179,-16491,-852,225,-182,-729
3,585,55584,-2181,-16464,-816,219,-217,-720
3,586,55589,-2214,-16431,-699,212,-258,-715
3,587,55594,-2198,-16409,-730,211,-299,-710
3,588,55599,-2062,-16391,-979,206,-329,-699
3,589,55604,-1865,-16329,-1228,204,-332,-690
3,590,55609,-1780,-16350,-1233,204,-325,-682
3,591,55614,-1806,-16347,-1046,200,-322,-675
3,592,55619,-1845,-16389,-896,196,-329,-668
3,593,55624,-1780,-16411,-889,191,-337,-659
3,594,55629,-1659,-16448,-809,189,-333,-648
3,595,55634,-1651,-16526,-638,186,-326,-637
3,596,55639,-1733,-16587,-394,179,-337,-627
3,597,55644,-1800,-16663,-322,173,-366,-618
3,598,55649,-1812,-16668,-429,166,-393,-610
3,599,55654,-1340,-17592,-460,166,-398,-601
3,600,55659,4422,-25069,1959,171,-394,-618
3,601,55681,27223,-11872,-22838,-478,-1121,1021
3,602,55682,27223,-11872,-22838,-478,-1121,1021
3,603,55682,27223,-11872,-22838,-478,-1121,1021
3,604,55683,32767,-28139,11671,-440,2580,860
3,605,55684,32767,-28139,11671,-440,2580,860
3,606,55689,778,-26068,26526,-53,3001,119
3,607,55694,-26912,-14343,-4964,170,210,-134
3,608,55699,-22355,-6866,-26829,69,-1165,139
3,609,55704,1,-7243,-21677,-257,-492,487
3,610,55709,13677,-16342,4461,-418,1642,697
3,611,55714,6655,-21134,22113,-217,2916,535
3,612,55719,-6296,-19833,13450,59,2025,303
3,613,55724,-11114,-14639,-8276,90,-57,160
3,614,55729,-6196,-11336,-15567,-154,-1194,180
3,615,55734,209,-12139,-1845,-361,-718,336
3,616,55739,2715,-16245,12573,-315,267,485
3,617,55744,407,-18599,9604,-115,609,461
3,618,55749,-2653,-17863,-5199,7,81,335
3,619,55754,-4132,-15900,-12130,-98,-610,232
3,620,55759,-2931,-14085,-6011,-264,-872,234
3,621,55764,-867,-14596,5245,-310,-471,342
3,622,55769,237,-16205,5621,-183,71,420
3,623,55774,-1394,-17398,-2112,-50,407,423
3,624,55779,-3001,-17516,-8575,-60,266,370
3,625,55784,-3557,-16129,-4961,-171,-40,320
3,626,55789,-1638,-15649,1985,-260,-236,329
3,627,55794,-492,-15639,5143,-207,-65,353
3,628,55799,-1165,-16800,821,-113,232,389
3,629,55804,-3048,-17053,-4518,-68,360,382
3,630,55809,-3945,-16876,-4151,-131,199,366
3,631,55814,-2514,-16568,636,-212,-109,350
3,632,55819,-913,-16312,3368,-232,-276,330
3,633,55824,-1082,-16680,1461,-164,-174,333
3,634,55829,-3136,-16847,-2442,-104,39,341
3,635,55834,-4092,-17004,-4406,-110,88,352
3,636,55839,-3163,-16737,-2465,-164,-6,349
3,637,55844,-1221,-16808,604,-200,-96,340
3,638,55849,-859,-16713,1046,-175,-56,316
3,639,55854,-2257,-16733,-1162,-114,89,304
3,640,55859,-3768,-16562,-3544,-89,197,313
3,641,55864,-3642,-16351,-3096,-114,208,322
3,642,55869,-2104,-16374,-951,-156,141,324
3,643,55874,-1122,-16527,836,-157,108,312
3,644,55879,-1734,-16649,348,-123,116,293
3,645,55884,-3008,-16551,-1582,-88,114,284
3,646,55889,-3369,-16283,-2830,-90,76,287
3,647,55894,-2633,-16191,-1991,-120,30,295
3,648,55899,-1747,-16374,-281,-138,2,293
3,649,55904,-1796,-16553,426,-124,-9,279
3,650,55909,-2504,-16556,-877,-90,-32,262
3,651,55914,-3034,-16377,-2459,-77,-47,257
3,652,55919,-2953,-16233,-2738,-88,-42,261
3,653,55924,-2432,-16240,-1629,-105,-21,260
3,654,55929,-2112,-16422,-423,-102,6,255
3,655,55934,-2713,-16459,-1745,-58,22,233
3,656,55939,-2967,-16378,-2457,-56,29,228
3,657,55944,-2821,-16307,-1952,-70,47,226
3,658,55949,-2565,-16336,-987,-73,64,221
3,659,55954,-2480,-16439,-638,-63,70,212
3,660,55959,-2642,-16432,-1122,-48,67,199
3,661,55964,-2850,-16383,-1782,-37,67,192
3,662,55969,-2808,-16290,-1842,-40,72,190
3,663,55974,-2622,-16219,-1263,-49,75,186
3,664,55979,-2504,-16251,-744,-46,70,178
3,665,55984,-2513,-16264,-793,-36,55,172
3,666,55989,-2649,-16267,-1311,-25,32,168
3,667,55994,-2720,-16211,-1557,-23,10,159
3,668,55999,-2703,-16116,-1379,-29,-6,154
3,669,56004,-2551,-16121,-1033,-31,-22,150
3,670,56009,-2409,-16114,-990,-21,-32,146
3,671,56014,-2437,-16161,-1282,-13,-39,137
3,672,56019,-2558,-16122,-1552,-8,-39,133
3,673,56024,-2630,-16099,-1506,-11,-42,126
3,674,56029,-2608,-16087,-1292,-11,-43,121
3,675,56034,-2586,-16180,-1131,-7,-31,119
3,676,56039,-2594,-16152,-1210,4,-16,116
3,677,56044,-2688,-16116,-1449,9,-2,109
3,678,56049,-2778,-16133,-1639,10,4,102
3,679,56054,-2773,-16182,-1532,7,10,98
3,680,56059,-2791,-16192,-1291,8,24,92
3,681,56064,-2814,-16181,-1229,15,39,87
3,682,56069,-2845,-16213,-1456,24,54,83
3,683,56074,-2865,-16173,-1653,29,72,79
3,684,56079,-2785,-16101,-1634,30,91,73
3,685,56084,-2722,-16084,-1531,32,100,69
3,686,56089,-2661,-16089,-1368,35,109,64
3,687,56094,-2576,-16042,-1431,42,123,60
3,688,56099,-2570,-15998,-1520,48,135,58
3,689,56104,-2533,-16044,-1357,48,138,57
3,690,56109,-2518,-16093,-1127,46,132,53
3,691,56114,-2488,-16080,-887,46,106,49
3,692,56119,-2523,-16049,-710,49,68,44
3,693,56124,-2640,-16065,-853,50,26,41
3,694,56129,-2736,-16100,-1007,51,-15,37
3,695,56134,-2681,-16125,-1116,46,-52,36
3,696,56139,-2640,-16055,-820,43,-79,35
3,697,56144,-2660,-16059,-875,47,-114,29
3,698,56149,-2670,-16089,-1189,51,-139,25
3,699,56154,-2685,-16081,-1481,53,-146,25
3,700,56159,-2754,-16052,-1634,51,-143,23
3,701,56164,-2821,-16075,-1599,51,-135,22
3,702,56169,-2855,-16120,-1785,53,-115,22
3,703,56174,-2794,-16090,-1974,58,-72,20
3,704,56179,-2877,-16040,-2199,67,-9,18
3,705,56184,-2871,-16038,-2322,74,58,20
3,706,56189,-2862,-16018,-2116,74,120,15
3,707,56194,-2777,-15982,-1836,75,166,13
3,708,56199,-2752,-15991,-1687,83,205,13
3,709,56204,-2756,-15989,-1488,86,228,9
3,710,56209,-2838,-16017,-1286,87,226,7
3,711,56214,-3027,-16009,-980,86,196,2
3,712,56219,-3010,-15961,-746,81,143,2
3,713,56224,-2895,-15967,-674,78,83,-1
3,714,56229,-2899,-15982,-750,80,22,-2
3,715,56234,-2939,-15925,-854,78,-41,-5
3,716,56239,-3028,-15931,-977,73,-104,-9
3,717,56244,-3098,-15934,-1127,67,-159,-11
3,718,56249,-3101,-15934,-1347,69,-197,-12
3,719,56254,-3037,-15994,-1607,70,-200,-13
3,720,56259,-2980,-16009,-1863,69,-180,-12
3,721,56264,-3047,-15943,-2012,74,-147,-13
3,722,56269,-3053,-15934,-2101,74,-111,-15
3,723,56274,-3078,-15902,-2162,75,-64,-17
3,724,56279,-3044,-15944,-2101,80,-10,-15
3,725,56284,-3128,-15979,-2031,85,44,-16
3,726,56289,-3164,-16047,-1929,86,92,-17
3,727,56294,-3146,-16116,-1852,84,135,-16
3,728,56299,-3020,-16140,-1728,87,179,-18
3,729,56304,-3008,-16107,-1128,88,214,-27
3,730,56309,-3083,-16079,-1005,89,192,-26
3,731,56314,-3051,-16085,-918,83,155,-27
3,732,56319,-2994,-16117,-822,78,113,-27
3,733,56324,-2864,-16139,-674,74,73,-25
3,734,56329,-2857,-16127,-546,71,21,-26
3,735,56334,-2915,-16136,-656,67,-41,-26
3,736,56339,-2966,-16076,-948,63,-97,-31
3,737,56344,-2986,-16013,-1229,59,-139,-29
3,738,56349,-2865,-16032,-1318,53,-160,-25
3,739,56354,-2777,-16009,-1418,51,-164,-22
3,740,56359,-2742,-16020,-1575,48,-157,-21
3,741,56364,-2879,-16099,-1755,52,-138,-22
3,742,56369,-3064,-16150,-1897,50,-115,-24
3,743,56374,-3180,-16157,-1958,49,-83,-24
3,744,56379,-3124,-16126,-1961,49,-39,-20
3,745,56384,-2987,-16093,-1993,52,17,-18
3,746,56389,-3038,-16082,-1942,54,76,-19
3,747,56394,-3083,-16052,-1845,55,123,-19
3,748,56399,-3104,-16046,-1592,55,153,-19
3,749,56404,-3111,-16041,-1264,51,163,-20
3,750,56409,-3029,-16030,-1008,51,161,-24
3,751,56414,-3021,-16029,-864,47,140,-24
3,752,56419,-3011,-16058,-739,43,100,-22
3,753,56424,-2981,-16053,-671,40,38,-24
3,754,56429,-2956,-15996,-667,33,-37,-25
3,755,56434,-2908,-15977,-805,27,-111,-26
3,756,56439,-2858,-15928,-1028,21,-162,-26
3,757,56444,-2950,-15988,-1229,17,-194,-22
3,758,56449,-3174,-16143,-1403,16,-211,-19
3,759,56454,-3214,-16323,-1607,9,-212,-17
3,760,56459,-3060,-16361,-1821,9,-195,-17
3,761,56464,-2922,-16352,-1888,12,-147,-16
3,762,56469,-2920,-16270,-1903,14,-85,-16
3,763,56474,-3093,-16242,-1989,17,-30,-17
3,764,56479,-3176,-16190,-1918,15,19,-13
3,765,56484,-3044,-16146,-1727,13,57,-13
3,766,56489,-2941,-16060,-1312,13,89,-9
3,767,56494,-2934,-16017,-1019,14,95,-9
3,768,56499,-2966,-15974,-990,9,70,-11
3,769,56504,-3062,-16070,-1002,6,27,-13
3,770,56509,-3171,-16172,-862,5,-30,-16
3,771,56514,-3264,-16225,-742,-2,-91,-15
3,772,56519,-3230,-16244,-976,-9,-132,-14
3,773,56524,-3099,-16292,-1414,-8,-144,-12
3,774,56529,-3047,-16314,-1686,-7,-118,-13
3,775,56534,-3069,-16213,-1672,-9,-85,-13
3,776,56539,-3030,-16192,-1576,-10,-63,-13
3,777,56544,-2956,-16092,-1524,-14,-48,-10
3,778,56549,-2937,-16028,-1530,-11,-34,-7
3,779,56554,-3026,-16026,-1468,-11,-26,-2
3,780,56559,-3224,-16061,-1367,-13,-32,-1
3,781,56564,-3249,-16026,-1324,-18,-58,-1
3,782,56569,-3227,-16015,-1399,-19,-80,-1
3,783,56574,-3165,-16063,-1452,-20,-85,-2
3,784,56579,-3172,-16082,-1571,-19,-76,-2
3,785,56584,-3161,-16158,-1582,-19,-59,-6
3,786,56589,-3181,-16175,-1541,-18,-40,-3
3,787,56594,-3148,-16198,-1541,-19,-14,-5
3,788,56599,-3081,-16187,-1512,-18,9,-9
3,789,56604,-3057,-16116,-1359,-15,26,-8
3,790,56609,-3091,-16074,-1334,-18,28,-4
3,791,56614,-3149,-16114,-1279,-23,20,-4
3,792,56619,-3216,-16147,-1238,-26,13,0
3,793,56624,-3083,-16189,-1191,-27,8,2
3,794,56629,-2985,-16156,-1168,-25,3,-1
3,795,56634,-2965,-16167,-1219,-28,0,0
3,796,56639,-2972,-16130,-1287,-29,-9,-1
3,797,56644,-2988,-16062,-1279,-29,-20,-1
3,798,56649,-3009,-16030,-1211,-32,-32,0
3,799,56654,-2988,-16037,-1201,-34,-44,4
3,800,56659,-2940,-16008,-1272,-35,-47,5
3,801,56664,-2847,-16054,-1340,-38,-44,8
3,802,56669,-2902,-16048,-1265,-40,-46,9
3,803,56674,-2958,-16032,-1164,-40,-55,11
3,804,56679,-2994,-16073,-1185,-40,-59,12
3,805,56684,-2976,-16060,-1219,-41,-56,11
3,806,56689,-2973,-16094,-1255,-42,-49,13
3,807,56694,-2936,-16085,-1368,-40,-42,11
3,808,56699,-2875,-16019,-1360,-41,-39,11
3,809,56704,-2933,-15935,-1347,-44,-44,12
3,810,56709,-3006,-15902,-1360,-43,-46,15
3,811,56714,-3068,-15919,-1372,-42,-44,17
3,812,56719,-3210,-16059,-1245,-43,-37,20
3,813,56724,-3278,-16230,-1159,-47,-34,20
3,814,56729,-3201,-16246,-1177,-46,-33,16
3,815,56734,-3035,-16205,-1309,-45,-26,16
3,816,56739,-3012,-16123,-1408,-44,-12,15
3,817,56744,-3070,-16055,-1475,-45,3,16
3,818,56749,-3065,-16000,-1427,-44,8,18
3,819,56754,-3024,-15901,-1332,-43,5,20
3,820,56759,-2948,-15804,-1330,-45,5,22
3,821,56764,-2956,-15790,-1286,-43,1,23
3,822,56769,-3051,-15816,-1266,-39,-20,20
3,823,56774,-3264,-15939,-1150,-44,-57,20
3,824,56779,-3470,-16060,-1078,-49,-104,18
3,825,56784,-3415,-16177,-1220,-49,-130,18
3,826,56789,-3204,-16208,-1501,-44,-117,18
3,827,56794,-3061,-16239,-1703,-42,-74,18
3,828,56799,-3076,-16220,-1649,-42,-26,15
3,829,56804,-3188,-16144,-1581,-40,3,13
3,830,56809,-3208,-16054,-1481,-38,16,14
3,831,56814,-3112,-15992,-1470,-38,33,14
3,832,56819,-3121,-15998,-1360,-37,42,18
3,833,56824,-3265,-16101,-1213,-34,34,18
3,834,56829,-3451,-16262,-1127,-37,6,18
3,835,56834,-3525,-16354,-1083,-39,-24,14
3,836,56839,-3369,-16365,-1177,-40,-38,13
3,837,56844,-3221,-16276,-1328,-35,-27,12
3,838,56849,-3140,-16315,-1484,-31,1,14
3,839,56854,-3192,-16311,-1501,-32,24,12
3,840,56859,-3214,-16232,-1384,-30,29,9
3,841,56864,-3170,-16120,-1244,-31,28,7
3,842,56869,-3180,-16073,-1283,-31,23,8
3,843,56874,-3229,-16101,-1317,-29,14,10
3,844,56879,-3292,-16091,-1361,-29,5,13
3,845,56884,-3187,-16062,-1322,-30,-3,15
3,846,56889,-3042,-16034,-1322,-30,-6,14
3,847,56894,-2941,-15942,-1383,-28,-12,12
3,848,56899,-2994,-15870,-1513,-26,-12,7
3,849,56904,-3088,-15844,-1584,-22,-14,6
3,850,56909,-3234,-15898,-1431,-24,-21,6
3,851,56914,-3311,-16007,-1355,-24,-28,7
3,852,56919,-3195,-16037,-1390,-23,-30,7
3,853,56924,-3098,-16046,-1561,-19,-15,6
3,854,56929,-3116,-16090,-1586,-16,4,7
3,855,56934,-3211,-16075,-1507,-15,18,6
3,856,56939,-3295,-16102,-1346,-17,24,4
3,857,56944,-3182,-16136,-1351,-16,35,5
3,858,56949,-3048,-16142,-1349,-11,45,6
3,859,56954,-3048,-16104,-1330,-10,57,3
3,860,56959,-3129,-16120,-1281,-10,58,4
3,861,56964,-3130,-16120,-1153,-13,49,1
3,862,56969,-3105,-16177,-1079,-13,31,3
3,863,56974,-3088,-16186,-1090,-13,11,2
3,864,56979,-3049,-16170,-1125,-13,-7,2
3,865,56984,-3025,-16127,-1317,-12,-17,1
3,866,56989,-2980,-16032,-1425,-12,-21,4
3,867,56994,-2974,-16032,-1471,-14,-20,3
3,868,56999,-2957,-16026,-1427,-11,-18,4
3,869,57004,-3005,-16038,-1380,-7,-18,4
3,870,57009,-3089,-16087,-1407,-7,-17,2
3,871,57014,-3131,-16102,-1448,-7,-17,2
3,872,57019,-3085,-16058,-1456,-7,-14,2
3,873,57024,-3051,-16041,-1482,-3,-13,6
3,874,57029,-3060,-16016,-1479,0,-10,3
3,875,57034,-3131,-16064,-1454,-3,-10,1
3,876,57039,-3242,-16120,-1467,3,-8,4
3,877,57044,-3235,-16134,-1502,2,4,2
3,878,57049,-3173,-16100,-1499,3,16,2
3,879,57054,-3073,-16075,-1545,8,30,1
3,880,57059,-3009,-16057,-1512,5,39,-1
3,881,57064,-3103,-16058,-1366,8,42,-2
3,882,57069,-3214,-16054,-1206,8,31,-4
3,883,57074,-3180,-16051,-1171,6,17,-6
3,884,57079,-3107,-16036,-1213,7,4,-5
3,885,57084,-3021,-16081,-1181,8,-6,-1
3,886,57089,-3028,-16088,-1110,9,-26,-3
3,887,57094,-3026,-16116,-1129,9,-51,-6
3,888,57099,-3057,-16063,-1241,6,-77,-8
3,889,57104,-3117,-16056,-1372,3,-90,-5
3,890,57109,-3127,-16058,-1482,4,-91,-6
3,891,57114,-3068,-16078,-1561,5,-84,-4
3,892,57119,-2947,-16085,-1543,6,-69,-4
3,893,57124,-2949,-16081,-1560,11,-51,-4
3,894,57129,-2993,-16043,-1595,13,-37,-4
3,895,57134,-3091,-16090,-1555,13,-31,-5
3,896,57139,-3153,-16077,-1522,14,-23,-4
3,897,57144,-3196,-16105,-1501,15,-13,-3
3,898,57149,-3203,-16118,-1472,15,0,-4
3,899,57154,-3134,-16100,-1456,13,20,-6
3,900,57159,-3085,-16031,-1432,17,29,-7
3,901,57164,-3092,-16028,-1362,17,35,-7
3,902,57169,-3064,-16052,-1229,18,35,-9
3,903,57174,-3125,-16039,-1112,19,28,-9
3,904,57179,-3144,-16020,-1111,20,13,-6
3,905,57184,-3116,-15953,-1118,15,-11,-11
3,906,57189,-3129,-15917,-1103,14,-38,-15
