event_id,seq,ts_ms,ax,ay,az,gx,gy,gz
18,0,1463157,-1685,-15828,-3990,8,14,-3
18,1,1463162,-1671,-15893,-3841,5,5,-1
18,2,1463167,-1627,-15779,-3782,7,-16,1
18,3,1463172,-1536,-15698,-3959,10,-34,3
18,4,1463177,-1440,-15717,-4261,14,-33,2
18,5,1463182,-1442,-15770,-4322,15,-17,0
18,6,1463187,-1432,-15830,-4231,11,-7,-4
18,7,1463192,-1463,-15800,-4055,12,-4,-7
18,8,1463197,-1554,-15804,-4027,8,-10,-5
18,9,1463202,-1510,-15845,-4165,8,-7,-3
18,10,1463207,-1425,-15877,-4284,10,8,-3
18,11,1463212,-1413,-15856,-4209,9,22,-6
18,12,1463217,-1515,-15752,-4037,11,26,-5
18,13,1463222,-1665,-15739,-4012,11,24,-5
18,14,1463227,-1709,-15834,-4053,12,34,-4
18,15,1463232,-1673,-15847,-4096,11,58,-2
18,16,1463237,-1669,-15897,-3916,8,79,-4
18,17,1463242,-1620,-15871,-3658,8,71,-3
18,18,1463247,-1679,-15879,-3660,8,47,-4
18,19,1463252,-1698,-15870,-3902,6,26,-6
18,20,1463257,-1588,-15848,-3897,5,21,-2
18,21,1463262,-1540,-15835,-3658,3,17,-3
18,22,1463267,-1378,-15859,-3726,5,4,-1
18,23,1463272,-1388,-15830,-4020,9,-7,-2
18,24,1463277,-1478,-15778,-4078,6,0,-3
18,25,1463282,-1599,-15826,-4025,5,3,-4
18,26,1463287,-1532,-15759,-3955,2,-2,-4
18,27,1463292,-1434,-15787,-4021,5,-2,-1
18,28,1463297,-1390,-15781,-4112,5,9,0
18,29,1463302,-1382,-15769,-4224,5,19,0
18,30,1463307,-1444,-15783,-4061,3,28,-3
18,31,1463312,-1562,-15767,-3904,2,29,-3
18,32,1463317,-1645,-15807,-4079,1,39,-4
18,33,1463322,-1606,-15842,-4205,1,61,-1
18,34,1463327,-1566,-15787,-4052,0,83,-4
18,35,1463332,-1558,-15854,-3838,-1,90,-8
18,36,1463337,-1635,-15927,-3836,-2,66,-11
18,37,1463342,-1633,-15862,-4013,2,41,-12
18,38,1463347,-1690,-15805,-3975,-2,31,-10
18,39,1463352,-1676,-15809,-3741,0,19,-7
18,40,1463357,-1640,-15778,-3743,1,1,-4
18,41,1463362,-1663,-15838,-3965,4,-15,-3
18,42,1463367,-1638,-15878,-4118,4,-20,-4
18,43,1463372,-1471,-15834,-3983,3,-16,-1
18,44,1463377,-1437,-15795,-3813,2,-19,-3
18,45,1463382,-1423,-15837,-3893,3,-28,-1
18,46,1463387,-1422,-15822,-4125,2,-27,2
18,47,1463392,-1407,-15868,-4389,3,-13,-1
18,48,1463397,-1441,-15861,-4379,1,8,-1
18,49,1463402,-1511,-15842,-4232,-4,17,-2
18,50,1463407,-1534,-15773,-4148,0,12,0
18,51,1463412,-1653,-15811,-3987,3,24,1
18,52,1463417,-1736,-15860,-3945,2,33,2
18,53,1463422,-1625,-15819,-3922,-3,41,0
18,54,1463427,-1529,-15852,-3769,-5,40,1
18,55,1463432,-1467,-15907,-3680,-2,23,0
18,56,1463437,-1469,-15870,-3713,-2,4,-2
18,57,1463442,-1646,-15825,-3882,3,-7,-2
18,58,1463447,-1703,-15819,-3880,1,-18,-5
18,59,1463452,-1536,-15761,-3949,0,-36,-1
18,60,1463457,-1447,-15813,-4144,2,-49,1
18,61,1463462,-1563,-15838,-4481,2,-46,-1
18,62,1463467,-1712,-15800,-4566,2,-35,-3
18,63,1463472,-1667,-15797,-4446,1,-26,-1
18,64,1463477,-1560,-15829,-4434,2,-21,0
18,65,1463482,-1513,-15825,-4472,2,-15,0
18,66,1463487,-1552,-15800,-4327,2,0,-6
18,67,1463492,-1561,-15785,-4178,1,19,-8
18,68,1463497,-1684,-15803,-3998,3,26,-10
18,69,1463502,-1801,-15847,-3834,4,23,-10
18,70,1463507,-1746,-15820,-3727,6,17,-8
18,71,1463512,-1539,-15808,-3796,4,12,-7
18,72,1463517,-1363,-15803,-3869,1,14,-5
18,73,1463522,-1313,-15817,-3812,3,11,-6
18,74,1463527,-1320,-15813,-3755,2,1,-6
18,75,1463532,-1381,-15702,-3835,4,-9,-6
18,76,1463537,-1489,-15708,-3982,2,-8,-6
18,77,1463542,-1570,-15759,-4069,2,-7,-6
18,78,1463547,-1488,-15752,-4052,3,-11,-3
18,79,1463552,-1388,-15799,-4078,0,-21,-3
18,80,1463557,-1383,-15847,-4077,-2,-34,-1
18,81,1463562,-1396,-15834,-4099,0,-36,-2
18,82,1463567,-1486,-15849,-4042,0,-25,-2
18,83,1463572,-1457,-15848,-4115,3,-14,-1
18,84,1463577,-1271,-15882,-4138,2,1,-1
18,85,1463582,-1315,-15975,-4080,0,13,-4
18,86,1463587,-1526,-15909,-4035,0,17,-9
18,87,1463592,-1706,-15814,-3973,-1,18,-10
18,88,1463597,-1813,-15842,-3934,-2,22,-10
18,89,1463602,-1742,-15825,-3957,-3,32,-8
18,90,1463607,-1622,-15830,-3921,-3,30,-6
18,91,1463612,-1555,-15815,-3860,-5,31,-7
18,92,1463617,-1565,-15839,-3857,-3,23,-7
18,93,1463622,-1516,-15850,-3798,-4,16,-5
18,94,1463627,-1533,-15870,-3833,-4,17,-5
18,95,1463632,-1573,-15825,-3823,-3,19,-5
18,96,1463637,-1509,-15829,-3774,-3,12,-3
18,97,1463642,-1432,-15803,-3911,-4,4,-3
18,98,1463647,-1366,-15798,-4135,-2,1,-2
18,99,1463652,-1445,-15839,-4198,-4,8,-3
18,100,1463657,-1601,-15790,-4143,-4,17,-6
18,101,1463662,-1672,-15761,-4108,-7,16,-6
18,102,1463667,-1643,-15807,-4153,-5,15,-6
18,103,1463672,-1492,-15802,-4095,-9,14,-4
18,104,1463677,-1355,-15777,-3926,-9,6,-4
18,105,1463682,-1399,-15834,-3881,-8,-12,-5
18,106,1463687,-1600,-15879,-4023,-5,-27,-7
18,107,1463692,-1683,-15813,-4146,-7,-29,-3
18,108,1463697,-1615,-15805,-4195,-3,-21,-3
18,109,1463702,-1554,-15850,-4105,-5,-6,-7
18,110,1463707,-1482,-15838,-4105,-4,-5,-5
18,111,1463712,-1543,-15808,-4049,-4,-11,-8
18,112,1463717,-1571,-15792,-4048,-1,-21,-5
18,113,1463722,-1460,-15809,-4225,1,-26,-2
18,114,1463727,-1465,-15812,-4389,0,-18,-3
18,115,1463732,-1524,-15822,-4331,0,-11,-4
18,116,1463737,-1563,-15814,-4169,-5,-10,-5
18,117,1463742,-1478,-15842,-4154,-4,-10,0
18,118,1463747,-1407,-15888,-4108,-1,-5,1
18,119,1463752,-1432,-15903,-4011,1,7,0
18,120,1463757,-1488,-15827,-3952,-2,12,-3
18,121,1463762,-1488,-15818,-3949,-1,-4,-1
18,122,1463767,-1418,-15809,-4131,-2,-15,1
18,123,1463772,-1476,-15794,-4371,0,2,1
18,124,1463777,-1605,-15852,-4211,-1,15,-3
18,125,1463782,-1541,-15824,-4085,0,13,-2
18,126,1463787,-1370,-15816,-4056,2,8,-3
18,127,1463792,-1388,-15872,-4013,-1,8,-6
18,128,1463797,-1555,-15844,-3940,-2,5,-9
18,129,1463802,-1601,-15692,-4090,1,-4,-9
18,130,1463807,-1497,-15684,-4191,3,-9,-4
18,131,1463812,-1364,-15810,-4199,0,-13,-4
18,132,1463817,-1376,-15853,-4219,0,-15,-5
18,133,1463822,-1453,-15810,-4201,2,-17,-6
18,134,1463827,-1605,-15787,-4178,-1,-6,-4
18,135,1463832,-1635,-15859,-4083,0,-1,-2
18,136,1463837,-1563,-15881,-3909,1,3,-5
18,137,1463842,-1514,-15845,-3871,2,-11,-3
18,138,1463847,-1527,-15839,-4001,1,-23,-1
18,139,1463852,-1567,-15839,-4209,2,-29,-1
18,140,1463857,-1584,-15799,-4205,2,-29,0
18,141,1463862,-1423,-15789,-4175,1,-28,4
18,142,1463867,-1337,-15905,-4384,3,-27,1
18,143,1463872,-1399,-15873,-4539,2,-11,2
18,144,1463877,-1522,-15842,-4280,1,5,1
18,145,1463882,-1632,-15832,-3913,-1,8,0
18,146,1463887,-1594,-15809,-3891,3,7,2
18,147,1463892,-1489,-15828,-4072,3,10,1
18,148,1463897,-1474,-15827,-3970,4,27,-1
18,149,1463902,-1540,-15750,-3780,4,36,-3
18,150,1463907,-1670,-15797,-3770,2,25,-4
18,151,1463912,-1704,-15809,-3843,3,17,-4
18,152,1463917,-1541,-15783,-3959,2,19,-3
18,153,1463922,-1532,-15825,-3970,1,26,-5
18,154,1463927,-1575,-15805,-3875,-1,19,-5
18,155,1463932,-1550,-15753,-3863,1,-7,-4
18,156,1463937,-1627,-15830,-4072,1,-31,-5
18,157,1463942,-1595,-15853,-4210,-1,-35,-5
18,158,1463947,-1510,-15805,-4185,-3,-24,-3
18,159,1463952,-1548,-15838,-4102,-1,-10,-1
18,160,1463957,-1561,-15851,-4127,1,-9,3
18,161,1463962,-1524,-15868,-4292,-2,-8,-1
18,162,1463967,-1547,-15873,-4186,-2,-2,-1
18,163,1463972,-1545,-15774,-3983,-1,2,-1
18,164,1463977,-1548,-15774,-3957,0,1,-3
18,165,1463982,-1537,-15813,-4017,1,-3,-4
18,166,1463987,-1478,-15837,-4055,1,-10,-3
18,167,1463992,-1408,-15835,-4061,0,-14,-3
18,168,1463997,-1455,-15835,-3967,0,-19,-5
18,169,1464002,-1624,-15869,-3968,3,-22,-7
18,170,1464007,-1702,-15817,-4079,4,-23,-9
18,171,1464012,-1557,-15725,-4134,2,-16,-7
18,172,1464017,-1531,-15816,-3972,2,-11,-6
18,173,1464022,-1508,-15785,-3976,2,-18,-5
18,174,1464027,-1412,-15784,-4166,2,-19,-6
18,175,1464032,-1498,-15788,-4328,4,-2,-8
18,176,1464037,-1529,-15711,-4230,3,16,-7
18,177,1464042,-1513,-15734,-4062,3,21,-6
18,178,1464047,-1503,-15803,-3994,2,7,-8
18,179,1464052,-1529,-15801,-4065,0,-6,-5
18,180,1464057,-1499,-15825,-4130,1,1,-6
18,181,1464062,-1456,-15833,-4076,0,11,-6
18,182,1464067,-1412,-15790,-3967,2,7,-6
18,183,1464072,-1381,-15856,-3925,1,-13,-7
18,184,1464077,-1373,-15899,-3995,1,-34,-6
18,185,1464082,-1433,-15855,-4128,1,-36,-3
18,186,1464087,-1507,-15869,-4132,2,-15,-4
18,187,1464092,-1531,-15860,-4046,4,4,-1
18,188,1464097,-1392,-15862,-4033,3,5,-2
18,189,1464102,-1370,-15867,-3951,-3,-6,0
18,190,1464107,-1465,-15814,-3818,-5,-16,-3
18,191,1464112,-1591,-15808,-3796,-3,-19,-3
18,192,1464117,-1539,-15791,-4033,2,-9,-3
18,193,1464122,-1397,-15808,-4182,1,9,-1
18,194,1464127,-1428,-15837,-4109,-2,14,-6
18,195,1464132,-1601,-15791,-4021,0,-1,-7
18,196,1464137,-1751,-15762,-4041,-2,-9,-7
18,197,1464142,-1709,-15783,-4102,3,23,-7
18,198,1464147,-1574,-15761,-4060,2,36,-5
18,199,1464152,-1518,-15827,-3972,3,24,-5
18,200,1464157,-1511,-15825,-3986,2,-2,-4
18,201,1464162,-1491,-15826,-4122,1,-22,-1
18,202,1464167,-1365,-15868,-4198,1,-27,3
18,203,1464172,-1318,-15872,-4267,-3,-16,4
18,204,1464177,-1320,-15875,-4247,-3,-10,1
18,205,1464182,-1518,-15827,-4143,-4,-16,-2
18,206,1464187,-1592,-15790,-4001,-6,-27,0
18,207,1464192,-1519,-15760,-3967,-5,-33,0
18,208,1464197,-1426,-15821,-4159,-2,-26,-1
18,209,1464202,-1398,-15797,-4203,1,-5,-5
18,210,1464207,-1570,-15768,-3975,-4,7,-7
18,211,1464212,-1754,-15800,-3851,-3,-2,-6
18,212,1464217,-1786,-15843,-3948,2,-8,-4
18,213,1464222,-1619,-15795,-4173,4,3,-2
18,214,1464227,-1526,-15774,-4154,3,24,-4
18,215,1464232,-1552,-15816,-3994,1,21,-7
18,216,1464237,-1528,-15859,-3984,0,0,-7
18,217,1464242,-1494,-15848,-4193,3,-17,-3
18,218,1464247,-1502,-15882,-4327,4,-6,-3
18,219,1464252,-1551,-15771,-4174,4,13,-3
18,220,1464257,-1568,-15780,-4018,-1,15,0
18,221,1464262,-1445,-15812,-4069,-5,3,0
18,222,1464267,-1275,-15869,-4294,0,-5,0
18,223,1464272,-1344,-15815,-4202,1,0,-1
18,224,1464277,-1466,-15759,-4032,0,-1,-2
18,225,1464282,-1479,-15777,-4029,-3,-16,0
18,226,1464287,-1372,-15820,-4026,1,-30,-1
18,227,1464292,-1377,-15871,-4124,1,-37,1
18,228,1464297,-1508,-15851,-4153,1,-31,0
18,229,1464302,-1595,-15824,-4054,0,-14,-3
18,230,1464307,-1642,-15760,-3912,3,-1,-3
18,231,1464312,-1606,-15799,-3906,3,1,-2
18,232,1464317,-1578,-15798,-3944,4,-6,-4
18,233,1464322,-1474,-15812,-4079,3,-15,-2
18,234,1464327,-1489,-15857,-4246,3,-20,-4
18,235,1464332,-1521,-15871,-4404,2,-23,-4
18,236,1464337,-1626,-15808,-4350,2,-21,-5
18,237,1464342,-1599,-15818,-4328,0,-15,-5
18,238,1464347,-1588,-15827,-4212,0,0,-3
18,239,1464352,-1638,-15792,-4052,1,19,-6
18,240,1464357,-1638,-15782,-3934,-2,27,-7
18,241,1464362,-1618,-15765,-3896,0,23,-4
18,242,1464367,-1583,-15794,-3982,1,15,-5
18,243,1464372,-1526,-15828,-4048,3,18,-3
18,244,1464377,-1467,-15794,-3962,2,18,1
18,245,1464382,-1384,-15807,-4122,2,20,-2
18,246,1464387,-1442,-15899,-4190,1,27,-1
18,247,1464392,-1554,-15920,-4046,0,25,-2
18,248,1464397,-1719,-15867,-3801,-2,21,-9
18,249,1464402,-1743,-15847,-3883,-2,13,-5
18,250,1464407,-1594,-15776,-4145,2,21,-1
18,251,1464412,-1419,-15807,-4104,-1,33,-4
18,252,1464417,-1486,-15871,-3788,-5,17,-8
18,253,1464422,-1633,-15787,-3651,-7,-21,-7
18,254,1464427,-1606,-15722,-3818,-3,-54,-4
18,255,1464432,-1525,-15824,-3925,0,-51,0
18,256,1464437,-1484,-15842,-3910,2,-29,-4
18,257,1464442,-1473,-15807,-3905,0,-24,-4
18,258,1464447,-1542,-15783,-3953,-4,-42,-4
18,259,1464452,-1592,-15780,-3966,-4,-59,-5
18,260,1464457,-1416,-15841,-4067,-6,-60,-3
18,261,1464462,-1367,-15903,-4334,-4,-40,-3
18,262,1464467,-1521,-15873,-4491,1,-14,-7
18,263,1464472,-1757,-15776,-4311,-2,5,-10
18,264,1464477,-1774,-15758,-4211,-5,3,-9
18,265,1464482,-1582,-15794,-4297,-4,7,-5
18,266,1464487,-1498,-15807,-4275,-2,23,-6
18,267,1464492,-1419,-15820,-4075,-3,34,-10
18,268,1464497,-1448,-15798,-3870,-3,26,-10
18,269,1464502,-1534,-15784,-3880,0,4,-6
18,270,1464507,-1486,-15820,-4000,-3,4,-5
18,271,1464512,-1332,-15832,-3985,-4,15,-4
18,272,1464517,-1363,-15845,-3885,-3,12,-6
18,273,1464522,-1475,-15818,-4088,0,-21,-2
18,274,1464527,-1491,-15838,-4377,0,-46,1
18,275,1464532,-1298,-15815,-4389,-4,-45,3
18,276,1464537,-1250,-15814,-4230,-4,-30,3
18,277,1464542,-1325,-15874,-4244,-1,-24,4
18,278,1464547,-1343,-15799,-4383,-2,-23,3
18,279,1464552,-1387,-15842,-4454,0,-18,2
18,280,1464557,-1422,-15915,-4356,0,-5,4
18,281,1464562,-1408,-15901,-4135,-2,3,5
18,282,1464567,-1416,-15936,-4167,-1,6,4
18,283,1464572,-1403,-15922,-4180,-2,14,2
18,284,1464577,-1372,-15917,-4050,-3,17,0
18,285,1464582,-1338,-15939,-3940,0,10,-2
18,286,1464587,-1350,-15873,-4041,1,1,0
18,287,1464592,-1400,-15825,-4117,2,7,0
18,288,1464597,-1458,-15849,-4094,4,23,-1
18,289,1464602,-1583,-15824,-4022,1,32,-3
18,290,1464607,-1556,-15780,-4013,3,37,-2
18,291,1464612,-1621,-15707,-4141,3,40,-1
18,292,1464617,-1626,-15713,-4235,5,42,2
18,293,1464622,-1540,-15667,-4098,3,40,4
18,294,1464627,-1529,-15672,-3860,1,18,7
18,295,1464632,-1466,-15731,-3926,3,-14,8
18,296,1464637,-1401,-15744,-3990,3,-31,9
18,297,1464642,-1386,-15746,-3912,2,-30,11
18,298,1464647,-1488,-15786,-3866,4,-32,10
18,299,1464652,-1566,-15850,-4019,4,-42,7
18,300,1464657,-1552,-15911,-4251,4,-44,11
18,301,1464662,-1546,-15925,-4399,6,-43,8
18,302,1464667,-1655,-15883,-4365,1,-38,6
18,303,1464672,-1683,-15807,-4312,0,-33,6
18,304,1464677,-1655,-15965,-4587,0,-25,1
18,305,1464682,-1723,-16053,-4815,2,2,-3
18,306,1464687,-1938,-16002,-4566,-2,53,-9
18,307,1464692,-2166,-15911,-4210,-4,90,-14
18,308,1464697,-2150,-15878,-4051,-1,109,-12
18,309,1464702,-2049,-15868,-4056,0,128,-11
18,310,1464707,-2002,-15820,-3753,-1,138,-10
18,311,1464712,-1967,-15765,-3479,0,121,-10
18,312,1464717,-1875,-15832,-3621,0,80,-6
18,313,1464722,-1687,-15842,-3931,-2,52,2
18,314,1464727,-1471,-15786,-3837,-5,54,1
18,315,1464732,-1521,-15716,-3625,-5,48,-3
18,316,1464737,-1659,-15628,-3715,-3,21,-1
18,317,1464742,-1755,-15653,-3922,0,-3,3
18,318,1464747,-1716,-15748,-3908,-1,-15,8
18,319,1464752,-1720,-15800,-3767,-6,-17,8
18,320,1464757,-1780,-15858,-3641,-8,-29,8
18,321,1464762,-1934,-15921,-3581,-8,-55,11
18,322,1464767,-1895,-15840,-3722,-5,-82,15
18,323,1464772,-2023,-15873,-4032,-2,-93,18
18,324,1464777,-2123,-15987,-4581,1,-91,17
18,325,1464782,-2305,-15880,-4717,0,-78,17
18,326,1464787,-2381,-15759,-4732,-3,-65,20
18,327,1464792,-2391,-15780,-4862,-1,-46,25
18,328,1464797,-2342,-15878,-4979,0,-8,21
18,329,1464802,-2307,-15832,-4602,1,45,23
18,330,1464807,-2295,-15684,-4151,6,80,28
18,331,1464812,-2376,-15632,-3931,8,89,27
18,332,1464817,-2268,-15734,-3837,10,84,35
18,333,1464822,-2020,-15833,-3840,9,78,41
18,334,1464827,-1857,-15817,-3743,9,63,41
18,335,1464832,-1943,-15692,-3536,3,29,46
18,336,1464837,-2106,-15589,-3559,2,-16,52
18,337,1464842,-2137,-15566,-3797,7,-46,60
18,338,1464847,-2099,-15632,-3958,4,-36,69
18,339,1464852,-2197,-15664,-3701,0,-6,69
18,340,1464857,-2354,-15610,-3517,0,8,71
18,341,1464862,-2353,-15547,-3655,-2,-4,78
18,342,1464867,-2250,-15529,-3912,-2,-18,83
18,343,1464872,-2104,-15510,-4027,-6,-47,97
18,344,1464877,-2174,-15396,-4102,-6,-58,100
18,345,1464882,-2348,-15467,-4376,-4,-58,103
18,346,1464887,-2610,-15538,-4429,-3,-39,110
18,347,1464892,-2694,-15489,-4236,-5,-7,114
18,348,1464897,-2589,-15560,-4085,-3,9,120
18,349,1464902,-2554,-15688,-4049,-2,9,124
18,350,1464907,-2439,-15790,-3960,0,-2,125
18,351,1464912,-2396,-15847,-3813,1,-21,133
18,352,1464917,-2444,-15889,-3804,-1,-47,136
18,353,1464922,-2489,-15902,-4071,0,-65,136
18,354,1464927,-2472,-15853,-4421,6,-59,143
18,355,1464932,-2599,-15885,-4506,5,-25,146
18,356,1464937,-2798,-15874,-4618,6,13,143
18,357,1464942,-2784,-15799,-4733,12,59,145
18,358,1464947,-2855,-15786,-4623,11,112,143
18,359,1464952,-2793,-15734,-4355,13,151,143
18,360,1464957,-2660,-15649,-4050,14,161,144
18,361,1464962,-2539,-15560,-3759,17,141,148
18,362,1464967,-2622,-15577,-3623,22,98,154
18,363,1464972,-2713,-15588,-3631,26,58,159
18,364,1464977,-2543,-15530,-3553,25,44,164
18,365,1464982,-2563,-15518,-3618,28,38,166
18,366,1464987,-2712,-15557,-3776,29,23,170
18,367,1464992,-2723,-15552,-3830,27,-2,176
18,368,1464997,-2694,-15649,-3863,28,-24,180
18,369,1465002,-2706,-15763,-4049,32,-33,184
18,370,1465007,-2814,-15796,-4003,35,-20,183
18,371,1465012,-2813,-15772,-3920,37,-11,187
18,372,1465017,-2729,-15783,-3920,38,-9,191
18,373,1465022,-2867,-15846,-3960,39,-12,191
18,374,1465027,-3096,-15829,-4065,39,-18,189
18,375,1465032,-3125,-15747,-4202,41,-21,193
18,376,1465037,-3112,-15662,-3950,42,-6,196
18,377,1465042,-3146,-15749,-3785,45,12,197
18,378,1465047,-3220,-15835,-4133,49,18,197
18,379,1465052,-3171,-15878,-4353,51,35,198
18,380,1465057,-3134,-15810,-3792,48,52,202
18,381,1465062,-3232,-15831,-3247,49,40,207
18,382,1465067,-3263,-15942,-3550,57,21,210
18,383,1465072,-3112,-15924,-3911,59,32,214
18,384,1465077,-3036,-15886,-3510,55,56,214
18,385,1465082,-3022,-15918,-3247,59,36,216
18,386,1465087,-3128,-15898,-3671,66,-11,220
18,387,1465092,-3315,-15809,-4367,64,-28,223
18,388,1465097,-3408,-15757,-4418,63,-10,228
18,389,1465102,-3397,-15609,-4161,62,17,232
18,390,1465107,-3307,-15530,-4125,66,31,233
18,391,1465112,-3276,-15667,-4150,67,41,233
18,392,1465117,-3454,-15733,-3753,68,58,235
18,393,1465122,-3568,-15655,-3404,70,71,239
18,394,1465127,-3340,-15565,-3401,70,67,244
18,395,1465132,-3035,-15641,-3563,72,59,253
18,396,1465137,-3022,-15736,-3702,73,41,255
18,397,1465142,-3242,-15857,-3908,69,16,257
18,398,1465147,-3504,-15810,-4025,67,7,258
18,399,1465152,-3689,-15757,-3724,66,36,264
18,400,1465157,-3806,-15839,-3481,69,79,267
18,401,1465162,-3636,-15859,-3458,67,103,272
18,402,1465167,-3470,-15875,-3285,63,91,277
18,403,1465172,-3490,-15892,-3001,57,33,283
18,404,1465177,-3519,-15895,-3025,57,-41,292
18,405,1465182,-3526,-15966,-3783,62,-69,300
18,406,1465187,-3485,-16027,-4327,61,-21,303
18,407,1465192,-3622,-15953,-4231,55,64,302
18,408,1465197,-3748,-15908,-3697,52,121,301
18,409,1465202,-3755,-15872,-3530,52,135,305
18,410,1465207,-3581,-15808,-3584,53,144,311
18,411,1465212,-3368,-15732,-3458,54,152,315
18,412,1465217,-3366,-15720,-3312,51,132,320
18,413,1465222,-3409,-15739,-3552,51,69,330
18,414,1465227,-3387,-15681,-3847,51,9,337
18,415,1465232,-3590,-15723,-4115,50,3,342
18,416,1465237,-3839,-15770,-4252,52,53,342
18,417,1465242,-4094,-15714,-3569,50,160,353
18,418,1465247,-3856,-15749,-3308,48,163,359
18,419,1465252,-3592,-15805,-3303,49,138,368
18,420,1465257,-3563,-15897,-3203,52,94,370
18,421,1465262,-3769,-15908,-3171,51,33,378
18,422,1465267,-3838,-15962,-3528,50,-22,384
18,423,1465272,-3820,-15951,-4043,51,-33,390
18,424,1465277,-3812,-15957,-4445,56,4,393
18,425,1465282,-3853,-15941,-4508,59,66,391
18,426,1465287,-3987,-15905,-4519,56,114,387
18,427,1465292,-4042,-15874,-4311,56,137,390
18,428,1465297,-4052,-15753,-3940,57,150,392
18,429,1465302,-4093,-15739,-3765,60,158,394
18,430,1465307,-3964,-15786,-3851,66,160,396
18,431,1465312,-3949,-15611,-3756,66,160,396
18,432,1465317,-4166,-15497,-3618,68,152,397
18,433,1465322,-4131,-15530,-3672,68,135,402
18,434,1465327,-3994,-15526,-3713,69,139,407
18,435,1465332,-3879,-15519,-3649,70,167,406
18,436,1465337,-3799,-15521,-3654,69,186,407
18,437,1465342,-3783,-15521,-3406,69,181,406
18,438,1465347,-3938,-15454,-3012,65,147,407
18,439,1465352,-3988,-15425,-2882,66,90,414
18,440,1465357,-3869,-15538,-3124,68,36,419
18,441,1465362,-3703,-15732,-3428,72,1,422
18,442,1465367,-3698,-15810,-3743,69,-16,417
18,443,1465372,-3941,-15694,-3840,68,-29,415
18,444,1465377,-4251,-15580,-4016,68,-32,414
18,445,1465382,-4372,-15628,-4337,71,-12,412
18,446,1465387,-4196,-15612,-4323,70,37,410
18,447,1465392,-4093,-15560,-3740,68,79,407
18,448,1465397,-4296,-15581,-3342,75,77,405
18,449,1465402,-4316,-15645,-3565,78,52,405
18,450,1465407,-4154,-15621,-3899,78,56,407
18,451,1465412,-3931,-15579,-3649,76,72,407
18,452,1465417,-3833,-15615,-3303,74,55,404
18,453,1465422,-3816,-15640,-3466,77,8,404
18,454,1465427,-3791,-15613,-3981,80,-13,401
18,455,1465432,-3855,-15583,-4446,78,24,396
18,456,1465437,-3817,-15632,-4365,77,96,391
18,457,1465442,-3844,-15574,-4021,77,156,384
18,458,1465447,-4001,-15559,-3869,76,179,377
18,459,1465452,-4026,-15499,-3789,77,185,378
18,460,1465457,-3981,-15463,-3521,79,191,377
18,461,1465462,-3891,-15450,-3387,76,183,376
18,462,1465467,-3658,-15458,-3377,82,152,379
18,463,1465472,-3635,-15465,-3284,79,106,376
18,464,1465477,-3755,-15438,-3324,75,55,373
18,465,1465482,-3688,-15461,-3608,78,22,376
18,466,1465487,-3567,-15492,-3872,79,26,375
18,467,1465492,-3624,-15621,-3804,75,52,370
18,468,1465497,-3617,-15640,-3620,74,62,364
18,469,1465502,-3397,-15586,-3828,72,53,362
18,470,1465507,-3302,-15596,-3883,74,37,360
18,471,1465512,-3401,-15518,-3642,70,16,352
18,472,1465517,-3522,-15450,-3712,68,-19,349
18,473,1465522,-3600,-15419,-3914,69,-35,347
18,474,1465527,-3476,-15359,-3969,69,-25,343
18,475,1465532,-3306,-15379,-4093,71,10,340
18,476,1465537,-3291,-15388,-4230,75,54,331
18,477,1465542,-3268,-15285,-4215,71,97,320
18,478,1465547,-3287,-15242,-4081,70,125,315
18,479,1465552,-3263,-15283,-3896,66,139,310
18,480,1465557,-3124,-15341,-3804,69,147,301
18,481,1465562,-2976,-15371,-3856,69,159,291
18,482,1465567,-2842,-15338,-3885,66,167,283
18,483,1465572,-2800,-15274,-3919,62,165,271
18,484,1465577,-2933,-15255,-3929,60,146,261
18,485,1465582,-3008,-15255,-4173,60,128,255
18,486,1465587,-2920,-15307,-4136,58,139,248
18,487,1465592,-2925,-15381,-3756,56,159,237
18,488,1465597,-2884,-15432,-3561,56,151,230
18,489,1465602,-2698,-15390,-3482,54,117,222
18,490,1465607,-2434,-15456,-3691,54,-4,207
18,491,1465612,-2590,-15481,-4044,55,-47,197
18,492,1465617,-2653,-15499,-4213,52,-60,184
18,493,1465622,-2617,-15516,-4445,52,-47,171
18,494,1465627,-2537,-15531,-4701,52,-3,160
18,495,1465632,-2422,-15522,-4712,49,64,146
18,496,1465637,-2274,-15558,-4566,45,125,129
18,497,1465642,-2175,-15615,-4220,42,167,111
18,498,1465647,-2266,-15674,-3835,42,179,94
18,499,1465652,-2278,-15570,-3725,41,178,82
18,500,1465657,-2083,-15445,-3897,37,167,68
18,501,1465662,-2031,-15465,-3965,36,153,55
18,502,1465667,-2062,-15573,-3820,31,135,43
18,503,1465672,-2178,-15488,-3750,27,104,27
18,504,1465677,-2129,-15387,-3989,26,93,16
18,505,1465682,-2077,-15358,-4095,27,108,0
18,506,1465687,-2027,-15382,-3847,25,118,-13
18,507,1465692,-1911,-15393,-3686,21,88,-27
18,508,1465697,-1796,-15355,-3796,22,33,-38
18,509,1465702,-1793,-15373,-4052,21,1,-52
18,510,1465707,-1731,-15360,-4301,18,-4,-67
18,511,1465712,-1587,-15429,-4391,18,7,-79
18,512,1465717,-1439,-15528,-4492,18,27,-96
18,513,1465722,-1437,-15518,-4471,13,42,-117
18,514,1465727,-1573,-15505,-4210,10,62,-133
18,515,1465732,-1632,-15544,-4109,9,81,-150
18,516,1465737,-1505,-15474,-4188,9,110,-166
18,517,1465742,-1348,-15379,-4048,4,130,-183
18,518,1465747,-1239,-15467,-3813,3,117,-199
18,519,1465752,-1232,-15487,-3680,-1,69,-215
18,520,1465757,-1320,-15433,-3778,-1,31,-227
18,521,1465762,-1418,-15394,-4049,-1,29,-243
18,522,1465767,-1273,-15496,-4455,0,63,-255
18,523,1465772,-1208,-15650,-4362,-2,93,-276
18,524,1465777,-1248,-15746,-4027,-10,75,-293
18,525,1465782,-1337,-15692,-3953,-12,20,-311
18,526,1465787,-1347,-15614,-4013,-11,-23,-326
18,527,1465792,-1279,-15616,-4095,-10,-32,-339
18,528,1465797,-1062,-15668,-4032,-13,-33,-354
18,529,1465802,-1018,-15771,-3919,-14,-54,-368
18,530,1465807,-1101,-15922,-3940,-17,-94,-387
18,531,1465812,-1166,-15935,-4035,-17,-120,-405
18,532,1465817,-1081,-15941,-4059,-19,-107,-417
18,533,1465822,-1052,-16092,-4045,-21,-85,-434
18,534,1465827,-944,-16230,-4094,-23,-93,-450
18,535,1465832,-940,-16257,-4097,-29,-135,-464
18,536,1465837,-1040,-16168,-4173,-27,-178,-478
18,537,1465842,-1091,-16239,-4514,-29,-186,-495
18,538,1465847,-1100,-16209,-4771,-29,-151,-509
18,539,1465852,-1043,-16228,-4741,-31,-105,-526
18,540,1465857,-1051,-16238,-4476,-40,-82,-543
18,541,1465862,-1085,-16148,-4199,-41,-96,-560
18,542,1465867,-1052,-16102,-4262,-40,-105,-574
18,543,1465872,-815,-16178,-4717,-34,-79,-585
18,544,1465877,-787,-16289,-4697,-40,-26,-606
18,545,1465882,-1079,-16169,-4105,-46,-12,-625
18,546,1465887,-1107,-15890,-3973,-46,-46,-635
18,547,1465892,-957,-15858,-4272,-48,-66,-643
18,548,1465897,-760,-16044,-4302,-53,-45,-653
18,549,1465902,-662,-16104,-3969,-56,-27,-664
18,550,1465907,-635,-16075,-3739,-56,-65,-669
18,551,1465912,-435,-16128,-4155,-58,-133,-678
18,552,1465917,-274,-16221,-4483,-62,-167,-686
18,553,1465922,-403,-16268,-4273,-65,-165,-700
18,554,1465927,-555,-16331,-4053,-66,-158,-708
18,555,1465932,-555,-16294,-4123,-68,-164,-716
18,556,1465937,-424,-16210,-4227,-69,-158,-724
18,557,1465942,-218,-16258,-4316,-72,-150,-729
18,558,1465947,-206,-16464,-4373,-76,-147,-740
18,559,1465952,-208,-16476,-4349,-82,-148,-748
18,560,1465957,-264,-16435,-4421,-83,-154,-758
18,561,1465962,-484,-16521,-4758,-80,-145,-766
18,562,1465967,-633,-16619,-4875,-79,-107,-776
18,563,1465972,-394,-16547,-4839,-82,-27,-790
18,564,1465977,-200,-16487,-4848,-87,10,-798
18,565,1465982,-148,-16616,-4364,-91,24,-808
18,566,1465987,-186,-16653,-3744,-89,7,-816
18,567,1465992,-71,-16625,-3927,-83,-16,-823
18,568,1465997,26,-16650,-4331,-82,12,-832
18,569,1466002,-11,-16673,-4044,-85,53,-842
18,570,1466007,67,-16643,-3746,-90,42,-849
18,571,1466012,121,-16663,-3766,-92,-13,-854
18,572,1466017,-48,-16822,-3875,-90,-64,-864
18,573,1466022,-56,-16909,-4017,-90,-73,-869
18,574,1466027,21,-16873,-3881,-93,-59,-873
18,575,1466032,-22,-16860,-3690,-90,-61,-884
18,576,1466037,-11,-16904,-3841,-89,-95,-892
18,577,1466042,-132,-16970,-4217,-86,-136,-897
18,578,1466047,-270,-17039,-4618,-85,-141,-905
18,579,1466052,-495,-16957,-4549,-90,-107,-917
18,580,1466057,-489,-16997,-4535,-93,-78,-929
18,581,1466062,-405,-17171,-4664,-87,-66,-938
18,582,1466067,-420,-17160,-4674,-86,-65,-949
18,583,1466072,-689,-17150,-4571,-89,-67,-967
18,584,1466077,-998,-17225,-4502,-89,-66,-978
18,585,1466082,-1121,-17331,-4300,-88,-54,-987
18,586,1466087,-1316,-17432,-3978,-89,-33,-999
18,587,1466092,-1389,-17558,-3926,-85,-37,-1008
18,588,1466097,-1350,-17620,-3838,-86,-54,-1020
18,589,1466102,-1288,-17559,-3600,-88,-86,-1030
18,590,1466107,-1358,-17611,-3440,-89,-128,-1038
18,591,1466112,-1337,-17643,-3547,-91,-161,-1044
18,592,1466117,-1153,-17688,-3492,-94,-168,-1051
18,593,1466122,-1029,-17652,-3405,-97,-154,-1059
18,594,1466127,-1048,-17757,-3323,-98,-137,-1067
18,595,1466132,-1162,-17873,-3275,-104,-126,-1076
18,596,1466137,-1106,-18001,-3373,-110,-118,-1083
18,597,1466142,-1231,-17998,-3082,-117,-116,-1089
18,598,1466147,-1292,-16880,-2927,-123,-147,-1094
18,599,1466152,-960,-4006,-7529,-111,-231,-1047
18,600,1466157,-20630,-928,15246,-195,479,-1237
18,601,1466162,12928,-16164,-14977,34,-687,-273
18,602,1466167,2450,-15666,-265,-61,878,-712
18,603,1466172,471,-20585,3257,-74,341,-913
18,604,1466177,-251,-17663,716,-78,-1238,-786
18,605,1466182,-1046,-15306,-10443,-56,-1747,-737
18,606,1466187,-4728,-17541,-10509,-51,-594,-765
18,607,1466192,-4860,-17485,-4081,-126,346,-816
18,608,1466197,-2777,-14637,-1635,-135,389,-862
18,609,1466202,-368,-16087,-3626,-76,127,-817
18,610,1466207,-768,-17217,-3991,-88,146,-836
18,611,1466212,-1306,-16728,-1970,-98,192,-836
18,612,1466217,-1574,-16458,-1287,-89,95,-838
18,613,1466222,-1781,-16602,-2973,-97,-36,-853
18,614,1466227,-1780,-16542,-3614,-106,-37,-842
18,615,1466232,-1801,-16200,-2766,-108,10,-833
18,616,1466237,-1957,-16046,-2667,-105,-16,-828
18,617,1466242,-1810,-16016,-3433,-102,-26,-824
18,618,1466247,-1301,-16047,-4135,-104,22,-820
18,619,1466252,-986,-16158,-3299,-112,75,-816
18,620,1466257,-1650,-16100,-1669,-113,-1,-813
18,621,1466262,-1231,-15986,-4536,-99,-160,-801
18,622,1466267,-1232,-16129,-4763,-103,-12,-789
18,623,1466272,-1829,-15833,-2776,-107,159,-794
18,624,1466277,-889,-15996,-3004,-97,58,-785
18,625,1466282,-779,-15799,-3577,-96,-97,-783
18,626,1466287,-761,-15461,-4258,-99,-158,-773
18,627,1466292,-937,-15582,-3680,-88,-100,-738
18,628,1466297,-1436,-15690,-2651,-81,-91,-710
18,629,1466302,-1068,-15851,-3307,-70,-173,-690
18,630,1466307,-810,-15983,-3551,-70,-200,-684
18,631,1466312,-826,-15971,-3302,-76,-175,-673
18,632,1466317,-776,-16118,-3050,-72,-169,-649
18,633,1466322,-566,-16017,-3364,-70,-201,-637
18,634,1466327,-439,-15853,-3677,-66,-215,-624
18,635,1466332,-713,-15896,-3504,-63,-202,-605
18,636,1466337,-955,-15824,-3462,-60,-202,-585
18,637,1466342,-797,-15552,-3799,-52,-149,-545
18,638,1466347,-232,-15489,-3380,-54,-125,-526
18,639,1466352,49,-15590,-3396,-52,-169,-513
18,640,1466357,-92,-15638,-3812,-48,-222,-508
18,641,1466362,-690,-15534,-4027,-42,-237,-490
18,642,1466367,-709,-15452,-4377,-40,-199,-467
18,643,1466372,-436,-15360,-4168,-37,-101,-454
18,644,1466377,-23,-15454,-3912,-33,-25,-433
18,645,1466382,356,-15618,-3860,-27,-5,-419
18,646,1466387,208,-15552,-3495,-27,-11,-411
18,647,1466392,-180,-15382,-3384,-22,-22,-396
18,648,1466397,58,-15336,-3865,-13,-10,-375
18,649,1466402,363,-15399,-3595,-15,19,-355
18,650,1466407,365,-15609,-2948,-16,-3,-340
18,651,1466412,362,-15589,-3042,-10,-77,-323
18,652,1466417,302,-15503,-3848,-2,-103,-306
18,653,1466422,157,-15544,-3741,1,-21,-288
18,654,1466427,228,-15528,-3130,1,24,-276
18,655,1466432,536,-15612,-3230,6,-21,-260
18,656,1466437,831,-15684,-3965,11,-79,-247
18,657,1466442,778,-15744,-4279,15,-78,-235
18,658,1466447,688,-15705,-4256,21,-46,-221
18,659,1466452,830,-15545,-4609,24,-28,-212
18,660,1466457,935,-15589,-4811,27,5,-206
18,661,1466462,982,-15733,-4429,28,54,-199
18,662,1466467,986,-15687,-3859,33,78,-190
18,663,1466472,919,-15657,-3669,43,68,-182
18,664,1466477,1009,-15683,-3780,46,55,-173
18,665,1466482,1168,-15708,-3589,51,49,-168
18,666,1466487,1149,-15581,-3203,56,17,-162
18,667,1466492,1052,-15512,-3491,62,-50,-150
18,668,1466497,1196,-15500,-4191,62,-93,-139
18,669,1466502,1351,-15606,-4433,60,-90,-131
18,670,1466507,1314,-15660,-4238,64,-77,-127
18,671,1466512,1362,-15736,-4167,64,-70,-122
18,672,1466517,1558,-15749,-4180,67,-63,-122
18,673,1466522,1739,-15735,-4230,70,-44,-122
18,674,1466527,1789,-15896,-4173,71,-17,-119
18,675,1466532,1776,-15776,-3897,71,5,-113
18,676,1466537,1657,-15694,-3906,73,-3,-105
18,677,1466542,1647,-15358,-4092,75,-13,-114
18,678,1466547,1996,-15299,-4447,74,-14,-100
18,679,1466552,2202,-15601,-4176,70,26,-100
18,680,1466557,1973,-15501,-3913,63,34,-125
18,681,1466562,1757,-15352,-3845,64,3,-131
18,682,1466567,1733,-15333,-4185,63,-27,-120
18,683,1466572,1918,-15274,-4213,68,-31,-106
18,684,1466577,2006,-15321,-4040,67,-24,-101
18,685,1466582,2078,-15383,-4049,64,-28,-102
18,686,1466587,2193,-15286,-4304,63,-34,-105
18,687,1466592,2299,-15344,-4590,64,-27,-102
18,688,1466597,2388,-15465,-4579,61,4,-101
18,689,1466602,2543,-15579,-4478,60,30,-98
18,690,1466607,2647,-15654,-4469,56,44,-98
18,691,1466612,2612,-15588,-4344,54,59,-98
18,692,1466617,2499,-15570,-4001,49,66,-97
18,693,1466622,2404,-15558,-3928,49,60,-94
18,694,1466627,2691,-15551,-4096,45,47,-91
18,695,1466632,2984,-15567,-4081,38,33,-86
18,696,1466637,3075,-15644,-3860,34,11,-84
18,697,1466642,3074,-15672,-3842,30,-33,-81
18,698,1466647,3084,-15616,-4135,29,-70,-75
18,699,1466652,3030,-15563,-4392,27,-82,-74
18,700,1466657,2877,-15489,-4384,25,-87,-73
18,701,1466662,2783,-15417,-4364,20,-92,-72
18,702,1466667,2800,-15408,-4484,18,-104,-72
18,703,1466672,2960,-15433,-4580,16,-104,-67
18,704,1466677,3096,-15537,-4593,16,-89,-66
18,705,1466682,3134,-15580,-4470,13,-80,-70
18,706,1466687,3063,-15585,-4378,10,-92,-68
18,707,1466692,2852,-15599,-4557,7,-109,-68
18,708,1466697,2716,-15559,-4681,5,-107,-68
18,709,1466702,2731,-15513,-4642,1,-82,-67
18,710,1466707,2891,-15634,-4663,1,-25,-71
18,711,1466712,2954,-15631,-4464,-4,-15,-74
18,712,1466717,2954,-15597,-4375,-6,-22,-72
18,713,1466722,2908,-15502,-4364,-6,-29,-73
18,714,1466727,2913,-15465,-4321,-8,-34,-72
18,715,1466732,2960,-15433,-4172,-10,-49,-66
18,716,1466737,3064,-15464,-4242,-11,-72,-63
18,717,1466742,3116,-15550,-4463,-11,-92,-60
18,718,1466747,3150,-15609,-4641,-12,-99,-57
18,719,1466752,3037,-15489,-4483,-18,-93,-59
18,720,1466757,2831,-15343,-4348,-20,-92,-57
18,721,1466762,2734,-15365,-4464,-20,-104,-53
18,722,1466767,3012,-15447,-4628,-20,-110,-48
18,723,1466772,3315,-15368,-4315,-20,-101,-44
18,724,1466777,3191,-15495,-4287,-17,-92,-50
18,725,1466782,2975,-15548,-4739,-14,-90,-53
18,726,1466787,2880,-15349,-4869,-19,-68,-52
18,727,1466792,2637,-15208,-4431,-24,-40,-56
18,728,1466797,2571,-15224,-4143,-25,-41,-52
18,729,1466802,2743,-15299,-4152,-27,-64,-46
18,730,1466807,2897,-15448,-4118,-28,-79,-40
18,731,1466812,2940,-15662,-4026,-25,-88,-40
18,732,1466817,3016,-15783,-3986,-28,-102,-39
18,733,1466822,3173,-15711,-4200,-27,-113,-35
18,734,1466827,3189,-15666,-4616,-27,-101,-36
18,735,1466832,2903,-15554,-4677,-33,-77,-40
18,736,1466837,2772,-15409,-4605,-35,-61,-41
18,737,1466842,2805,-15385,-4646,-36,-49,-37
18,738,1466847,2994,-15410,-4728,-33,-32,-37
18,739,1466852,3248,-15485,-4626,-33,-5,-37
18,740,1466857,3404,-15499,-4300,-33,13,-41
18,741,1466862,3224,-15409,-4163,-31,10,-42
18,742,1466867,2891,-15350,-4317,-32,-1,-45
18,743,1466872,2762,-15360,-4303,-34,8,-38
18,744,1466877,3126,-15592,-3967,-35,22,-31
18,745,1466882,3643,-15771,-3704,-35,17,-31
18,746,1466887,3652,-15846,-3707,-33,-10,-37
18,747,1466892,3211,-15731,-3971,-30,-48,-41
18,748,1466897,2954,-15511,-4400,-31,-65,-38
18,749,1466902,2801,-15307,-4550,-34,-48,-32
18,750,1466907,2829,-15302,-4262,-37,-28,-30
18,751,1466912,3175,-15293,-3950,-38,-43,-23
18,752,1466917,3522,-15333,-3919,-35,-78,-22
18,753,1466922,3665,-15479,-4150,-32,-113,-20
18,754,1466927,3620,-15528,-4289,-29,-124,-20
18,755,1466932,3622,-15515,-4433,-28,-118,-20
18,756,1466937,3500,-15556,-4547,-31,-104,-24
18,757,1466942,3301,-15616,-4450,-31,-89,-29
18,758,1466947,3293,-15473,-4388,-30,-78,-27
18,759,1466952,3279,-15478,-4410,-27,-60,-24
18,760,1466957,3185,-15581,-4350,-26,-46,-23
18,761,1466962,3296,-15567,-4247,-24,-37,-25
18,762,1466967,3270,-15614,-4159,-22,-41,-24
18,763,1466972,3261,-15698,-4171,-19,-54,-21
18,764,1466977,3296,-15764,-4281,-20,-59,-20
18,765,1466982,3403,-15823,-4389,-22,-47,-17
18,766,1466987,3465,-15854,-4317,-22,-32,-19
18,767,1466992,3536,-15721,-4244,-23,-25,-23
18,768,1466997,3541,-15586,-4328,-22,-20,-22
18,769,1467002,3460,-15565,-4465,-21,3,-24
18,770,1467007,3412,-15539,-4448,-20,29,-22
18,771,1467012,3436,-15473,-4292,-18,52,-18
18,772,1467017,3510,-15445,-4111,-17,47,-18
18,773,1467022,3676,-15413,-4029,-16,15,-15
18,774,1467027,3672,-15398,-3990,-14,-15,-14
18,775,1467032,3470,-15319,-4194,-8,-26,-12
18,776,1467037,3268,-15229,-4533,-4,-16,-14
18,777,1467042,3240,-15138,-4770,-7,9,-12
18,778,1467047,3394,-15168,-4727,-5,26,-8
18,779,1467052,3528,-15249,-4552,-7,30,-8
18,780,1467057,3657,-15383,-4478,-8,22,-5
18,781,1467062,3599,-15407,-4365,-6,15,-6
18,782,1467067,3537,-15429,-4182,-2,11,-8
18,783,1467072,3200,-15397,-4029,1,-4,-6
18,784,1467077,3126,-15445,-4270,3,-17,-1
18,785,1467082,3267,-15482,-4387,5,-20,4
18,786,1467087,3372,-15493,-4141,5,-15,3
18,787,1467092,3338,-15554,-4107,5,-23,1
18,788,1467097,3348,-15663,-4281,6,-33,2
18,789,1467102,3359,-15664,-4304,8,-23,4
18,790,1467107,3297,-15568,-4218,9,5,5
18,791,1467112,3397,-15613,-4227,10,18,5
18,792,1467117,3512,-15700,-4314,9,23,4
18,793,1467122,3563,-15580,-4308,7,21,3
18,794,1467127,3410,-15497,-4263,3,18,0
18,795,1467132,3226,-15464,-4097,4,13,2
18,796,1467137,3308,-15434,-4149,5,13,5
18,797,1467142,3515,-15502,-4269,5,28,6
18,798,1467147,3456,-15631,-4187,9,37,1
18,799,1467152,3275,-15626,-4108,6,27,1
18,800,1467157,3157,-15496,-4200,9,4,2
18,801,1467162,3124,-15421,-4387,8,-3,4
18,802,1467167,3119,-15357,-4351,8,8,4
18,803,1467172,3228,-15400,-4126,7,18,4
18,804,1467177,3389,-15493,-4014,9,16,6
18,805,1467182,3469,-15619,-4110,10,10,3
18,806,1467187,3385,-15576,-4249,9,9,-3
18,807,1467192,3238,-15447,-4151,9,4,-6
18,808,1467197,3139,-15433,-4029,8,-17,-3
18,809,1467202,3213,-15438,-4162,8,-39,-5
18,810,1467207,3311,-15415,-4379,9,-43,-6
18,811,1467212,3343,-15480,-4509,10,-34,-6
18,812,1467217,3328,-15510,-4517,11,-27,-6
18,813,1467222,3307,-15464,-4442,10,-27,-8
18,814,1467227,3315,-15429,-4372,10,-33,-11
18,815,1467232,3408,-15440,-4347,11,-39,-7
18,816,1467237,3423,-15502,-4281,10,-41,-6
18,817,1467242,3484,-15569,-4233,13,-48,-7
18,818,1467247,3415,-15570,-4217,16,-54,-8
18,819,1467252,3262,-15556,-4318,16,-49,-10
18,820,1467257,3217,-15514,-4439,17,-35,-12
18,821,1467262,3352,-15510,-4563,15,-7,-15
18,822,1467267,3434,-15571,-4502,12,8,-15
18,823,1467272,3351,-15616,-4125,6,-2,-19
18,824,1467277,3235,-15521,-4026,7,-22,-22
18,825,1467282,3238,-15519,-4364,11,-32,-18
18,826,1467287,3241,-15590,-4468,14,-2,-18
18,827,1467292,3185,-15611,-4177,11,24,-21
18,828,1467297,3233,-15556,-4009,7,11,-26
18,829,1467302,3255,-15529,-4169,8,-24,-25
18,830,1467307,3229,-15536,-4413,11,-47,-21
18,831,1467312,3086,-15513,-4505,7,-40,-23
18,832,1467317,3047,-15617,-4486,7,-21,-24
18,833,1467322,3222,-15727,-4423,8,-9,-27
18,834,1467327,3276,-15653,-4390,5,-6,-28
18,835,1467332,3214,-15602,-4255,5,-3,-31
18,836,1467337,3143,-15525,-4164,5,-5,-33
18,837,1467342,3143,-15453,-4026,3,-12,-34
18,838,1467347,3135,-15466,-3967,4,-19,-34
18,839,1467352,3287,-15515,-4021,4,-30,-31
18,840,1467357,3359,-15470,-4160,4,-47,-28
18,841,1467362,3388,-15528,-4304,3,-65,-29
18,842,1467367,3293,-15549,-4428,2,-74,-31
18,843,1467372,3160,-15539,-4621,0,-67,-28
18,844,1467377,2942,-15550,-4649,1,-45,-33
18,845,1467382,2977,-15480,-4517,-1,-25,-35
18,846,1467387,3156,-15541,-4413,-4,-20,-31
18,847,1467392,3269,-15701,-4429,-3,-32,-28
18,848,1467397,3235,-15740,-4474,0,-55,-31
18,849,1467402,3068,-15675,-4460,0,-67,-31
18,850,1467407,2899,-15581,-4444,-1,-71,-33
18,851,1467412,2948,-15594,-4532,0,-61,-29
18,852,1467417,3116,-15614,-4482,1,-42,-28
18,853,1467422,3223,-15631,-4269,0,-24,-26
18,854,1467427,3131,-15623,-4170,-2,-23,-27
18,855,1467432,3188,-15600,-4306,-1,-29,-26
18,856,1467437,3285,-15510,-4354,-5,-24,-24
18,857,1467442,3124,-15411,-3987,-4,-42,-25
18,858,1467447,3085,-15402,-4238,-4,-66,-20
18,859,1467452,3112,-15390,-4401,-4,-69,-15
18,860,1467457,3089,-15415,-4267,-7,-58,-9
18,861,1467462,3140,-15454,-4214,-5,-51,-9
18,862,1467467,3358,-15451,-4529,-5,-51,-7
18,863,1467472,3362,-15438,-4600,-8,-48,-10
18,864,1467477,3227,-15414,-4448,-11,-55,-9
18,865,1467482,3071,-15416,-4508,-7,-72,-8
18,866,1467487,3081,-15363,-4723,-4,-69,-6
18,867,1467492,3034,-15385,-4607,-8,-38,-4
18,868,1467497,3104,-15471,-4392,-9,-10,-3
18,869,1467502,3117,-15517,-4258,-8,-7,-4
18,870,1467507,3099,-15573,-4275,-5,-21,-1
18,871,1467512,3041,-15600,-4393,-3,-30,-2
18,872,1467517,3072,-15541,-4503,-1,-26,1
18,873,1467522,3032,-15549,-4428,-3,-16,2
18,874,1467527,3050,-15601,-4376,-3,-8,3
18,875,1467532,3120,-15560,-4499,-3,-2,-3
18,876,1467537,3016,-15570,-4518,-4,14,-4
18,877,1467542,2970,-15524,-4361,-5,31,-3
18,878,1467547,3052,-15480,-4259,-3,31,-4
18,879,1467552,3184,-15551,-4296,-4,24,-1
18,880,1467557,3293,-15506,-4325,-3,14,-1
18,881,1467562,3358,-15514,-4376,-1,1,0
18,882,1467567,3299,-15521,-4451,-4,-4,1
18,883,1467572,3253,-15556,-4463,-7,3,-1
18,884,1467577,3225,-15506,-4324,-5,15,1
18,885,1467582,3203,-15510,-4005,-6,16,2
18,886,1467587,3247,-15573,-3888,-6,2,5
18,887,1467592,3373,-15528,-4117,-7,-13,5
18,888,1467597,3378,-15600,-4356,-3,-15,5
18,889,1467602,3195,-15548,-4381,-5,-6,0
18,890,1467607,3035,-15393,-4336,-4,-7,0
18,891,1467612,2925,-15359,-4512,-5,-9,1
18,892,1467617,3055,-15375,-4515,-8,-6,3
18,893,1467622,3209,-15497,-4265,-10,-8,5
18,894,1467627,3252,-15556,-4149,-6,-10,2
18,895,1467632,3280,-15482,-4325,-6,-19,0
18,896,1467637,3260,-15522,-4571,-4,-14,3
18,897,1467642,3294,-15549,-4606,-3,-1,5
18,898,1467647,3341,-15551,-4495,-2,13,3
18,899,1467652,3254,-15520,-4365,-3,21,0
18,900,1467657,3199,-15441,-4343,-2,24,0
18,901,1467662,3216,-15427,-4409,-1,39,1
18,902,1467667,3263,-15508,-4391,-2,56,-2
18,903,1467672,3324,-15575,-4185,1,55,-2
18,904,1467677,3307,-15634,-4109,-1,30,2
18,905,1467682,3283,-15604,-4288,0,5,3
18,906,1467687,3274,-15554,-4380,-1,-3,2
18,907,1467692,3315,-15529,-4358,-3,-5,1
18,908,1467697,3299,-15521,-4383,-3,-12,2
18,909,1467702,3293,-15558,-4458,-1,-21,6
18,910,1467707,3300,-15566,-4636,-1,-23,2
18,911,1467712,3427,-15558,-4591,-1,-13,1
18,912,1467717,3361,-15552,-4436,-1,8,-1
18,913,1467722,3204,-15519,-4270,-1,11,-5
18,914,1467727,3239,-15439,-4147,-2,-1,-4
18,915,1467732,3446,-15459,-4029,-2,-7,-2
18,916,1467737,3469,-15493,-3960,-4,-6,-3
18,917,1467742,3437,-15588,-4027,-6,-4,-3
18,918,1467747,3500,-15600,-4082,-6,-4,-2
18,919,1467752,3449,-15603,-4184,-4,-4,-2
18,920,1467757,3334,-15575,-4371,-5,-4,-6
18,921,1467762,3454,-15535,-4495,-10,-1,-3
18,922,1467767,3402,-15510,-4423,-11,9,-7
18,923,1467772,3357,-15472,-4350,-10,10,-6
18,924,1467777,3275,-15482,-4353,-8,9,-10
18,925,1467782,3293,-15464,-4318,-8,9,-5
18,926,1467787,3375,-15511,-4339,-10,4,-4
18,927,1467792,3473,-15613,-4466,-10,-7,-8
18,928,1467797,3442,-15637,-4502,-11,-21,-10
18,929,1467802,3283,-15540,-4573,-6,-27,-11
18,930,1467807,3212,-15486,-4732,-9,3,-8
18,931,1467812,3478,-15540,-4545,-9,18,-11
18,932,1467817,3550,-15584,-4288,-7,15,-12
18,933,1467822,3416,-15651,-4224,-7,-5,-15
18,934,1467827,3278,-15629,-4378,-7,-23,-17
18,935,1467832,3202,-15586,-4431,-5,-17,-16
18,936,1467837,3126,-15556,-4341,-4,3,-17
18,937,1467842,3119,-15526,-4243,-5,11,-20
18,938,1467847,3127,-15536,-4272,-3,4,-15
18,939,1467852,3301,-15513,-4381,0,-7,-16
18,940,1467857,3395,-15486,-4380,-5,-13,-19
18,941,1467862,3371,-15486,-4354,-9,-17,-20
18,942,1467867,3289,-15450,-4313,-6,-29,-19
18,943,1467872,3255,-15440,-4415,-5,-38,-21
18,944,1467877,3236,-15401,-4576,-4,-33,-22
18,945,1467882,3215,-15422,-4614,-2,-14,-21
18,946,1467887,3194,-15474,-4608,-1,0,-21
18,947,1467892,3269,-15457,-4566,-3,0,-21
18,948,1467897,3344,-15465,-4611,-1,-14,-24
18,949,1467902,3336,-15477,-4731,0,-22,-24
18,950,1467907,3185,-15411,-4790,0,-18,-23
18,951,1467912,3093,-15333,-4728,4,-3,-21
18,952,1467917,3084,-15309,-4611,4,18,-22
18,953,1467922,3173,-15333,-4537,4,46,-22
18,954,1467927,3215,-15376,-4227,3,68,-25
18,955,1467932,3139,-15408,-3808,1,56,-20
18,956,1467937,3238,-15413,-3790,1,17,-15
18,957,1467942,3301,-15500,-4082,0,-11,-13
18,958,1467947,3371,-15587,-4244,0,-19,-11
18,959,1467952,3450,-15559,-4221,-3,-20,-8
18,960,1467957,3349,-15586,-4197,-3,-37,-8
18,961,1467962,3154,-15568,-4350,-6,-54,-11
18,962,1467967,3082,-15548,-4624,-5,-49,-11
18,963,1467972,3122,-15445,-4659,-4,-22,-9
18,964,1467977,3142,-15404,-4520,-5,9,-7
18,965,1467982,3161,-15434,-4364,-6,17,-6
18,966,1467987,3283,-15355,-4306,-7,2,-5
18,967,1467992,3296,-15434,-4449,-8,-16,-5
18,968,1467997,3306,-15469,-4511,-5,-20,-1
18,969,1468002,3276,-15449,-4501,-7,-6,-1
18,970,1468007,3161,-15486,-4486,-7,9,-5
18,971,1468012,3187,-15458,-4600,-9,23,-2
18,972,1468017,3137,-15343,-4458,-11,37,-1
18,973,1468022,3060,-15368,-4395,-8,41,-3
18,974,1468027,3220,-15439,-4417,-6,41,-1
18,975,1468032,3303,-15445,-4440,-7,42,-1
18,976,1468037,3209,-15394,-4440,-8,38,1
18,977,1468042,3107,-15304,-4377,-11,21,-2
18,978,1468047,3035,-15219,-4310,-8,1,3
18,979,1468052,3182,-15238,-4478,-8,-6,2
18,980,1468057,3280,-15192,-4521,-9,9,1
18,981,1468062,3264,-15267,-4461,-6,23,-1
18,982,1468067,3198,-15304,-4420,-5,31,-3
18,983,1468072,3093,-15286,-4416,-6,30,-3
18,984,1468077,3147,-15279,-4342,-7,33,-2
18,985,1468082,3254,-15342,-4369,-7,38,-2
18,986,1468087,3333,-15445,-4427,-8,41,-4
18,987,1468092,3261,-15463,-4286,-9,29,-7
18,988,1468097,3278,-15453,-4256,-11,1,-5
18,989,1468102,3339,-15546,-4335,-11,-15,-2
18,990,1468107,3350,-15613,-4456,-10,-9,-2
18,991,1468112,3353,-15705,-4437,-10,5,-2
18,992,1468117,3388,-15724,-4333,-11,6,-4
18,993,1468122,3524,-15740,-4466,-9,-12,-4
18,994,1468127,3602,-15766,-4697,-10,-29,-4
18,995,1468132,3463,-15756,-4690,-12,-27,-9
18,996,1468137,3221,-15637,-4619,-10,-11,-10
18,997,1468142,3060,-15557,-4551,-10,9,-7
18,998,1468147,3111,-15454,-4439,-9,32,-7
18,999,1468152,3299,-15527,-4325,-5,43,-7
