event_id,seq,ts_ms,ax,ay,az,gx,gy,gz
9,0,305196,271,-17183,-2271,20,-191,-295
9,1,305201,318,-17381,-2188,15,-186,-281
9,2,305206,284,-17571,-2242,12,-188,-270
9,3,305211,310,-17697,-2291,6,-183,-260
9,4,305216,296,-17790,-2350,-3,-167,-247
9,5,305221,410,-17870,-2281,-9,-151,-234
9,6,305226,430,-17825,-2052,-15,-147,-220
9,7,305231,343,-17631,-1849,-19,-165,-203
9,8,305236,188,-17473,-1888,-22,-190,-190
9,9,305241,79,-17351,-1964,-29,-199,-174
9,10,305246,15,-17299,-2030,-34,-199,-159
9,11,305251,34,-17334,-1971,-37,-198,-145
9,12,305256,81,-17253,-1981,-43,-194,-131
9,13,305261,66,-17165,-1990,-50,-181,-117
9,14,305266,35,-17105,-2043,-56,-158,-106
9,15,305271,60,-16960,-2092,-64,-128,-96
9,16,305276,33,-16777,-1942,-70,-105,-88
9,17,305281,-62,-16714,-1820,-77,-97,-74
9,18,305286,-100,-16684,-1744,-80,-101,-61
9,19,305291,-61,-16653,-1746,-82,-105,-47
9,20,305296,40,-16673,-1775,-88,-105,-36
9,21,305301,77,-16674,-1837,-91,-104,-25
9,22,305306,113,-16695,-1874,-93,-104,-12
9,23,305311,103,-16648,-1817,-99,-100,0
9,24,305316,-37,-16631,-1780,-104,-87,10
9,25,305321,-42,-16622,-1823,-105,-69,20
9,26,305326,64,-16618,-1844,-109,-41,27
9,27,305331,182,-16558,-1771,-113,-17,40
9,28,305336,274,-16530,-1889,-113,-11,50
9,29,305341,154,-16552,-2077,-114,-10,53
9,30,305346,-30,-16438,-2014,-112,9,71
9,31,305351,50,-16418,-1987,-113,18,72
9,32,305356,72,-16519,-2047,-112,21,79
9,33,305361,117,-16404,-2048,-111,17,85
9,34,305366,58,-16369,-2040,-109,3,88
9,35,305371,-74,-16255,-2020,-104,-21,88
9,36,305376,-163,-16245,-2148,-101,-48,95
9,37,305381,-111,-16192,-2195,-99,-68,101
9,38,305386,-55,-16145,-2086,-94,-77,105
9,39,305391,-90,-16140,-2020,-89,-79,107
9,40,305396,-97,-16169,-2137,-80,-79,108
9,41,305401,-4,-16131,-2280,-80,-78,109
9,42,305406,78,-16115,-2228,-78,-67,107
9,43,305411,89,-16141,-2094,-73,-56,104
9,44,305416,22,-16172,-2166,-72,-52,104
9,45,305421,31,-16178,-2246,-68,-55,101
9,46,305426,114,-16172,-2151,-67,-49,98
9,47,305431,169,-16208,-2090,-62,-56,98
9,48,305436,199,-16287,-2065,-59,-66,95
9,49,305441,146,-16453,-2350,-54,-63,96
9,50,305446,126,-16488,-2382,-53,-37,90
9,51,305451,98,-16450,-2462,-53,-9,86
9,52,305456,117,-16400,-2662,-52,14,81
9,53,305461,157,-16398,-2865,-51,47,78
9,54,305466,186,-16492,-2860,-48,83,77
9,55,305471,119,-16553,-2581,-48,102,72
9,56,305476,107,-16557,-2320,-48,106,67
9,57,305481,30,-16527,-2189,-44,108,64
9,58,305486,-49,-16554,-2127,-42,120,60
9,59,305491,-69,-16584,-1938,-42,124,52
9,60,305496,-36,-16512,-1786,-38,111,51
9,61,305501,72,-16513,-1815,-38,84,49
9,62,305506,162,-16575,-1911,-33,54,45
9,63,305511,224,-16644,-1895,-32,36,41
9,64,305516,231,-16702,-1750,-35,18,35
9,65,305521,198,-16759,-1731,-33,-1,31
9,66,305526,160,-16758,-1787,-34,-7,27
9,67,305531,202,-16724,-1802,-35,-5,21
9,68,305536,228,-16701,-1759,-34,1,17
9,69,305541,196,-16621,-1772,-36,-3,11
9,70,305546,173,-16645,-1890,-37,-15,9
9,71,305551,151,-16590,-1920,-37,-23,8
9,72,305556,136,-16468,-1927,-40,-31,2
9,73,305561,102,-16419,-1925,-38,-37,1
9,74,305566,79,-16461,-2049,-37,-41,0
9,75,305571,157,-16405,-2138,-39,-37,-3
9,76,305576,339,-16354,-2117,-41,-37,-9
9,77,305581,434,-16438,-2299,-37,-40,-14
9,78,305586,369,-16400,-2377,-37,-38,-17
9,79,305591,288,-16341,-2366,-35,-39,-19
9,80,305596,223,-16265,-2258,-36,-40,-22
9,81,305601,231,-16272,-2231,-33,-38,-22
9,82,305606,320,-16279,-2166,-33,-31,-27
9,83,305611,303,-16287,-2126,-32,-22,-27
9,84,305616,254,-16288,-2078,-29,-26,-31
9,85,305621,200,-16262,-2149,-26,-32,-35
9,86,305626,217,-16233,-2235,-25,-39,-36
9,87,305631,236,-16232,-2119,-26,-41,-38
9,88,305636,234,-16223,-2017,-25,-39,-36
9,89,305641,192,-16218,-2122,-25,-41,-38
9,90,305646,262,-16273,-2201,-24,-35,-41
9,91,305651,349,-16313,-2177,-23,-24,-43
9,92,305656,373,-16373,-2160,-20,-23,-46
9,93,305661,437,-16423,-2330,-21,-25,-45
9,94,305666,456,-16415,-2523,-18,-19,-42
9,95,305671,430,-16428,-2456,-19,-6,-44
9,96,305676,308,-16423,-2336,-18,4,-47
9,97,305681,338,-16436,-2427,-15,14,-47
9,98,305686,398,-16443,-2486,-13,34,-44
9,99,305691,383,-16423,-2309,-14,60,-50
9,100,305696,363,-16375,-2206,-14,64,-49
9,101,305701,327,-16319,-2093,-9,56,-49
9,102,305706,239,-16322,-2087,-4,42,-51
9,103,305711,202,-16256,-1899,0,2,-46
9,104,305716,276,-16246,-1923,2,-25,-45
9,105,305721,266,-16249,-1964,6,-43,-45
9,106,305726,275,-16300,-2074,11,-57,-45
9,107,305731,300,-16368,-2119,11,-62,-47
9,108,305736,377,-16356,-2158,13,-66,-50
9,109,305741,437,-16322,-2217,13,-69,-50
9,110,305746,424,-16377,-2280,13,-67,-51
9,111,305751,420,-16350,-2283,16,-64,-50
9,112,305756,367,-16350,-2223,20,-64,-51
9,113,305761,376,-16368,-2166,19,-64,-51
9,114,305766,405,-16427,-2191,20,-61,-51
9,115,305771,427,-16462,-2217,23,-50,-50
9,116,305776,457,-16452,-2215,23,-41,-52
9,117,305781,461,-16403,-2247,25,-43,-52
9,118,305786,426,-16416,-2276,24,-46,-49
9,119,305791,411,-16445,-2259,24,-35,-47
9,120,305796,495,-16414,-2179,24,-26,-49
9,121,305801,520,-16444,-2107,25,-17,-46
9,122,305806,430,-16496,-2119,27,-14,-50
9,123,305811,344,-16445,-2083,30,-16,-49
9,124,305816,390,-16392,-2037,29,-14,-46
9,125,305821,452,-16374,-2018,26,-15,-47
9,126,305826,442,-16327,-2048,31,-24,-46
9,127,305831,415,-16309,-2083,31,-34,-43
9,128,305836,403,-16301,-2104,33,-38,-42
9,129,305841,411,-16302,-2044,33,-40,-40
9,130,305846,427,-16277,-2056,34,-46,-40
9,131,305851,430,-16245,-2106,34,-45,-40
9,132,305856,428,-16208,-2181,33,-36,-42
9,133,305861,400,-16214,-2214,34,-27,-40
9,134,305866,362,-16199,-2227,33,-19,-38
9,135,305871,347,-16197,-2311,34,-9,-39
9,136,305876,331,-16184,-2359,33,-2,-37
9,137,305881,368,-16203,-2293,36,-1,-36
9,138,305886,405,-16238,-2227,36,-8,-35
9,139,305891,491,-16262,-2243,35,-14,-34
9,140,305896,546,-16297,-2281,37,-11,-35
9,141,305901,467,-16370,-2294,38,-2,-34
9,142,305906,423,-16386,-2300,37,1,-31
9,143,305911,462,-16343,-2253,40,0,-29
9,144,305916,492,-16346,-2183,41,1,-30
9,145,305921,447,-16294,-2105,42,0,-28
9,146,305926,440,-16303,-2078,44,-3,-25
9,147,305931,437,-16287,-2026,43,-11,-25
9,148,305936,509,-16280,-2014,41,-14,-24
9,149,305941,545,-16316,-1977,42,-21,-23
9,150,305946,598,-16295,-2014,43,-30,-21
9,151,305951,557,-16307,-1986,44,-33,-18
9,152,305956,478,-16303,-2085,41,-34,-21
9,153,305961,443,-16287,-2133,42,-27,-19
9,154,305966,460,-16284,-2137,42,-18,-20
9,155,305971,487,-16284,-2120,42,-13,-19
9,156,305976,488,-16276,-2186,42,-14,-16
9,157,305981,500,-16259,-2136,43,-14,-15
9,158,305986,486,-16290,-2051,40,-14,-16
9,159,305991,417,-16234,-2071,41,-16,-15
9,160,305996,463,-16199,-2057,41,-16,-14
9,161,306001,465,-16287,-2020,41,-15,-13
9,162,306006,514,-16362,-1977,41,-17,-12
9,163,306011,527,-16364,-1929,40,-26,-11
9,164,306016,470,-16386,-1869,45,-34,-12
9,165,306021,423,-16379,-1903,42,-39,-13
9,166,306026,413,-16349,-1941,43,-43,-11
9,167,306031,394,-16353,-1977,45,-52,-8
9,168,306036,373,-16371,-2020,46,-58,-11
9,169,306041,384,-16426,-2154,43,-58,-13
9,170,306046,389,-16366,-2176,44,-62,-15
9,171,306051,396,-16386,-2271,47,-62,-11
9,172,306056,450,-16423,-2428,47,-56,-12
9,173,306061,430,-16399,-2495,48,-41,-14
9,174,306066,478,-16337,-2438,45,-20,-14
9,175,306071,421,-16313,-2382,44,4,-16
9,176,306076,329,-16324,-2353,45,32,-19
9,177,306081,423,-16272,-2221,39,97,-25
9,178,306086,486,-16293,-2081,37,117,-27
9,179,306091,484,-16260,-1986,36,128,-26
9,180,306096,480,-16254,-1876,37,121,-25
9,181,306101,525,-16269,-1783,38,109,-26
9,182,306106,565,-16257,-1787,39,92,-26
9,183,306111,484,-16317,-1802,40,82,-26
9,184,306116,416,-16346,-1806,39,68,-29
9,185,306121,383,-16308,-1784,39,58,-29
9,186,306126,387,-16323,-1827,38,51,-29
9,187,306131,412,-16386,-1829,39,49,-30
9,188,306136,440,-16416,-1835,40,38,-32
9,189,306141,438,-16424,-1865,39,23,-33
9,190,306146,439,-16407,-1894,40,10,-34
9,191,306151,482,-16414,-1928,38,5,-35
9,192,306156,528,-16413,-1930,37,1,-37
9,193,306161,487,-16416,-1936,38,2,-39
9,194,306166,586,-16400,-1952,39,2,-39
9,195,306171,600,-16350,-1960,37,3,-40
9,196,306176,638,-16340,-1983,34,3,-42
9,197,306181,554,-16343,-1994,36,-2,-42
9,198,306186,542,-16329,-2034,36,-12,-40
9,199,306191,619,-16311,-2080,39,-23,-40
9,200,306196,706,-16241,-1969,39,-31,-38
9,201,306201,622,-16192,-1915,35,-41,-40
9,202,306206,478,-16221,-2006,38,-51,-40
9,203,306211,500,-16261,-2063,41,-53,-39
9,204,306216,576,-16267,-2015,37,-49,-40
9,205,306221,604,-16299,-1955,37,-42,-43
9,206,306226,556,-16328,-1955,36,-38,-41
9,207,306231,497,-16369,-2066,36,-32,-40
9,208,306236,547,-16385,-2068,35,-15,-42
9,209,306241,584,-16408,-2039,34,-3,-45
9,210,306246,619,-16451,-2000,32,1,-43
9,211,306251,659,-16424,-2039,34,3,-40
9,212,306256,621,-16411,-2102,34,8,-40
9,213,306261,695,-16421,-2118,34,12,-40
9,214,306266,693,-16471,-2166,35,11,-39
9,215,306271,695,-16454,-2186,33,12,-36
9,216,306276,650,-16399,-2133,35,11,-38
9,217,306281,633,-16408,-2090,35,11,-38
9,218,306286,601,-16388,-2027,35,8,-35
9,219,306291,599,-16387,-2005,37,5,-31
9,220,306296,596,-16367,-1972,37,4,-31
9,221,306301,630,-16359,-1935,38,4,-28
9,222,306306,585,-16276,-1892,40,3,-29
9,223,306311,560,-16275,-1871,40,0,-27
9,224,306316,521,-16260,-1902,40,0,-24
9,225,306321,568,-16296,-1937,38,0,-23
9,226,306326,554,-16363,-1943,38,-2,-21
9,227,306331,544,-16347,-1878,39,-1,-21
9,228,306336,529,-16301,-1852,41,-1,-19
9,229,306341,514,-16319,-1896,39,-4,-19
9,230,306346,485,-16362,-1925,41,-5,-16
9,231,306351,566,-16388,-1851,41,-10,-16
9,232,306356,619,-16388,-1789,43,-13,-15
9,233,306361,551,-16345,-1826,40,-20,-13
9,234,306366,494,-16252,-1908,40,-20,-12
9,235,306371,475,-16264,-1983,41,-19,-12
9,236,306376,464,-16222,-2011,44,-16,-12
9,237,306381,533,-16198,-1996,43,-15,-8
9,238,306386,607,-16202,-1993,42,-20,-5
9,239,306391,586,-16182,-1939,44,-24,-7
9,240,306396,500,-16161,-1899,44,-24,-3
9,241,306401,460,-16172,-1946,43,-18,-3
9,242,306406,529,-16197,-1932,45,-9,-2
9,243,306411,552,-16246,-1869,44,-2,-4
9,244,306416,573,-16253,-1825,44,-3,-3
9,245,306421,658,-16306,-1853,42,-6,-2
9,246,306426,657,-16325,-1811,43,-7,-3
9,247,306431,552,-16359,-1742,40,-9,-4
9,248,306436,573,-16396,-1768,42,-9,-1
9,249,306441,616,-16393,-1852,40,-5,-2
9,250,306446,655,-16426,-1801,41,6,-2
9,251,306451,616,-16422,-1792,36,7,-2
9,252,306456,560,-16352,-1694,37,2,2
9,253,306461,487,-16334,-1705,36,0,0
9,254,306466,502,-16338,-1718,36,2,1
9,255,306471,560,-16350,-1723,38,2,2
9,256,306476,578,-16321,-1769,35,-1,1
9,257,306481,601,-16316,-1777,34,-7,0
9,258,306486,576,-16327,-1774,33,-15,1
9,259,306491,518,-16322,-1839,33,-21,0
9,260,306496,523,-16353,-1874,33,-25,0
9,261,306501,523,-16358,-1840,33,-24,-3
9,262,306506,515,-16369,-1807,32,-21,-6
9,263,306511,568,-16376,-1802,32,-20,-4
9,264,306516,625,-16383,-1799,32,-14,-3
9,265,306521,615,-16324,-1761,31,-8,-6
9,266,306526,667,-16308,-1677,28,-12,-5
9,267,306531,647,-16281,-1693,30,-17,-4
9,268,306536,629,-16305,-1706,28,-25,-3
9,269,306541,642,-16378,-1744,28,-33,-4
9,270,306546,657,-16382,-1722,26,-34,-4
9,271,306551,649,-16365,-1703,25,-34,-3
9,272,306556,646,-16360,-1782,26,-32,-5
9,273,306561,570,-16311,-1877,25,-21,-5
9,274,306566,548,-16308,-1842,21,-14,-7
9,275,306571,551,-16304,-1748,23,-13,-4
9,276,306576,623,-16293,-1716,22,-20,-2
9,277,306581,692,-16296,-1730,21,-28,-2
9,278,306586,643,-16334,-1795,22,-28,-5
9,279,306591,593,-16286,-1856,18,-28,-4
9,280,306596,597,-16242,-1876,20,-26,-3
9,281,306601,581,-16294,-1920,19,-19,-2
9,282,306606,556,-16328,-1928,17,-7,-3
9,283,306611,596,-16305,-1978,15,4,-4
9,284,306616,643,-16274,-1822,16,7,-4
9,285,306621,611,-16295,-1788,15,6,-6
9,286,306626,552,-16343,-1852,16,3,-5
9,287,306631,485,-16371,-1900,14,4,-3
9,288,306636,511,-16389,-1928,16,6,-7
9,289,306641,571,-16416,-1896,18,2,-7
9,290,306646,570,-16428,-1810,17,3,-3
9,291,306651,555,-16438,-1839,15,2,-3
9,292,306656,541,-16395,-1850,15,4,-7
9,293,306661,609,-16401,-1849,15,13,-7
9,294,306666,687,-16341,-1772,13,11,-3
9,295,306671,700,-16325,-1743,17,8,-3
9,296,306676,652,-16292,-1800,16,4,-3
9,297,306681,690,-16312,-1777,13,0,-4
9,298,306686,749,-16338,-1784,12,-3,-1
9,299,306691,793,-16340,-1761,12,-9,2
9,300,306696,694,-16343,-1877,12,-9,-1
9,301,306701,587,-16283,-1949,15,-4,-1
9,302,306706,551,-16284,-1926,15,-2,3
9,303,306711,644,-16291,-1835,12,-2,1
9,304,306716,736,-16284,-1818,12,-4,0
9,305,306721,764,-16312,-1825,14,-7,0
9,306,306726,689,-16305,-1812,13,-17,3
9,307,306731,652,-16263,-1808,13,-25,4
9,308,306736,650,-16282,-1879,15,-31,4
9,309,306741,684,-16332,-1916,15,-29,3
9,310,306746,666,-16394,-1872,11,-21,1
9,311,306751,655,-16381,-1880,10,-15,3
9,312,306756,698,-16378,-1887,9,-8,4
9,313,306761,667,-16329,-1894,8,5,2
9,314,306766,608,-16261,-1789,7,19,-2
9,315,306771,591,-16288,-1675,5,23,0
9,316,306776,567,-16272,-1657,4,22,2
9,317,306781,588,-16281,-1668,5,17,0
9,318,306786,609,-16345,-1634,9,11,1
9,319,306791,683,-16388,-1577,4,4,4
9,320,306796,624,-16384,-1616,5,-1,1
9,321,306801,555,-16375,-1682,7,-2,-1
9,322,306806,518,-16392,-1786,5,3,-2
9,323,306811,582,-16349,-1796,2,14,-3
9,324,306816,580,-16445,-1788,1,9,-2
9,325,306821,625,-16482,-1787,3,-1,0
9,326,306826,662,-16472,-1744,2,-9,-1
9,327,306831,605,-16488,-1708,1,-13,-4
9,328,306836,521,-16445,-1685,2,-17,-2
9,329,306841,514,-16396,-1696,3,-15,-3
9,330,306846,518,-16362,-1738,4,-10,-4
9,331,306851,525,-16334,-1681,4,-11,-5
9,332,306856,567,-16317,-1652,1,-21,-2
9,333,306861,604,-16353,-1623,0,-32,1
9,334,306866,589,-16345,-1622,2,-37,-3
9,335,306871,589,-16319,-1664,3,-42,-5
9,336,306876,570,-16315,-1676,3,-43,-2
9,337,306881,541,-16314,-1708,-1,-37,-4
9,338,306886,538,-16310,-1760,0,-36,-4
9,339,306891,594,-16337,-1842,1,-29,-4
9,340,306896,557,-16369,-1860,0,-17,-6
9,341,306901,577,-16384,-1827,0,-11,-8
9,342,306906,593,-16411,-1803,0,-5,-9
9,343,306911,617,-16402,-1799,-1,-3,-10
9,344,306916,670,-16404,-1805,-1,-8,-8
9,345,306921,675,-16450,-1790,2,-13,-6
9,346,306926,659,-16476,-1814,1,-17,-10
9,347,306931,677,-16465,-1788,3,-20,-8
9,348,306936,603,-16436,-1793,5,-19,-7
9,349,306941,572,-16389,-1825,3,-16,-7
9,350,306946,559,-16374,-1798,2,-15,-8
9,351,306951,559,-16373,-1826,5,-14,-10
9,352,306956,578,-16413,-1796,3,-16,-9
9,353,306961,625,-16450,-1718,6,-15,-8
9,354,306966,631,-16374,-1691,6,-16,-9
9,355,306971,568,-16320,-1707,3,-14,-11
9,356,306976,482,-16320,-1770,3,-6,-13
9,357,306981,522,-16310,-1742,0,0,-15
9,358,306986,597,-16303,-1787,1,0,-13
9,359,306991,594,-16357,-1715,2,1,-14
9,360,306996,619,-16410,-1725,4,-1,-15
9,361,307001,629,-16409,-1725,3,-2,-16
9,362,307006,639,-16336,-1750,2,0,-14
9,363,307011,596,-16298,-1764,4,3,-18
9,364,307016,522,-16311,-1843,2,5,-20
9,365,307021,513,-16316,-1886,4,8,-18
9,366,307026,573,-16251,-1853,4,6,-18
9,367,307031,548,-16229,-1783,4,5,-16
9,368,307036,459,-16245,-1734,4,3,-17
9,369,307041,354,-16283,-1766,4,3,-18
9,370,307046,302,-16339,-1856,6,5,-19
9,371,307051,406,-16313,-1862,7,8,-19
9,372,307056,364,-16285,-1791,7,9,-18
9,373,307061,278,-16316,-1813,7,1,-17
9,374,307066,305,-16262,-1814,7,0,-15
9,375,307071,345,-16324,-1744,7,0,-12
9,376,307076,319,-16412,-1708,6,5,-15
9,377,307081,217,-16404,-1538,8,3,-10
9,378,307086,162,-16386,-1347,8,-5,-6
9,379,307091,219,-16346,-1227,9,-11,-2
9,380,307096,340,-16348,-1293,7,-14,2
9,381,307101,333,-16389,-1349,9,-18,4
9,382,307106,269,-16496,-1256,11,-32,9
9,383,307111,169,-16536,-1191,12,-57,15
9,384,307116,178,-16521,-1238,13,-81,29
9,385,307121,150,-16484,-1286,16,-89,33
9,386,307126,-17,-16457,-1292,16,-91,37
9,387,307131,-114,-16545,-1292,19,-99,46
9,388,307136,-227,-16631,-1461,21,-106,55
9,389,307141,-337,-16665,-1572,23,-102,65
9,390,307146,-353,-16675,-1547,27,-101,77
9,391,307151,-330,-16620,-1442,28,-100,84
9,392,307156,-409,-16581,-1494,31,-102,93
9,393,307161,-559,-16652,-1629,37,-103,105
9,394,307166,-779,-16728,-1677,41,-97,113
9,395,307171,-878,-16766,-1567,46,-99,128
9,396,307176,-676,-16837,-1478,55,-89,152
9,397,307181,-751,-16852,-1280,61,-69,165
9,398,307186,-804,-16784,-1119,67,-64,180
9,399,307191,-819,-16567,-1205,73,-62,194
9,400,307196,-822,-16343,-1391,79,-57,210
9,401,307201,-889,-16198,-1362,86,-56,222
9,402,307206,-1102,-16127,-1378,96,-68,243
9,403,307211,-1120,-16099,-1553,107,-89,265
9,404,307216,-970,-16003,-1643,113,-93,282
9,405,307221,-1043,-15955,-1511,123,-94,297
9,406,307226,-1224,-16000,-1504,130,-101,313
9,407,307231,-1277,-16044,-1663,137,-107,338
9,408,307236,-1239,-16066,-1651,147,-97,357
9,409,307241,-1241,-15905,-1487,155,-77,375
9,410,307246,-1178,-15883,-1561,164,-63,390
9,411,307251,-1401,-15850,-1677,172,-36,407
9,412,307256,-1485,-15848,-1643,177,-7,429
9,413,307261,-1365,-15836,-1529,183,27,447
9,414,307266,-1312,-15858,-1322,193,58,465
9,415,307271,-1479,-16002,-1243,199,74,481
9,416,307276,-1612,-16079,-1152,204,89,499
9,417,307281,-1698,-16152,-1026,209,102,519
9,418,307286,-1819,-16219,-813,215,105,538
9,419,307291,-1878,-16296,-729,220,98,558
9,420,307296,-1874,-16279,-728,227,91,579
9,421,307301,-1888,-16355,-648,237,86,598
9,422,307306,-2017,-16448,-503,243,71,611
9,423,307311,-2307,-16533,-267,247,53,630
9,424,307316,-2390,-16632,-498,256,31,651
9,425,307321,-2326,-16657,-737,259,33,669
9,426,307326,-2194,-16700,-767,264,33,684
9,427,307331,-2112,-16738,-576,272,9,700
9,428,307336,-2167,-16669,-613,278,-35,717
9,429,307341,-2257,-16551,-834,287,-61,731
9,430,307346,-2363,-16449,-1057,293,-58,747
9,431,307351,-2335,-16403,-1140,297,-35,758
9,432,307356,-2340,-16394,-1135,300,-6,770
9,433,307361,-2358,-16450,-1156,303,18,783
9,434,307366,-2505,-16424,-1118,301,52,792
9,435,307371,-2724,-16410,-978,302,86,804
9,436,307376,-2900,-16424,-733,301,113,815
9,437,307381,-2792,-16466,-640,306,135,828
9,438,307386,-2501,-16432,-676,308,160,836
9,439,307391,-2445,-16392,-623,308,186,848
9,440,307396,-2471,-16408,-672,309,187,857
9,441,307401,-2453,-16433,-777,312,178,867
9,442,307406,-2520,-16449,-766,309,177,874
9,443,307411,-2685,-16557,-631,307,192,882
9,444,307416,-2897,-16561,-441,306,220,886
9,445,307421,-2893,-16491,-467,306,236,897
9,446,307426,-2779,-16509,-495,303,257,904
9,447,307431,-2619,-16450,-489,301,265,903
9,448,307436,-2570,-16417,-507,299,253,911
9,449,307441,-2634,-16428,-609,300,229,916
9,450,307446,-2715,-16362,-698,300,212,922
9,451,307451,-2628,-16333,-752,296,218,921
9,452,307456,-2629,-16274,-895,293,242,924
9,453,307461,-2774,-16278,-922,287,277,923
9,454,307466,-3048,-16468,-767,280,305,915
9,455,307471,-3114,-16510,-617,275,325,912
9,456,307476,-3007,-16423,-489,268,346,915
9,457,307481,-2913,-16389,-224,262,370,911
9,458,307486,-2774,-16489,-508,258,375,905
9,459,307491,-2721,-16573,-477,249,374,902
9,460,307496,-2688,-16512,-260,247,346,897
9,461,307501,-2746,-16488,-191,246,301,894
9,462,307506,-2881,-16495,-528,241,262,890
9,463,307511,-2997,-16510,-816,235,256,877
9,464,307516,-3148,-16502,-734,228,268,868
9,465,307521,-3175,-16524,-755,222,280,859
9,466,307526,-3259,-16510,-754,212,297,846
9,467,307531,-3132,-16432,-625,204,312,838
9,468,307536,-2981,-16356,-412,198,319,831
9,469,307541,-3176,-16440,-176,186,283,810
9,470,307546,-3133,-16388,-272,178,258,801
9,471,307551,-2936,-16282,-358,171,252,793
9,472,307556,-2832,-16225,-458,168,247,779
9,473,307561,-2864,-16277,-637,162,230,765
9,474,307566,-3012,-16324,-770,154,218,748
9,475,307571,-3003,-16208,-868,144,216,738
9,476,307576,-3002,-16258,-1097,137,228,726
9,477,307581,-3165,-16369,-1087,127,262,709
9,478,307586,-3307,-16388,-1013,116,295,694
9,479,307591,-3303,-16345,-892,108,315,682
9,480,307596,-3129,-16343,-904,105,329,669
9,481,307601,-3018,-16268,-963,98,338,656
9,482,307606,-2968,-16135,-910,90,333,642
9,483,307611,-3014,-15993,-954,86,317,630
9,484,307616,-3013,-15937,-1159,82,303,619
9,485,307621,-3098,-15940,-1264,78,299,602
9,486,307626,-3221,-15974,-1117,70,303,588
9,487,307631,-3210,-15945,-898,63,293,575
9,488,307636,-3128,-15871,-768,56,289,562
9,489,307641,-3076,-15859,-683,52,292,543
9,490,307646,-3055,-15850,-660,47,292,528
9,491,307651,-2948,-15869,-633,39,279,514
9,492,307656,-2879,-15905,-589,34,259,500
9,493,307661,-2837,-15898,-525,28,239,485
9,494,307666,-2847,-15870,-579,21,224,474
9,495,307671,-2846,-15872,-661,12,213,460
9,496,307676,-2842,-15889,-658,8,213,443
9,497,307681,-2836,-15872,-722,2,217,427
9,498,307686,-2860,-15836,-664,-10,221,409
9,499,307691,-2805,-15807,-726,-15,222,392
9,500,307696,-2725,-15815,-787,-21,219,373
9,501,307701,-2690,-15857,-634,-30,211,359
9,502,307706,-2675,-15814,-559,-33,179,345
9,503,307711,-2623,-15798,-603,-37,140,328
9,504,307716,-2644,-15795,-776,-41,109,312
9,505,307721,-2743,-15818,-836,-45,85,294
9,506,307726,-2738,-15974,-932,-47,62,276
9,507,307731,-2522,-16040,-1053,-48,34,259
9,508,307736,-2283,-16032,-1168,-52,16,241
9,509,307741,-2200,-16089,-1184,-58,4,222
9,510,307746,-2215,-16090,-1274,-61,-1,201
9,511,307751,-2156,-16092,-1310,-62,3,178
9,512,307756,-2071,-16076,-1276,-65,12,158
9,513,307761,-1988,-16062,-1259,-72,26,142
9,514,307766,-2033,-16108,-1252,-75,38,119
9,515,307771,-2014,-16124,-1216,-80,44,99
9,516,307776,-1977,-16069,-1137,-84,47,81
9,517,307781,-1896,-15980,-1090,-91,45,56
9,518,307786,-1920,-15964,-1110,-93,48,37
9,519,307791,-1912,-15972,-1139,-95,44,18
9,520,307796,-1838,-16108,-1168,-99,47,-5
9,521,307801,-1722,-16099,-1097,-103,54,-27
9,522,307806,-1720,-16143,-934,-107,66,-55
9,523,307811,-1937,-16211,-829,-114,71,-78
9,524,307816,-1991,-16316,-872,-114,70,-98
9,525,307821,-1676,-16337,-792,-118,67,-117
9,526,307826,-1439,-16256,-578,-121,56,-140
9,527,307831,-1468,-16282,-516,-122,26,-165
9,528,307836,-1582,-16285,-748,-120,-10,-189
9,529,307841,-1652,-16270,-956,-124,-32,-209
9,530,307846,-1678,-16230,-963,-126,-44,-232
9,531,307851,-1569,-16226,-1025,-128,-53,-255
9,532,307856,-1549,-16269,-1140,-131,-50,-280
9,533,307861,-1549,-16290,-1157,-133,-43,-306
9,534,307866,-1560,-16260,-997,-136,-39,-332
9,535,307871,-1568,-16237,-883,-141,-44,-357
9,536,307876,-1498,-16251,-959,-140,-48,-381
9,537,307881,-1440,-16310,-912,-141,-47,-406
9,538,307886,-1439,-16386,-903,-146,-52,-431
9,539,307891,-1429,-16458,-926,-149,-65,-454
9,540,307896,-1478,-16479,-1008,-148,-75,-479
9,541,307901,-1418,-16495,-1077,-149,-73,-502
9,542,307906,-1437,-16480,-1067,-152,-62,-527
9,543,307911,-1369,-16506,-1220,-154,-31,-578
9,544,307916,-1341,-16550,-1256,-159,-10,-602
9,545,307921,-1325,-16551,-1195,-161,12,-631
9,546,307926,-1323,-16552,-1175,-160,25,-654
9,547,307931,-1376,-16627,-1119,-163,28,-680
9,548,307936,-1329,-16675,-1120,-162,30,-702
9,549,307941,-1281,-16735,-1117,-160,34,-726
9,550,307946,-1267,-16845,-1063,-163,35,-753
9,551,307951,-1298,-16922,-1044,-162,31,-780
9,552,307956,-1381,-16909,-976,-162,25,-803
9,553,307961,-1494,-16916,-994,-159,20,-826
9,554,307966,-1599,-16962,-948,-161,18,-851
9,555,307971,-1580,-17062,-977,-160,19,-875
9,556,307976,-1419,-17096,-1053,-159,10,-897
9,557,307981,-1299,-17033,-961,-160,-4,-924
9,558,307986,-1381,-17075,-823,-159,-35,-948
9,559,307991,-1475,-17231,-1018,-154,-75,-969
9,560,307996,-1397,-17343,-1241,-152,-96,-989
9,561,308001,-1285,-17346,-1307,-153,-100,-1012
9,562,308006,-1346,-17312,-1255,-154,-96,-1038
9,563,308011,-1455,-17339,-1323,-156,-92,-1062
9,564,308016,-1476,-17391,-1430,-157,-74,-1084
9,565,308021,-1436,-17415,-1296,-157,-38,-1107
9,566,308026,-1337,-17445,-1020,-161,-7,-1128
9,567,308031,-1301,-17554,-870,-163,13,-1152
9,568,308036,-1308,-17638,-895,-159,25,-1174
9,569,308041,-1341,-17615,-879,-164,40,-1198
9,570,308046,-1409,-17595,-962,-165,51,-1220
9,571,308051,-1465,-17598,-1317,-159,54,-1241
9,572,308056,-1519,-17455,-1634,-160,55,-1264
9,573,308061,-1591,-17358,-1639,-162,55,-1284
9,574,308066,-1673,-17326,-1525,-162,55,-1306
9,575,308071,-1808,-17368,-1500,-160,59,-1324
9,576,308076,-1889,-17550,-1467,-159,84,-1341
9,577,308081,-1905,-17697,-1290,-161,119,-1362
9,578,308086,-1901,-17686,-1057,-162,138,-1381
9,579,308091,-2014,-17627,-913,-158,127,-1398
9,580,308096,-2074,-17613,-903,-155,92,-1411
9,581,308101,-1986,-17603,-971,-151,53,-1426
9,582,308106,-1832,-17601,-882,-148,15,-1442
9,583,308111,-1803,-17644,-910,-145,-27,-1455
9,584,308116,-1795,-17701,-1174,-139,-65,-1470
9,585,308121,-1878,-17749,-1441,-139,-78,-1486
9,586,308126,-1997,-17733,-1484,-142,-64,-1501
9,587,308131,-2013,-17579,-1310,-144,-51,-1513
9,588,308136,-2122,-17579,-1207,-146,-45,-1526
9,589,308141,-1950,-17697,-1249,-147,-32,-1535
9,590,308146,-1903,-17799,-1132,-152,-12,-1546
9,591,308151,-1927,-17922,-857,-155,0,-1551
9,592,308156,-2011,-17906,-670,-156,-10,-1556
9,593,308161,-2100,-17868,-723,-158,-43,-1560
9,594,308166,-2111,-17881,-797,-160,-71,-1561
9,595,308171,-2099,-17940,-716,-162,-90,-1558
9,596,308176,-2008,-17916,-652,-160,-117,-1557
9,597,308181,-2017,-17729,-725,-164,-157,-1557
9,598,308186,-1937,-16065,-932,-164,-200,-1551
9,599,308191,12025,-5826,-5108,-163,-308,-1476
9,600,308196,-19557,6600,19670,-236,536,-2134
9,601,308201,10178,-12426,-19088,220,-2702,-295
9,602,308206,3162,-11859,-17793,-58,-938,-397
9,603,308211,15403,-21466,-211,-299,2021,-1620
9,604,308216,-18349,-16907,21629,-275,1376,-1758
9,605,308221,-4074,-16552,-915,71,-2001,-850
9,606,308226,-1350,-14910,-11205,-24,-1967,-814
9,607,308231,1288,-14929,-6235,-162,-207,-1181
9,608,308236,-2029,-18900,4447,-219,742,-1146
9,609,308241,-1935,-16978,6023,-137,24,-1109
9,610,308246,798,-17801,-3264,-81,-1130,-986
9,611,308251,-1059,-16233,-5405,-117,-1109,-1040
9,612,308256,-2381,-16527,-2317,-170,-428,-1049
9,613,308261,-3132,-16416,180,-176,-22,-1017
9,614,308266,-842,-16769,-773,-163,-124,-983
9,615,308271,-7,-16851,-2776,-170,-374,-969
9,616,308276,-1771,-16657,-766,-186,-228,-958
9,617,308281,-1852,-16490,-883,-181,-114,-937
9,618,308286,-1203,-16760,-1487,-186,-108,-905
9,619,308291,-620,-16762,-1285,-192,-178,-881
9,620,308296,-523,-16552,-520,-192,-238,-857
9,621,308301,-980,-16225,-645,-183,-262,-837
9,622,308306,-1248,-16170,-1181,-180,-244,-813
9,623,308311,-1023,-16171,-1556,-185,-237,-787
9,624,308316,-441,-16110,-1224,-193,-246,-767
9,625,308321,-215,-16042,-897,-193,-269,-744
9,626,308326,-379,-15995,-1075,-185,-284,-724
9,627,308331,-466,-15904,-1317,-184,-277,-702
9,628,308336,-329,-15911,-1199,-189,-279,-675
9,629,308341,-47,-15904,-880,-189,-297,-653
9,630,308346,203,-15926,-902,-187,-338,-630
9,631,308351,267,-15981,-1118,-182,-355,-607
9,632,308356,385,-15947,-1220,-181,-352,-583
9,633,308361,512,-16000,-1250,-182,-354,-559
9,634,308366,566,-16025,-1344,-185,-361,-540
9,635,308371,665,-16005,-1531,-181,-355,-518
9,636,308376,653,-16073,-1692,-179,-335,-491
9,637,308381,625,-16024,-1819,-180,-318,-469
9,638,308386,792,-15918,-1897,-175,-309,-441
9,639,308391,1038,-15815,-1902,-173,-302,-416
9,640,308396,1099,-15689,-1894,-169,-291,-396
9,641,308401,1012,-15624,-2076,-163,-278,-373
9,642,308406,1064,-15643,-2343,-160,-262,-348
9,643,308411,1286,-15676,-2493,-156,-241,-322
9,644,308416,1538,-15673,-2383,-154,-222,-304
9,645,308421,1671,-15897,-2323,-149,-213,-283
9,646,308426,1721,-16029,-2204,-142,-203,-263
9,647,308431,1774,-16069,-2278,-137,-192,-241
9,648,308436,1719,-15951,-2218,-132,-177,-225
9,649,308441,1741,-15892,-2147,-127,-167,-208
9,650,308446,1833,-15796,-2137,-122,-161,-187
9,651,308451,1909,-15842,-2129,-112,-168,-164
9,652,308456,2017,-15835,-2010,-110,-174,-155
9,653,308461,2180,-15811,-1990,-107,-183,-132
9,654,308466,2356,-15719,-2017,-103,-181,-111
9,655,308471,2466,-15635,-2185,-100,-165,-101
9,656,308476,2468,-15590,-2365,-91,-151,-86
9,657,308481,2422,-15569,-2412,-89,-147,-73
9,658,308486,2594,-15527,-2499,-81,-154,-53
9,659,308491,2786,-15529,-2703,-73,-159,-39
9,660,308496,2899,-15544,-2928,-71,-148,-25
9,661,308501,3020,-15558,-3174,-68,-126,-15
9,662,308506,3080,-15524,-3203,-62,-102,-8
9,663,308511,3137,-15538,-3215,-56,-80,4
9,664,308516,3141,-15566,-3192,-53,-48,16
9,665,308521,3204,-15596,-3053,-50,-15,29
9,666,308526,3229,-15675,-3022,-46,9,37
9,667,308531,3334,-15722,-3021,-41,20,48
9,668,308536,3436,-15740,-2966,-32,25,58
9,669,308541,3522,-15695,-2917,-26,32,69
9,670,308546,3595,-15666,-2837,-22,44,76
9,671,308551,3590,-15680,-2878,-22,58,81
9,672,308556,3600,-15728,-2829,-19,83,88
9,673,308561,3647,-15793,-2883,-15,115,95
9,674,308566,3665,-15770,-2826,-15,142,102
9,675,308571,3718,-15722,-2718,-13,158,104
9,676,308576,3718,-15700,-2828,-12,161,107
9,677,308581,3744,-15659,-2848,-9,160,110
9,678,308586,3837,-15645,-2797,-7,157,118
9,679,308591,3789,-15571,-2625,-3,153,123
9,680,308596,3662,-15630,-2539,3,135,128
9,681,308601,3625,-15629,-2664,1,119,129
9,682,308606,3640,-15647,-2603,3,129,133
9,683,308611,3668,-15613,-2491,4,136,131
9,684,308616,3664,-15623,-2350,5,134,132
9,685,308621,3676,-15618,-2490,5,115,132
9,686,308626,3644,-15642,-2374,8,110,134
9,687,308631,3631,-15654,-2285,7,102,134
9,688,308636,3654,-15694,-2243,10,87,131
9,689,308641,3775,-15882,-2224,6,70,130
9,690,308646,3800,-15967,-2295,8,69,130
9,691,308651,3926,-15869,-2390,8,65,125
9,692,308656,3839,-15849,-2221,6,58,118
9,693,308661,3692,-15832,-2231,8,29,117
9,694,308666,3653,-15907,-2530,11,8,119
9,695,308671,3792,-15925,-2691,12,7,118
9,696,308676,3738,-15957,-2573,8,8,112
9,697,308681,3635,-15921,-2486,10,-7,108
9,698,308686,3592,-15914,-2627,10,-9,106
9,699,308691,3550,-15898,-2837,7,14,102
9,700,308696,3548,-15909,-2674,5,45,96
9,701,308701,3648,-15909,-2508,3,62,94
9,702,308706,3670,-15917,-2415,4,53,91
9,703,308711,3644,-16026,-2456,7,37,85
9,704,308716,3598,-16018,-2351,8,33,81
9,705,308721,3576,-16047,-2243,3,29,78
9,706,308726,3480,-16036,-2390,5,20,71
9,707,308731,3413,-15976,-2476,4,26,66
9,708,308736,3387,-15931,-2473,0,42,61
9,709,308741,3485,-15897,-2334,-1,51,57
9,710,308746,3559,-15847,-2377,-5,49,53
9,711,308751,3563,-15950,-2522,-4,53,48
9,712,308756,3518,-16008,-2501,-4,56,42
9,713,308761,3543,-16028,-2367,-4,53,42
9,714,308766,3516,-16073,-2285,-5,41,36
9,715,308771,3424,-16079,-2261,-3,25,33
9,716,308776,3413,-16041,-2385,-2,18,28
9,717,308781,3495,-16025,-2443,-1,5,26
9,718,308786,3578,-15953,-2488,1,-11,27
9,719,308791,3473,-15960,-2615,3,-29,21
9,720,308796,3370,-15984,-2752,0,-26,17
9,721,308801,3315,-15961,-2854,2,-6,16
9,722,308806,3327,-15943,-2887,-2,20,11
9,723,308811,3353,-15904,-2758,-2,44,9
9,724,308816,3358,-15892,-2608,-3,58,6
9,725,308821,3423,-15928,-2455,-2,60,2
9,726,308826,3450,-15935,-2418,0,50,-1
9,727,308831,3422,-15889,-2401,4,42,0
9,728,308836,3399,-15839,-2369,4,29,-2
9,729,308841,3408,-15853,-2376,5,11,2
9,730,308846,3457,-15851,-2310,4,-4,1
9,731,308851,3534,-15916,-2327,7,-8,-3
9,732,308856,3444,-15930,-2488,8,-5,-2
9,733,308861,3348,-15936,-2613,6,8,-7
9,734,308866,3341,-15865,-2594,6,18,-8
9,735,308871,3384,-15827,-2552,5,16,-6
9,736,308876,3355,-15845,-2506,6,4,-4
9,737,308881,3423,-15899,-2538,10,-5,0
9,738,308886,3523,-15940,-2545,9,-6,-2
9,739,308891,3498,-15926,-2504,11,-6,-3
9,740,308896,3416,-15933,-2594,9,-4,-5
9,741,308901,3411,-15935,-2732,12,4,-5
9,742,308906,3440,-15893,-2814,13,21,-5
9,743,308911,3490,-15864,-2659,10,32,-5
9,744,308916,3486,-15870,-2529,13,31,-4
9,745,308921,3420,-15884,-2528,14,26,-2
9,746,308926,3405,-15856,-2554,13,31,-4
9,747,308931,3320,-15810,-2533,14,34,-3
9,748,308936,3310,-15810,-2521,14,31,-2
9,749,308941,3392,-15793,-2452,15,30,-2
9,750,308946,3457,-15846,-2404,16,27,-1
9,751,308951,3534,-15822,-2350,17,21,-3
9,752,308956,3546,-15814,-2382,16,15,-2
9,753,308961,3534,-15801,-2401,16,16,-1
9,754,308966,3503,-15827,-2481,15,23,-4
9,755,308971,3486,-15866,-2473,18,30,-5
9,756,308976,3482,-15950,-2448,18,28,-3
9,757,308981,3579,-15953,-2429,16,27,-3
9,758,308986,3622,-15976,-2366,15,26,-3
9,759,308991,3452,-15990,-2325,16,23,-7
9,760,308996,3352,-15961,-2303,16,16,-7
9,761,309001,3338,-15864,-2332,17,12,-5
9,762,309006,3382,-15845,-2272,14,19,-8
9,763,309011,3361,-15870,-2199,13,7,-8
9,764,309016,3417,-15868,-2292,14,-10,-9
9,765,309021,3392,-15880,-2268,16,-15,-7
9,766,309026,3374,-15882,-2217,13,-24,-8
9,767,309031,3383,-15889,-2222,16,-37,-8
9,768,309036,3417,-15947,-2326,18,-48,-8
9,769,309041,3429,-15955,-2317,17,-58,-7
9,770,309046,3424,-15923,-2284,17,-72,-7
9,771,309051,3482,-15930,-2346,20,-89,-6
9,772,309056,3485,-15977,-2407,19,-103,-5
9,773,309061,3491,-16002,-2470,20,-105,-8
9,774,309066,3469,-16026,-2530,20,-111,-6
9,775,309071,3465,-16058,-2622,23,-119,-5
9,776,309076,3448,-16077,-2695,27,-124,-4
9,777,309081,3506,-16061,-2698,26,-123,-2
9,778,309086,3487,-16063,-2683,26,-118,-4
9,779,309091,3386,-16088,-2720,26,-106,-7
9,780,309096,3285,-16042,-2731,24,-87,-10
9,781,309101,3179,-15929,-2715,25,-56,-13
9,782,309106,3098,-15819,-2655,23,-24,-12
9,783,309111,3063,-15786,-2513,22,-7,-13
9,784,309116,3043,-15804,-2330,23,-5,-13
9,785,309121,3085,-15767,-2228,23,-9,-11
9,786,309126,3204,-15796,-2207,25,-18,-9
9,787,309131,3280,-15841,-2151,25,-27,-11
9,788,309136,3307,-15839,-2050,23,-36,-15
9,789,309141,3295,-15844,-2080,26,-49,-15
9,790,309146,3274,-15860,-2129,25,-62,-13
9,791,309151,3348,-15826,-2213,26,-73,-12
9,792,309156,3393,-15846,-2253,27,-78,-13
9,793,309161,3401,-15881,-2302,26,-85,-15
9,794,309166,3390,-15906,-2350,25,-91,-13
9,795,309171,3338,-15893,-2414,25,-84,-15
9,796,309176,3361,-15893,-2456,22,-75,-17
9,797,309181,3368,-15881,-2455,25,-70,-17
9,798,309186,3381,-15949,-2547,25,-65,-16
9,799,309191,3427,-15953,-2540,27,-60,-19
9,800,309196,3439,-16028,-2540,26,-56,-17
9,801,309201,3437,-16062,-2593,26,-51,-17
9,802,309206,3419,-16029,-2642,27,-40,-19
9,803,309211,3400,-15964,-2662,28,-30,-21
9,804,309216,3332,-15952,-2623,29,-22,-20
9,805,309221,3241,-15987,-2618,29,-11,-16
9,806,309226,3191,-15995,-2598,28,-2,-18
9,807,309231,3227,-15982,-2553,30,6,-19
9,808,309236,3300,-15969,-2481,29,8,-20
9,809,309241,3262,-15992,-2426,33,9,-20
9,810,309246,3229,-16007,-2342,36,9,-22
9,811,309251,3232,-15956,-2258,34,7,-22
9,812,309256,3251,-15924,-2215,38,-3,-22
9,813,309261,3232,-15885,-2224,38,-9,-24
9,814,309266,3200,-15856,-2200,37,-26,-23
9,815,309271,3208,-15893,-2231,38,-40,-23
9,816,309276,3325,-15932,-2208,40,-46,-24
9,817,309281,3413,-15911,-2275,40,-56,-23
9,818,309286,3417,-15932,-2375,42,-59,-23
9,819,309291,3389,-15957,-2438,45,-57,-23
9,820,309296,3373,-15958,-2570,44,-45,-25
9,821,309301,3342,-15977,-2619,44,-32,-23
9,822,309306,3309,-15980,-2629,42,-19,-24
9,823,309311,3405,-16003,-2582,44,-9,-23
9,824,309316,3360,-16023,-2480,44,-9,-22
9,825,309321,3298,-15977,-2492,46,-6,-27
9,826,309326,3294,-15929,-2489,47,-2,-26
9,827,309331,3259,-15883,-2449,48,7,-20
9,828,309336,3243,-15857,-2459,47,18,-19
9,829,309341,3218,-15835,-2412,47,30,-21
9,830,309346,3255,-15822,-2391,48,34,-22
9,831,309351,3336,-15833,-2227,48,34,-22
9,832,309356,3333,-15840,-2213,48,37,-22
9,833,309361,3352,-15883,-2193,49,30,-20
9,834,309366,3321,-15841,-2180,48,23,-21
9,835,309371,3257,-15847,-2176,44,21,-18
9,836,309376,3331,-15873,-2089,47,18,-20
9,837,309381,3370,-15919,-2136,46,20,-20
9,838,309386,3319,-15944,-2107,44,17,-18
9,839,309391,3397,-15913,-2098,46,9,-19
9,840,309396,3401,-15875,-2093,44,1,-16
9,841,309401,3382,-15849,-2084,43,-5,-18
9,842,309406,3392,-15849,-2152,42,-15,-16
9,843,309411,3450,-15914,-2221,40,-20,-12
9,844,309416,3487,-15928,-2218,43,-24,-12
9,845,309421,3474,-15921,-2253,41,-22,-11
9,846,309426,3461,-15917,-2304,41,-17,-14
9,847,309431,3383,-15941,-2272,39,-12,-13
9,848,309436,3398,-15922,-2272,36,-2,-16
9,849,309441,3483,-15878,-2270,35,9,-13
9,850,309446,3502,-15937,-2191,34,15,-9
9,851,309451,3500,-15958,-2109,34,6,-11
9,852,309456,3470,-16033,-2211,33,-2,-9
9,853,309461,3452,-16048,-2303,35,-6,-7
9,854,309466,3375,-16017,-2258,33,-8,-5
9,855,309471,3281,-15983,-2249,31,-9,-7
9,856,309476,3278,-16015,-2319,32,-4,-7
9,857,309481,3316,-16038,-2339,31,2,-9
9,858,309486,3367,-15980,-2250,28,4,-8
9,859,309491,3345,-16017,-2190,27,-4,-9
9,860,309496,3334,-16002,-2252,27,-8,-9
9,861,309501,3401,-15999,-2257,27,-13,-8
9,862,309506,3368,-15978,-2194,29,-15,-8
9,863,309511,3307,-15953,-2230,30,-19,-9
9,864,309516,3298,-15892,-2271,27,-23,-10
9,865,309521,3334,-15892,-2211,25,-23,-9
9,866,309526,3372,-15931,-2210,23,-17,-11
9,867,309531,3375,-15920,-2255,22,-15,-13
9,868,309536,3319,-15894,-2282,23,-15,-13
9,869,309541,3332,-15884,-2312,23,-13,-13
9,870,309546,3365,-15956,-2351,21,-7,-13
9,871,309551,3482,-15987,-2351,18,4,-14
9,872,309556,3516,-16034,-2272,18,9,-15
9,873,309561,3498,-16007,-2239,17,13,-17
9,874,309566,3494,-15990,-2271,17,16,-16
9,875,309571,3462,-15962,-2256,14,19,-19
9,876,309576,3448,-15977,-2270,16,17,-18
9,877,309581,3497,-16003,-2248,17,15,-19
9,878,309586,3499,-16014,-2285,14,10,-18
9,879,309591,3490,-16007,-2397,11,7,-16
9,880,309596,3459,-15993,-2388,13,5,-19
9,881,309601,3459,-15984,-2443,13,2,-20
9,882,309606,3416,-16001,-2425,14,3,-20
9,883,309611,3423,-16018,-2424,14,3,-22
9,884,309616,3364,-15995,-2296,12,5,-22
9,885,309621,3323,-15928,-2240,11,7,-24
9,886,309626,3353,-15923,-2170,12,9,-24
9,887,309631,3416,-15931,-2051,11,6,-22
9,888,309636,3469,-15950,-1998,10,-4,-26
9,889,309641,3494,-16015,-1895,12,-21,-25
9,890,309646,3455,-15996,-1862,10,-42,-27
9,891,309651,3366,-15934,-1894,8,-60,-25
9,892,309656,3366,-15883,-2037,8,-72,-23
9,893,309661,3418,-15927,-2107,8,-67,-24
9,894,309666,3412,-16033,-2223,7,-60,-27
9,895,309671,3383,-16110,-2211,2,-58,-30
9,896,309676,3342,-16092,-2260,2,-66,-27
9,897,309681,3346,-16125,-2397,-2,-64,-28
9,898,309686,3312,-16030,-2417,-2,-50,-30
9,899,309691,3412,-16014,-2557,0,-42,-30
9,900,309696,3455,-16032,-2464,1,-33,-30
9,901,309701,3392,-16080,-2482,-1,-33,-30
9,902,309706,3371,-16025,-2548,0,-27,-31
9,903,309711,3388,-15972,-2566,3,-10,-28
9,904,309716,3388,-15884,-2443,-2,4,-31
9,905,309721,3410,-15887,-2405,-4,9,-31
9,906,309726,3349,-15906,-2330,-1,9,-30
9,907,309731,3334,-15865,-2265,-2,8,-30
9,908,309736,3343,-15870,-2297,0,6,-28
9,909,309741,3465,-15932,-2171,0,2,-30
9,910,309746,3486,-15968,-2193,-4,1,-27
9,911,309751,3445,-15936,-2247,-4,0,-28
9,912,309756,3438,-15928,-2288,-2,3,-25
9,913,309761,3448,-15936,-2277,-3,6,-25
9,914,309766,3401,-16012,-2265,-4,9,-27
9,915,309771,3470,-16054,-2233,-5,13,-23
9,916,309776,3553,-16035,-2208,-3,12,-25
9,917,309781,3508,-16055,-2127,-5,3,-23
9,918,309786,3402,-16031,-2153,-6,0,-24
9,919,309791,3435,-16001,-2240,-6,0,-24
9,920,309796,3471,-15970,-2261,-8,2,-25
9,921,309801,3515,-15983,-2252,-6,-1,-23
9,922,309806,3513,-16050,-2284,-6,-14,-17
9,923,309811,3457,-16001,-2267,-5,-24,-15
9,924,309816,3388,-16015,-2264,-4,-33,-18
9,925,309821,3340,-16033,-2274,-5,-40,-18
9,926,309826,3346,-15977,-2290,-4,-37,-16
9,927,309831,3308,-15942,-2341,-2,-32,-18
9,928,309836,3334,-15946,-2326,-4,-25,-17
9,929,309841,3366,-15910,-2303,-5,-20,-16
9,930,309846,3388,-15907,-2263,-6,-18,-16
9,931,309851,3439,-15954,-2188,-6,-21,-19
9,932,309856,3459,-16019,-2141,-3,-25,-14
9,933,309861,3491,-15992,-2203,-5,-28,-15
9,934,309866,3473,-15971,-2170,-9,-26,-18
9,935,309871,3389,-15970,-2218,-6,-22,-18
9,936,309876,3343,-15943,-2283,-7,-14,-16
9,937,309881,3402,-15945,-2231,-12,-6,-17
9,938,309886,3543,-15936,-2164,-12,0,-17
9,939,309891,3559,-15995,-2150,-11,-4,-15
9,940,309896,3501,-16040,-2252,-8,-8,-15
9,941,309901,3461,-16051,-2287,-12,-11,-16
9,942,309906,3418,-16047,-2296,-11,-11,-16
9,943,309911,3367,-15960,-2307,-11,-8,-17
9,944,309916,3387,-15950,-2345,-9,-3,-16
9,945,309921,3375,-16000,-2354,-12,-1,-17
9,946,309926,3364,-15997,-2287,-12,4,-17
9,947,309931,3400,-15962,-2266,-11,8,-16
9,948,309936,3327,-15912,-2221,-12,6,-17
9,949,309941,3267,-15879,-2201,-11,3,-18
9,950,309946,3290,-15858,-2239,-11,9,-18
9,951,309951,3340,-15872,-2201,-11,14,-16
9,952,309956,3371,-15895,-2176,-9,9,-19
9,953,309961,3399,-15943,-2149,-11,-1,-17
9,954,309966,3399,-15951,-2177,-9,-15,-15
9,955,309971,3377,-15983,-2223,-7,-28,-15
9,956,309976,3430,-16011,-2184,-5,-44,-15
9,957,309981,3414,-16036,-2171,-6,-49,-15
9,958,309986,3446,-16017,-2210,-5,-47,-13
9,959,309991,3371,-16065,-2254,-6,-38,-14
9,960,309996,3395,-16087,-2174,-10,-23,-16
9,961,310001,3453,-16017,-2214,-11,-10,-15
9,962,310006,3495,-15979,-2236,-13,4,-19
9,963,310011,3481,-16020,-2214,-12,18,-19
9,964,310016,3424,-16019,-2133,-14,21,-19
9,965,310021,3430,-15947,-2168,-16,21,-18
9,966,310026,3426,-15975,-2176,-13,20,-19
9,967,310031,3398,-15946,-2193,-12,13,-19
9,968,310036,3443,-15925,-2181,-10,1,-17
9,969,310041,3398,-15938,-2219,-9,-12,-16
9,970,310046,3301,-15900,-2229,-10,-14,-17
9,971,310051,3274,-15822,-2270,-10,-2,-17
9,972,310056,3342,-15828,-2259,-12,12,-19
9,973,310061,3397,-15834,-2216,-12,29,-22
9,974,310066,3477,-15806,-2171,-14,38,-24
9,975,310071,3522,-15812,-2092,-14,36,-22
9,976,310076,3530,-15811,-2105,-13,36,-23
9,977,310081,3557,-15837,-2087,-15,35,-22
9,978,310086,3545,-15924,-2051,-14,30,-25
9,979,310091,3615,-15941,-1964,-12,23,-23
9,980,310096,3602,-15902,-1905,-11,14,-20
9,981,310101,3589,-15872,-1909,-12,0,-21
9,982,310106,3612,-15972,-2218,-8,-23,-22
9,983,310111,3602,-15912,-2240,-9,-24,-19
9,984,310116,3518,-15900,-2254,-9,-25,-22
9,985,310121,3532,-15923,-2324,-7,-21,-22
9,986,310126,3513,-15899,-2333,-6,-5,-22
9,987,310131,3560,-15900,-2269,-8,8,-22
9,988,310136,3600,-15909,-2219,-11,16,-24
9,989,310141,3662,-15935,-2220,-9,17,-24
9,990,310146,3629,-15848,-2256,-6,14,-24
9,991,310151,3666,-15834,-2315,-6,12,-23
9,992,310156,3604,-15828,-2303,-6,13,-25
9,993,310161,3638,-15804,-2369,-5,14,-25
9,994,310166,3663,-15839,-2473,-2,16,-24
9,995,310171,3617,-15809,-2485,-2,25,-24
9,996,310176,3651,-15786,-2426,-1,34,-24
9,997,310181,3655,-15883,-2376,1,38,-24
9,998,310186,3743,-16031,-2417,2,43,-25
9,999,310191,3724,-16014,-2374,2,49,-24
