event_id,seq,ts_ms,ax,ay,az,gx,gy,gz
3,0,246757,-1019,-15752,-2126,-61,-57,25
3,1,246762,-935,-15752,-2181,-57,-70,31
3,2,246767,-873,-15633,-2414,-55,-75,32
3,3,246772,-962,-15684,-2466,-55,-72,32
3,4,246777,-1129,-15725,-2475,-56,-69,30
3,5,246782,-1192,-15800,-2350,-53,-63,31
3,6,246787,-1206,-15847,-2338,-52,-70,29
3,7,246792,-1279,-15922,-2206,-50,-64,30
3,8,246797,-1280,-15977,-2063,-46,-71,30
3,9,246802,-1309,-16029,-2006,-43,-85,32
3,10,246807,-1215,-16080,-1951,-44,-89,31
3,11,246812,-1041,-16142,-2030,-40,-96,33
3,12,246817,-1042,-16245,-2060,-37,-106,33
3,13,246822,-1076,-16304,-2188,-36,-112,30
3,14,246827,-1067,-16376,-2244,-37,-107,34
3,15,246832,-999,-16435,-2163,-37,-94,35
3,16,246837,-939,-16494,-2010,-37,-83,34
3,17,246842,-966,-16430,-1906,-39,-76,31
3,18,246847,-1041,-16466,-1979,-40,-65,33
3,19,246852,-991,-16402,-2004,-33,-55,30
3,20,246857,-921,-16425,-2019,-33,-54,33
3,21,246862,-988,-16446,-1997,-31,-56,34
3,22,246867,-1160,-16355,-1853,-28,-53,35
3,23,246872,-1234,-16313,-2001,-26,-57,32
3,24,246877,-1203,-16302,-2111,-25,-59,32
3,25,246882,-1248,-16302,-2079,-23,-63,32
3,26,246887,-1265,-16342,-2063,-21,-69,33
3,27,246892,-1314,-16428,-2086,-19,-70,29
3,28,246897,-1241,-16422,-2187,-19,-66,27
3,29,246902,-1139,-16381,-2380,-15,-60,29
3,30,246907,-1078,-16351,-2250,-13,-50,28
3,31,246912,-1044,-16338,-2200,-11,-57,26
3,32,246917,-1171,-16297,-2054,-10,-51,27
3,33,246922,-1261,-16378,-1975,-6,-48,25
3,34,246927,-1152,-16418,-2205,-2,-51,23
3,35,246932,-988,-16377,-2340,-3,-45,22
3,36,246937,-878,-16378,-2234,-7,-36,25
3,37,246942,-988,-16314,-1966,-4,-31,23
3,38,246947,-1062,-16237,-1910,3,-34,22
3,39,246952,-1173,-16208,-1957,2,-39,23
3,40,246957,-1246,-16108,-2035,4,-72,24
3,41,246962,-1290,-16030,-2015,5,-92,25
3,42,246967,-1364,-16044,-2140,7,-104,22
3,43,246972,-1340,-16079,-2276,11,-112,19
3,44,246977,-1377,-16124,-2336,14,-119,15
3,45,246982,-1393,-16187,-2339,15,-118,15
3,46,246987,-1284,-16192,-2301,15,-108,14
3,47,246992,-1198,-16187,-2252,15,-90,14
3,48,246997,-1219,-16213,-2071,17,-77,12
3,49,247002,-1219,-16251,-2122,18,-67,14
3,50,247007,-1230,-16226,-2110,20,-42,13
3,51,247012,-1190,-16215,-2218,20,-27,14
3,52,247017,-1069,-16183,-2313,19,-12,18
3,53,247022,-1072,-16128,-2295,16,16,17
3,54,247027,-1167,-16013,-2337,16,37,16
3,55,247032,-1210,-15936,-2438,17,50,15
3,56,247037,-1383,-16001,-2426,15,63,14
3,57,247042,-1323,-15992,-2366,14,78,15
3,58,247047,-1068,-15530,-2312,16,74,16
3,59,247052,-1305,-16110,-2030,18,70,12
3,60,247057,-1675,-16299,-2104,15,42,14
3,61,247062,-1203,-16130,-1925,10,30,35
3,62,247067,-932,-15834,-1775,15,21,27
3,63,247072,-1262,-15978,-1974,21,-6,26
3,64,247077,-1338,-16007,-2059,18,-26,29
3,65,247082,-1390,-16129,-1490,13,-94,23
3,66,247087,-1107,-16406,-2736,11,-231,36
3,67,247092,-1126,-16218,-2757,12,-134,40
3,68,247097,-1472,-16175,-2043,14,0,34
3,69,247102,-1836,-16309,-2389,16,-17,33
3,70,247107,-1683,-16412,-3024,16,-42,39
3,71,247112,-1488,-16344,-2318,11,16,33
3,72,247117,-1461,-16441,-1939,9,17,32
3,73,247122,-1537,-16593,-2304,12,7,30
3,74,247127,-1884,-16611,-2479,11,28,30
3,75,247132,-2034,-16596,-2507,9,28,31
3,76,247137,-1718,-16380,-2419,9,28,35
3,77,247142,-1611,-16635,-1987,10,44,31
3,78,247147,-1694,-16742,-2074,8,33,31
3,79,247152,-1629,-16572,-1914,8,32,34
3,80,247157,-1654,-16500,-2100,7,12,30
3,81,247162,-1771,-16529,-2010,5,6,33
3,82,247167,-1527,-16477,-1896,6,-3,37
3,83,247172,-1329,-16492,-2056,5,-24,37
3,84,247177,-1309,-16514,-2061,1,-29,34
3,85,247182,-1441,-16490,-1995,0,-40,33
3,86,247187,-1528,-16539,-1916,0,-51,35
3,87,247192,-1492,-16601,-1957,-2,-62,36
3,88,247197,-1481,-16578,-1984,-3,-70,38
3,89,247202,-1486,-16517,-2042,-7,-83,38
3,90,247207,-1490,-16491,-2199,-9,-91,38
3,91,247212,-1493,-16519,-2198,-7,-87,38
3,92,247217,-1501,-16423,-2203,-7,-77,36
3,93,247222,-1546,-16457,-2300,-9,-66,37
3,94,247227,-1552,-16493,-2397,-10,-45,32
3,95,247232,-1565,-16566,-2413,-11,-14,28
3,96,247237,-1564,-16610,-2346,-10,19,30
3,97,247242,-1386,-16535,-2342,-14,43,30
3,98,247247,-1251,-16436,-2252,-15,64,30
3,99,247252,-1396,-16384,-2088,-15,82,30
3,100,247257,-1571,-16327,-1994,-17,80,32
3,101,247262,-1451,-16326,-2244,-17,80,36
3,102,247267,-1250,-16319,-2024,-20,98,31
3,103,247272,-1170,-16399,-2159,-19,71,36
3,104,247277,-1142,-16419,-2113,-21,64,35
3,105,247282,-1294,-16279,-2030,-25,54,37
3,106,247287,-1349,-16233,-2038,-25,33,41
3,107,247292,-1344,-16184,-1992,-25,7,45
3,108,247297,-1325,-16213,-2004,-28,-23,45
3,109,247302,-1445,-16183,-2104,-32,-49,43
3,110,247307,-1611,-16117,-2164,-32,-70,43
3,111,247312,-1629,-16085,-2348,-32,-89,47
3,112,247317,-1526,-16085,-2334,-35,-92,46
3,113,247322,-1490,-16143,-2304,-33,-95,45
3,114,247327,-1599,-16201,-2364,-31,-74,42
3,115,247332,-1574,-16170,-2438,-32,-56,42
3,116,247337,-1489,-16218,-2183,-33,-31,43
3,117,247342,-1322,-16262,-2415,-36,-39,45
3,118,247347,-1236,-16331,-2433,-35,-22,44
3,119,247352,-1279,-16310,-2378,-36,-6,41
3,120,247357,-1323,-16270,-2269,-35,1,44
3,121,247362,-1300,-16272,-2237,-36,4,47
3,122,247367,-1302,-16278,-2126,-34,6,47
3,123,247372,-1345,-16307,-2084,-36,-4,47
3,124,247377,-1364,-16348,-2084,-40,-20,50
3,125,247382,-1356,-16314,-2063,-37,-32,46
3,126,247387,-1387,-16327,-2059,-38,-44,46
3,127,247392,-1454,-16354,-2024,-42,-60,52
3,128,247397,-1441,-16307,-2052,-40,-76,48
3,129,247402,-1380,-16303,-2025,-43,-81,44
3,130,247407,-1406,-16275,-2275,-42,-95,48
3,131,247412,-1491,-16258,-2348,-42,-98,47
3,132,247417,-1592,-16249,-2287,-45,-98,44
3,133,247422,-1585,-16264,-2304,-38,-95,43
3,134,247427,-1562,-16281,-2504,-39,-89,39
3,135,247432,-1562,-16293,-2610,-40,-77,38
3,136,247437,-1530,-16209,-2650,-42,-59,34
3,137,247442,-1522,-16210,-2568,-40,-38,30
3,138,247447,-1470,-16201,-2569,-38,-19,25
3,139,247452,-1445,-16204,-2615,-36,6,21
3,140,247457,-1351,-16194,-2526,-33,26,20
3,141,247462,-1268,-16211,-2311,-33,44,21
3,142,247467,-1241,-16232,-2166,-33,57,22
3,143,247472,-1272,-16252,-1930,-33,66,19
3,144,247477,-1358,-16286,-1783,-35,58,19
3,145,247482,-1396,-16242,-1748,-36,40,20
3,146,247487,-1394,-16246,-1791,-36,15,22
3,147,247492,-1277,-16256,-1948,-37,-9,24
3,148,247497,-1296,-16263,-2082,-36,-32,20
3,149,247502,-1398,-16274,-2199,-33,-48,19
3,150,247507,-1482,-16278,-2371,-35,-55,15
3,151,247512,-1441,-16251,-2374,-33,-58,13
3,152,247517,-1413,-16211,-2357,-34,-61,13
3,153,247522,-1435,-16152,-2400,-33,-60,10
3,154,247527,-1544,-16135,-2570,-32,-55,5
3,155,247532,-1580,-16087,-2610,-31,-45,3
3,156,247537,-1481,-16081,-2623,-28,-28,2
3,157,247542,-1433,-16100,-2629,-28,-13,3
3,158,247547,-1488,-16125,-2581,-27,4,-3
3,159,247552,-1553,-16088,-2433,-24,17,-7
3,160,247557,-1498,-16055,-2256,-22,22,-5
3,161,247562,-1437,-16152,-2141,-20,18,-6
3,162,247567,-1326,-16134,-2224,-18,1,-8
3,163,247572,-1334,-16151,-2246,-17,-6,-11
3,164,247577,-1405,-16190,-2225,-19,-12,-14
3,165,247582,-1388,-16233,-2205,-17,-24,-12
3,166,247587,-1285,-16320,-2194,-16,-30,-12
3,167,247592,-1200,-16278,-2171,-15,-34,-14
3,168,247597,-1234,-16246,-2248,-20,-46,-11
3,169,247602,-1357,-16280,-2360,-18,-50,-10
3,170,247607,-1421,-16252,-2455,-18,-46,-14
3,171,247612,-1374,-16208,-2547,-16,-39,-13
3,172,247617,-1367,-16156,-2552,-16,-27,-15
3,173,247622,-1414,-16142,-2522,-13,-15,-18
3,174,247627,-1559,-16110,-2416,-14,-9,-20
3,175,247632,-1633,-16089,-2416,-15,-1,-22
3,176,247637,-1593,-16040,-2419,-14,6,-23
3,177,247642,-1564,-16005,-2416,-10,11,-23
3,178,247647,-1620,-16087,-2406,-7,18,-23
3,179,247652,-1491,-16093,-2523,-7,20,-24
3,180,247657,-1453,-16046,-2486,-5,30,-24
3,181,247662,-1445,-16067,-2402,-6,34,-24
3,182,247667,-1442,-16033,-2335,-5,34,-27
3,183,247672,-1529,-16046,-2238,-5,32,-28
3,184,247677,-1513,-16049,-2265,-4,25,-26
3,185,247682,-1434,-16052,-2278,-8,14,-25
3,186,247687,-1405,-16036,-2261,-4,3,-26
3,187,247692,-1535,-16139,-2368,-2,-23,-29
3,188,247697,-1511,-16120,-2464,-2,-28,-27
3,189,247702,-1417,-16162,-2446,-1,-29,-26
3,190,247707,-1356,-16217,-2490,-2,-23,-25
3,191,247712,-1431,-16184,-2386,-4,-11,-26
3,192,247717,-1569,-16188,-2387,-5,-10,-23
3,193,247722,-1552,-16123,-2387,-3,-7,-24
3,194,247727,-1513,-16088,-2387,1,0,-26
3,195,247732,-1464,-16123,-2444,2,0,-24
3,196,247737,-1496,-16145,-2493,1,4,-25
3,197,247742,-1502,-16137,-2508,2,8,-25
3,198,247747,-1453,-16133,-2491,6,8,-25
3,199,247752,-1483,-16143,-2502,6,9,-25
3,200,247757,-1480,-16217,-2453,6,8,-25
3,201,247762,-1510,-16205,-2373,9,5,-24
3,202,247767,-1535,-16217,-2381,9,2,-24
3,203,247772,-1486,-16253,-2361,8,-1,-25
3,204,247777,-1503,-16310,-2361,8,-2,-25
3,205,247782,-1504,-16309,-2348,9,-2,-21
3,206,247787,-1454,-16317,-2375,8,4,-23
3,207,247792,-1414,-16338,-2363,9,13,-23
3,208,247797,-1435,-16312,-2317,9,20,-23
3,209,247802,-1366,-16228,-2300,10,27,-20
3,210,247807,-1413,-16252,-2352,9,33,-16
3,211,247812,-1456,-16237,-2367,9,36,-15
3,212,247817,-1423,-16211,-2314,10,39,-13
3,213,247822,-1446,-16177,-2274,12,35,-15
3,214,247827,-1479,-16133,-2287,14,26,-14
3,215,247832,-1442,-16144,-2427,12,19,-13
3,216,247837,-1498,-16174,-2421,14,11,-13
3,217,247842,-1505,-16222,-2472,15,2,-7
3,218,247847,-1511,-16188,-2345,15,0,-10
3,219,247852,-1563,-16219,-2370,18,-5,-11
3,220,247857,-1618,-16244,-2512,15,-5,-11
3,221,247862,-1616,-16254,-2491,15,-1,-11
3,222,247867,-1577,-16315,-2397,17,2,-10
3,223,247872,-1552,-16263,-2382,21,7,-11
3,224,247877,-1462,-16233,-2407,21,19,-8
3,225,247882,-1445,-16182,-2524,21,28,-10
3,226,247887,-1463,-16184,-2504,20,35,-6
3,227,247892,-1459,-16181,-2440,21,43,-5
3,228,247897,-1352,-16185,-2383,24,54,-6
3,229,247902,-1299,-16134,-2345,25,55,-3
3,230,247907,-1343,-16101,-2314,27,53,0
3,231,247912,-1376,-16107,-2246,25,48,-1
3,232,247917,-1428,-16118,-2194,28,35,1
3,233,247922,-1396,-16128,-2287,27,20,1
3,234,247927,-1390,-16128,-2294,28,7,3
3,235,247932,-1432,-16164,-2224,27,-8,3
3,236,247937,-1553,-16185,-2296,25,-16,5
3,237,247942,-1536,-16168,-2392,27,-28,8
3,238,247947,-1457,-16145,-2387,28,-30,8
3,239,247952,-1511,-16163,-2317,27,-26,10
3,240,247957,-1554,-16172,-2358,30,-20,7
3,241,247962,-1560,-16219,-2389,31,-8,9
3,242,247967,-1559,-16243,-2460,33,2,7
3,243,247972,-1551,-16253,-2465,29,20,7
3,244,247977,-1451,-16207,-2465,30,36,8
3,245,247982,-1471,-16263,-2386,31,65,7
3,246,247987,-1451,-16187,-2251,31,72,3
3,247,247992,-1431,-16217,-2377,35,60,7
3,248,247997,-1457,-16283,-2267,35,75,6
3,249,248002,-1398,-16218,-2197,30,74,5
3,250,248007,-1375,-16187,-2239,33,61,6
3,251,248012,-1310,-16179,-2234,35,50,5
3,252,248017,-1362,-16123,-2133,33,36,7
3,253,248022,-1459,-16101,-2074,35,16,8
3,254,248027,-1416,-16128,-2094,35,-4,11
3,255,248032,-1342,-16125,-2102,35,-21,11
3,256,248037,-1271,-16171,-2149,32,-38,13
3,257,248042,-1331,-16177,-2022,31,-53,15
3,258,248047,-1388,-16174,-1984,36,-68,17
3,259,248052,-1415,-16175,-2063,33,-82,17
3,260,248057,-1397,-16235,-2159,33,-95,21
3,261,248062,-1387,-16218,-2260,33,-96,17
3,262,248067,-1467,-16227,-2363,32,-89,15
3,263,248072,-1492,-16238,-2441,33,-78,15
3,264,248077,-1425,-16248,-2503,33,-61,13
3,265,248082,-1350,-16230,-2576,33,-37,10
3,266,248087,-1361,-16181,-2488,33,-16,8
3,267,248092,-1440,-16178,-2402,36,1,7
3,268,248097,-1488,-16187,-2335,38,20,10
3,269,248102,-1448,-16153,-2268,36,38,7
3,270,248107,-1374,-16170,-2266,36,46,8
3,271,248112,-1320,-16180,-2297,35,51,8
3,272,248117,-1380,-16218,-2284,37,55,8
3,273,248122,-1346,-16168,-2248,37,50,5
3,274,248127,-1399,-16168,-2186,36,53,3
3,275,248132,-1352,-16259,-2159,37,45,2
3,276,248137,-1298,-16375,-2213,38,33,4
3,277,248142,-1287,-16345,-2146,36,27,5
3,278,248147,-1328,-16306,-2115,35,15,7
3,279,248152,-1386,-16310,-2068,37,3,8
3,280,248157,-1358,-16265,-2018,36,-6,9
3,281,248162,-1373,-16296,-2031,34,-16,9
3,282,248167,-1507,-16313,-2170,35,-30,6
3,283,248172,-1460,-16335,-2172,35,-31,5
3,284,248177,-1365,-16241,-2195,36,-32,7
3,285,248182,-1381,-16258,-2268,33,-34,6
3,286,248187,-1467,-16316,-2322,34,-27,4
3,287,248192,-1480,-16259,-2372,33,-20,3
3,288,248197,-1484,-16308,-2398,32,-10,2
3,289,248202,-1496,-16347,-2410,34,3,0
3,290,248207,-1403,-16321,-2419,34,22,-4
3,291,248212,-1410,-16320,-2438,33,37,-7
3,292,248217,-1480,-16376,-2372,34,49,-6
3,293,248222,-1529,-16373,-2238,34,62,-7
3,294,248227,-1421,-16379,-2168,35,64,-7
3,295,248232,-1380,-16333,-2234,33,62,-5
3,296,248237,-1442,-16322,-2211,32,62,-5
3,297,248242,-1447,-16307,-2100,30,62,-9
3,298,248247,-1411,-16262,-2134,32,56,-6
3,299,248252,-1353,-16212,-2124,31,50,-7
3,300,248257,-1390,-16205,-2144,29,41,-9
3,301,248262,-1425,-16158,-2127,28,28,-8
3,302,248267,-1442,-16103,-2211,30,23,-8
3,303,248272,-1430,-16146,-2242,28,19,-10
3,304,248277,-1374,-16144,-2226,26,14,-5
3,305,248282,-1361,-16101,-2185,26,8,-7
3,306,248287,-1405,-16134,-2196,26,5,-7
3,307,248292,-1453,-16156,-2250,26,4,-12
3,308,248297,-1493,-16187,-2267,26,4,-10
3,309,248302,-1435,-16223,-2355,26,10,-10
3,310,248307,-1364,-16259,-2312,22,20,-12
3,311,248312,-1363,-16343,-2277,22,32,-13
3,312,248317,-1354,-16362,-2226,22,44,-12
3,313,248322,-1421,-16267,-2107,19,52,-12
3,314,248327,-1438,-16246,-2048,18,52,-10
3,315,248332,-1472,-16255,-2108,20,51,-13
3,316,248337,-1448,-16270,-2122,19,46,-12
3,317,248342,-1470,-16230,-2143,18,42,-11
3,318,248347,-1416,-16203,-2147,17,38,-13
3,319,248352,-1337,-16174,-2197,17,32,-15
3,320,248357,-1313,-16154,-2216,15,27,-10
3,321,248362,-1367,-16152,-2090,16,18,-8
3,322,248367,-1411,-16158,-2070,13,10,-9
3,323,248372,-1407,-16210,-2143,13,0,-10
3,324,248377,-1399,-16213,-2217,15,-7,-9
3,325,248382,-1312,-16232,-2292,12,-9,-10
3,326,248387,-1264,-16272,-2266,11,-8,-12
3,327,248392,-1269,-16267,-2246,14,-6,-13
3,328,248397,-1394,-16244,-2230,13,0,-10
3,329,248402,-1510,-16239,-2335,10,5,-10
3,330,248407,-1498,-16265,-2372,10,10,-9
3,331,248412,-1417,-16242,-2315,8,19,-9
3,332,248417,-1396,-16312,-2235,9,27,-10
3,333,248422,-1494,-16309,-2189,11,30,-8
3,334,248427,-1515,-16274,-2262,9,39,-12
3,335,248432,-1434,-16232,-2201,8,35,-12
3,336,248437,-1363,-16228,-2105,7,34,-11
3,337,248442,-1324,-16242,-2052,6,34,-10
3,338,248447,-1391,-16208,-2119,7,26,-11
3,339,248452,-1406,-16200,-2197,6,19,-11
3,340,248457,-1309,-16262,-2142,5,15,-9
3,341,248462,-1253,-16263,-2131,3,11,-7
3,342,248467,-1286,-16218,-2163,3,8,-7
3,343,248472,-1380,-16236,-2192,5,6,-10
3,344,248477,-1390,-16165,-2236,5,2,-6
3,345,248482,-1393,-16166,-2267,3,-7,-4
3,346,248487,-1349,-16152,-2184,3,-12,-4
3,347,248492,-1342,-16195,-2087,1,-14,-3
3,348,248497,-1402,-16193,-2061,4,-22,0
3,349,248502,-1447,-16170,-2103,6,-33,0
3,350,248507,-1462,-16170,-2158,3,-41,-1
3,351,248512,-1445,-16163,-2143,1,-50,2
3,352,248517,-1391,-16189,-2127,0,-53,0
3,353,248522,-1465,-16197,-2146,-1,-52,-1
3,354,248527,-1526,-16176,-2194,0,-48,-1
3,355,248532,-1463,-16172,-2227,-1,-40,-1
3,356,248537,-1469,-16189,-2250,-2,-32,0
3,357,248542,-1502,-16172,-2268,-2,-17,-4
3,358,248547,-1540,-16185,-2262,-2,0,-4
3,359,248552,-1468,-16214,-2368,-1,15,-6
3,360,248557,-1369,-16265,-2337,-2,31,-6
3,361,248562,-1352,-16250,-2240,-4,47,-6
3,362,248567,-1363,-16252,-2283,-3,49,-8
3,363,248572,-1492,-16239,-2138,-3,62,-8
3,364,248577,-1426,-16218,-2119,-4,52,-7
3,365,248582,-1368,-16243,-2044,-1,40,-2
3,366,248587,-1361,-16232,-1897,-2,28,-2
3,367,248592,-1369,-16242,-1940,-1,7,-5
3,368,248597,-1373,-16178,-2023,-1,-15,-3
3,369,248602,-1333,-16163,-2060,-1,-33,3
3,370,248607,-1278,-16167,-2047,-5,-51,3
3,371,248612,-1270,-16182,-2067,-4,-66,5
3,372,248617,-1337,-16170,-2098,-4,-72,4
3,373,248622,-1413,-16192,-2080,-4,-75,3
3,374,248627,-1383,-16237,-2155,-4,-78,3
3,375,248632,-1357,-16286,-2168,-5,-78,5
3,376,248637,-1377,-16279,-2156,-7,-73,2
3,377,248642,-1475,-16295,-2160,-3,-68,2
3,378,248647,-1566,-16345,-2161,-1,-61,1
3,379,248652,-1589,-16329,-2203,-4,-52,0
3,380,248657,-1561,-16308,-2184,-1,-43,2
3,381,248662,-1520,-16314,-2117,0,-36,0
3,382,248667,-1509,-16350,-2058,-1,-27,-4
3,383,248672,-1461,-16373,-2150,-1,-18,-5
3,384,248677,-1423,-16353,-2226,-2,-10,-2
3,385,248682,-1425,-16293,-2142,-5,-5,0
3,386,248687,-1411,-16332,-2096,-1,-6,0
3,387,248692,-1445,-16357,-1956,-1,8,-3
3,388,248697,-1346,-16317,-2024,-2,4,-3
3,389,248702,-1286,-16292,-2167,-1,-10,-3
3,390,248707,-1310,-16236,-2126,-3,-10,-2
3,391,248712,-1348,-16224,-2092,-2,-15,2
3,392,248717,-1383,-16204,-2065,-1,-24,3
3,393,248722,-1476,-16207,-2035,-2,-35,0
3,394,248727,-1548,-16221,-2048,-2,-44,1
3,395,248732,-1552,-16234,-2063,-2,-60,4
3,396,248737,-1566,-16245,-2171,-1,-69,6
3,397,248742,-1512,-16267,-2249,-2,-66,5
3,398,248747,-1460,-16257,-2225,-3,-60,6
3,399,248752,-1477,-16254,-2175,0,-56,5
3,400,248757,-1627,-16287,-2092,1,-50,6
3,401,248762,-1644,-16217,-2040,-1,-46,4
3,402,248767,-1600,-16257,-1998,-1,-44,6
3,403,248772,-1532,-16256,-1984,-2,-40,9
3,404,248777,-1479,-16250,-1989,-1,-40,11
3,405,248782,-1560,-16260,-2006,-2,-40,13
3,406,248787,-1623,-16226,-2050,-1,-43,18
3,407,248792,-1540,-16174,-1996,-4,-54,21
3,408,248797,-1439,-16149,-2051,-5,-61,23
3,409,248802,-1501,-16132,-2118,-7,-65,24
3,410,248807,-1587,-16096,-2234,-6,-65,28
3,411,248812,-1538,-16058,-2342,-3,-60,34
3,412,248817,-1472,-16068,-2265,-5,-55,36
3,413,248822,-1534,-16085,-2089,-6,-51,41
3,414,248827,-1722,-16162,-1973,-6,-50,48
3,415,248832,-1806,-16153,-1941,-5,-56,52
3,416,248837,-1877,-16157,-2039,-2,-62,57
3,417,248842,-1910,-16144,-2075,-6,-78,63
3,418,248847,-1888,-16216,-2054,-5,-85,68
3,419,248852,-2022,-16213,-1883,-5,-80,75
3,420,248857,-2116,-16148,-1850,-2,-88,79
3,421,248862,-2092,-16035,-1965,-1,-88,86
3,422,248867,-1834,-16010,-2104,-3,-83,101
3,423,248872,-1741,-16039,-1939,-4,-74,110
3,424,248877,-2000,-16054,-1767,-4,-68,117
3,425,248882,-2299,-16035,-1776,-1,-68,127
3,426,248887,-2184,-15862,-1739,2,-64,133
3,427,248892,-2031,-15883,-1825,-3,-77,154
3,428,248897,-1795,-16029,-1973,-1,-90,167
3,429,248902,-1952,-16059,-1220,4,-84,179
3,430,248907,-1882,-15898,-749,-1,-228,184
3,431,248912,-1926,-15950,-2906,7,-390,212
3,432,248917,-2153,-15843,-2035,7,-233,225
3,433,248922,-2206,-15530,-1578,9,-166,247
3,434,248927,-2372,-16310,-1327,16,-208,272
3,435,248932,-2536,-16419,-1580,17,-299,283
3,436,248937,-2298,-16032,-1398,17,-368,305
3,437,248942,-2584,-15926,-2103,21,-425,318
3,438,248947,-3111,-16059,-2794,30,-364,333
3,439,248952,-3062,-16038,-2449,32,-236,351
3,440,248957,-2818,-16001,-1923,31,-202,367
3,441,248962,-2704,-16101,-2056,36,-246,387
3,442,248967,-2916,-16028,-1913,36,-254,405
3,443,248972,-3250,-16124,-1996,38,-275,420
3,444,248977,-3476,-16000,-1878,45,-273,433
3,445,248982,-3487,-15978,-1876,46,-282,459
3,446,248987,-3245,-15999,-1772,53,-283,482
3,447,248992,-3153,-15961,-1862,60,-275,501
3,448,248997,-3217,-16057,-1825,63,-266,520
3,449,249002,-3396,-16028,-1845,65,-253,540
3,450,249007,-3526,-16061,-1730,69,-240,560
3,451,249012,-3549,-16015,-1821,73,-233,578
3,452,249017,-3458,-16026,-1968,76,-219,601
3,453,249022,-3495,-15986,-2000,80,-203,617
3,454,249027,-3734,-15898,-1918,85,-182,635
3,455,249032,-3778,-15880,-2066,90,-173,652
3,456,249037,-3748,-15937,-2184,95,-154,671
3,457,249042,-3573,-15960,-2165,97,-130,693
3,458,249047,-3682,-16032,-1989,101,-111,711
3,459,249052,-3875,-16155,-1863,105,-92,724
3,460,249057,-4042,-16136,-1796,107,-75,743
3,461,249062,-4161,-16185,-1785,109,-62,760
3,462,249067,-4101,-16047,-1802,113,-35,772
3,463,249072,-4148,-16038,-1752,114,-17,794
3,464,249077,-4200,-16186,-1903,124,-6,809
3,465,249082,-4293,-16066,-1929,131,24,821
3,466,249087,-4140,-15882,-1685,126,59,836
3,467,249092,-4299,-15961,-1525,126,69,852
3,468,249097,-4174,-15985,-1531,136,90,868
3,469,249102,-4342,-15896,-1690,138,101,883
3,470,249107,-4459,-15880,-1743,140,106,895
3,471,249112,-4354,-15784,-1726,142,107,912
3,472,249117,-4193,-15674,-1615,142,122,923
3,473,249122,-4363,-15645,-1558,144,124,932
3,474,249127,-4537,-15633,-1753,152,117,941
3,475,249132,-4673,-15652,-1971,155,115,954
3,476,249137,-4563,-15721,-1925,158,111,965
3,477,249142,-4525,-15764,-1595,159,102,975
3,478,249147,-4574,-15673,-1572,165,94,980
3,479,249152,-4742,-15623,-1654,170,100,985
3,480,249157,-4911,-15601,-1693,174,90,991
3,481,249162,-4872,-15672,-1467,181,73,1006
3,482,249167,-4837,-15603,-1467,186,65,1011
3,483,249172,-4952,-15456,-1673,194,61,1014
3,484,249177,-4937,-15358,-1833,198,70,1017
3,485,249182,-5176,-15445,-1857,199,78,1015
3,486,249187,-5029,-15525,-2036,202,95,1018
3,487,249192,-4885,-15346,-1862,206,140,1015
3,488,249197,-5039,-15637,-2242,209,160,1004
3,489,249202,-5385,-15721,-1681,213,211,990
3,490,249207,-5301,-15702,-2048,213,186,996
3,491,249212,-5265,-15547,-1706,224,231,990
3,492,249217,-5333,-15623,-2046,227,263,979
3,493,249222,-5516,-15661,-1758,228,306,967
3,494,249227,-5325,-15370,-2217,228,284,960
3,495,249232,-5262,-15250,-2036,237,307,948
3,496,249237,-5300,-15202,-2413,240,309,933
3,497,249242,-5386,-15037,-2302,241,342,922
3,498,249247,-5072,-14891,-2031,243,364,914
3,499,249252,-4827,-14841,-1783,243,382,902
3,500,249257,-4792,-14929,-1288,251,427,885
3,501,249262,-4959,-14965,-1163,254,396,863
3,502,249267,-5124,-15060,-1402,256,338,853
3,503,249272,-4893,-15062,-1380,259,323,837
3,504,249277,-4730,-15248,-1414,254,309,827
3,505,249282,-4751,-15474,-1136,252,300,806
3,506,249287,-4980,-15573,-1183,254,249,782
3,507,249292,-5164,-15537,-1560,255,216,762
3,508,249297,-5403,-15620,-1664,255,239,745
3,509,249302,-5459,-15827,-1011,255,264,716
3,510,249307,-5257,-15919,-1691,253,209,685
3,511,249312,-5292,-15983,-1110,250,252,660
3,512,249317,-5455,-15925,-829,247,251,633
3,513,249322,-5532,-16051,-1248,247,216,605
3,514,249327,-5628,-15955,-922,244,232,570
3,515,249332,-5573,-15888,-749,240,210,545
3,516,249337,-5600,-15807,-779,239,152,515
3,517,249342,-5670,-15678,-1442,238,115,476
3,518,249347,-5853,-15761,-814,233,154,445
3,519,249352,-5722,-15706,-1397,226,81,413
3,520,249357,-5351,-15599,-1290,224,96,376
3,521,249362,-5120,-15673,-1064,220,103,342
3,522,249367,-5103,-15756,-1487,217,68,302
3,523,249372,-5209,-15732,-1867,218,86,260
3,524,249377,-5301,-15728,-1357,208,127,225
3,525,249382,-5189,-15793,-2076,203,106,190
3,526,249387,-5078,-15721,-1744,199,185,142
3,527,249392,-5123,-15735,-1474,193,233,105
3,528,249397,-5161,-15696,-1459,192,252,63
3,529,249402,-4998,-15588,-1489,190,254,21
3,530,249407,-4961,-15613,-1875,185,232,-11
3,531,249412,-4922,-15512,-1465,178,250,-51
3,532,249417,-4912,-15446,-1196,177,236,-88
3,533,249422,-4656,-15370,-1219,173,199,-128
3,534,249427,-4655,-15499,-1651,166,151,-160
3,535,249432,-4638,-15522,-1417,160,150,-195
3,536,249437,-4618,-15440,-1130,158,131,-236
3,537,249442,-4560,-15382,-1277,152,92,-273
3,538,249447,-4606,-15353,-1370,148,69,-316
3,539,249452,-4686,-15343,-1443,139,36,-351
3,540,249457,-4596,-15352,-1310,130,9,-385
3,541,249462,-4518,-15340,-1006,123,-18,-427
3,542,249467,-4523,-15440,-1436,119,-59,-459
3,543,249472,-4619,-15447,-1758,115,-68,-497
3,544,249477,-4559,-15493,-1979,102,-77,-533
3,545,249482,-4389,-15405,-1876,95,-71,-570
3,546,249487,-4239,-15434,-1838,90,-48,-613
3,547,249492,-4343,-15675,-2252,88,-19,-654
3,548,249497,-4378,-15755,-2829,80,8,-695
3,549,249502,-4234,-15631,-2369,72,48,-725
3,550,249507,-4112,-15476,-1863,60,80,-762
3,551,249512,-4019,-15463,-1727,58,104,-807
3,552,249517,-4115,-15445,-1833,58,119,-845
3,553,249522,-4171,-15365,-2090,52,102,-883
3,554,249527,-4261,-15353,-1855,39,76,-947
3,555,249532,-4100,-15379,-1901,38,49,-982
3,556,249537,-4075,-15376,-1921,35,35,-1016
3,557,249542,-4231,-15572,-1846,28,18,-1055
3,558,249547,-4123,-15659,-1852,24,-26,-1092
3,559,249552,-3809,-15866,-2051,17,-69,-1116
3,560,249557,-3233,-15724,-1697,11,-69,-1153
3,561,249562,-2851,-15609,-1645,3,-105,-1183
3,562,249567,-3161,-15843,-2123,1,-146,-1219
3,563,249572,-3715,-15968,-2226,-4,-155,-1254
3,564,249577,-3636,-15917,-2215,-15,-154,-1283
3,565,249582,-3254,-15945,-1947,-19,-133,-1314
3,566,249587,-2799,-16096,-1790,-27,-110,-1347
3,567,249592,-2685,-16164,-1417,-37,-82,-1383
3,568,249597,-2890,-16118,-1076,-44,-65,-1412
3,569,249602,-2880,-16401,-827,-53,-51,-1433
3,570,249607,-2779,-16624,-663,-67,-27,-1457
3,571,249612,-2861,-17163,-384,-72,-27,-1484
3,572,249617,-3002,-17228,-556,-84,-60,-1511
3,573,249622,-3458,-17100,72,-95,-72,-1530
3,574,249627,-4113,-17924,-36,-96,-130,-1530
3,575,249632,-4049,-18173,-383,-106,-187,-1573
3,576,249637,-3684,-18157,246,-125,-232,-1620
3,577,249642,-3635,-18503,-398,-131,-344,-1643
3,578,249647,-3685,-18639,-605,-144,-376,-1668
3,579,249652,-3303,-18755,-402,-162,-388,-1690
3,580,249657,-2800,-18735,-631,-175,-423,-1719
3,581,249662,-2674,-18564,-549,-196,-418,-1737
3,582,249667,-2874,-18462,-282,-215,-374,-1752
3,583,249672,-3063,-18598,-573,-229,-341,-1770
3,584,249677,-2835,-18742,-881,-239,-289,-1787
3,585,249682,-2707,-18842,-950,-256,-248,-1806
3,586,249687,-2738,-18845,-419,-265,-216,-1819
3,587,249692,-2633,-18765,-859,-273,-223,-1833
3,588,249697,-2522,-18868,-989,-283,-186,-1842
3,589,249702,-2406,-18954,-837,-292,-182,-1854
3,590,249707,-2348,-18916,-483,-296,-245,-1860
3,591,249712,-2280,-18897,-1396,-298,-338,-1856
3,592,249717,-2158,-18791,-780,-302,-285,-1867
3,593,249722,-2032,-18695,-1338,-308,-303,-1864
3,594,249727,-2148,-18461,-787,-319,-269,-1868
3,595,249732,-2376,-18405,-1113,-324,-303,-1863
3,596,249737,-2293,-18223,-1598,-332,-298,-1852
3,597,249742,-1804,-17925,-1213,-344,-249,-1834
3,598,249747,-1227,-17938,-1360,-349,-187,-1817
3,599,249752,-1975,-5578,-8730,-394,-316,-1759
3,600,249757,-4302,10222,2356,-187,1091,-2172
3,601,249762,7242,-15705,-1839,-600,1118,-1590
3,602,249767,-1778,-795,13533,-325,2931,-1068
3,603,249772,25423,-18990,6670,-245,1629,-868
3,604,249777,-11147,-11696,18373,-189,2731,-1566
3,605,249782,-12734,-22517,1542,-142,-1499,-1261
3,606,249787,-16357,-11874,-12774,-273,-4061,-1117
3,607,249792,10475,-17339,-6213,-396,-4160,-927
3,608,249797,12752,-16541,-10568,-437,-2897,-1167
3,609,249802,-181,-19011,-5646,-284,-81,-1306
3,610,249807,-12046,-17672,-4562,-321,1175,-1323
3,611,249812,-9508,-14604,-3359,-355,656,-1151
3,612,249817,4183,-16857,-935,-428,101,-936
3,613,249822,6718,-16714,5583,-394,356,-996
3,614,249827,1192,-17878,2707,-305,262,-1078
3,615,249832,-7049,-16281,-2694,-285,-153,-1052
3,616,249837,-5408,-16306,-6765,-341,-659,-865
3,617,249842,849,-15785,-3962,-388,-445,-784
3,618,249847,4178,-15966,1887,-376,82,-765
3,619,249852,1317,-16163,589,-321,189,-785
3,620,249857,-3142,-15714,-3935,-305,-14,-760
3,621,249862,-3620,-15287,-5274,-339,-149,-654
3,622,249867,-155,-14558,-1537,-369,-56,-564
3,623,249872,2671,-14863,1238,-354,-9,-504
3,624,249877,1570,-14969,-1102,-310,-122,-497
3,625,249882,-1781,-14918,-3834,-296,-218,-459
3,626,249887,-2976,-14333,-3306,-321,-272,-389
3,627,249892,-776,-14077,-2068,-332,-335,-305
3,628,249897,512,-14802,-1645,-294,-123,-222
3,629,249902,-1341,-14648,-2768,-284,-170,-195
3,630,249907,-2065,-14474,-3456,-289,-228,-133
3,631,249912,-843,-14511,-2002,-293,-157,-74
3,632,249917,365,-14650,-1258,-287,-125,-27
3,633,249922,154,-14705,-1799,-270,-129,6
3,634,249927,-1040,-14615,-2650,-265,-133,42
3,635,249932,-1540,-14491,-2723,-262,-120,91
3,636,249937,-861,-14429,-2293,-260,-91,146
3,637,249942,67,-14482,-2171,-252,-57,192
3,638,249947,93,-14657,-2470,-242,-28,221
3,639,249952,-491,-14728,-2659,-233,-5,251
3,640,249957,-729,-14776,-2815,-230,-1,294
3,641,249962,-418,-14838,-2527,-222,31,333
3,642,249967,-26,-15002,-2118,-214,59,371
3,643,249972,64,-15078,-2216,-206,44,401
3,644,249977,-255,-15122,-2313,-199,28,434
3,645,249982,-300,-15034,-2533,-189,11,463
3,646,249987,-179,-15116,-2327,-181,5,500
3,647,249992,156,-15203,-2511,-171,-11,523
3,648,249997,333,-15407,-2561,-162,-7,553
3,649,250002,360,-15486,-2637,-156,-16,571
3,650,250007,154,-15519,-2322,-148,-13,590
3,651,250012,117,-15604,-2390,-140,-35,619
3,652,250017,287,-15835,-2370,-132,-39,645
3,653,250022,410,-15875,-2398,-129,-42,657
3,654,250027,184,-16068,-2236,-123,-52,680
3,655,250032,-107,-16079,-2383,-107,-69,695
3,656,250037,-316,-16107,-2197,-97,-62,713
3,657,250042,-410,-16143,-2177,-87,-73,733
3,658,250047,-253,-16168,-2366,-78,-86,742
3,659,250052,-293,-16215,-2780,-73,-87,743
3,660,250057,-456,-16199,-2605,-68,-56,748
3,661,250062,-519,-16153,-2739,-59,-57,759
3,662,250067,-432,-16198,-2796,-48,-32,762
3,663,250072,-255,-16181,-2849,-45,14,766
3,664,250077,-78,-16168,-2716,-37,64,767
3,665,250082,42,-16218,-2696,-30,74,765
3,666,250087,99,-16293,-2997,-28,80,768
3,667,250092,104,-16259,-2520,-20,151,769
3,668,250097,265,-16174,-2581,-11,139,770
3,669,250102,328,-16248,-3036,-7,129,768
3,670,250107,67,-16181,-2445,-4,193,761
3,671,250112,36,-16203,-2569,7,167,764
3,672,250117,88,-16310,-2757,11,154,763
3,673,250122,-21,-16346,-2693,16,179,754
3,674,250127,-156,-16411,-2687,20,184,750
3,675,250132,-29,-16448,-2830,25,179,741
3,676,250137,57,-16400,-2745,31,183,731
3,677,250142,1,-16429,-2551,32,191,720
3,678,250147,-138,-16426,-2672,39,182,710
3,679,250152,-281,-16444,-2610,43,186,702
3,680,250157,-358,-16419,-2559,49,184,690
3,681,250162,-190,-16517,-2573,49,184,679
3,682,250167,12,-16466,-2514,49,192,666
3,683,250172,-53,-16438,-2404,53,199,655
3,684,250177,-197,-16453,-2682,58,199,637
3,685,250182,-265,-16406,-2656,64,218,627
3,686,250187,-163,-16408,-2827,61,210,613
3,687,250192,-97,-16454,-2675,67,217,598
3,688,250197,-216,-16432,-2623,71,225,579
3,689,250202,-262,-16455,-2514,68,225,565
3,690,250207,-426,-16619,-2621,72,213,550
3,691,250212,-277,-16540,-2625,75,213,533
3,692,250217,-111,-16447,-2516,73,210,519
3,693,250222,-158,-16397,-2566,76,203,496
3,694,250227,-365,-16458,-2645,80,199,481
3,695,250232,-440,-16350,-2617,81,202,467
3,696,250237,-182,-16416,-2604,80,194,453
3,697,250242,-85,-16416,-2512,83,184,434
3,698,250247,-187,-16385,-2517,85,180,413
3,699,250252,-349,-16321,-2772,89,177,395
3,700,250257,-403,-16265,-2840,88,181,379
3,701,250262,-210,-16315,-2812,88,197,346
3,702,250267,-365,-16370,-2646,86,206,327
3,703,250272,-450,-16266,-2698,88,203,306
3,704,250277,-440,-16222,-2500,93,206,292
3,705,250282,-396,-16219,-2483,92,190,281
3,706,250287,-474,-16250,-2564,93,171,263
3,707,250292,-511,-16239,-2511,97,165,245
3,708,250297,-490,-16223,-2620,97,143,231
3,709,250302,-476,-16205,-2668,96,132,218
3,710,250307,-543,-16173,-2633,96,133,201
3,711,250312,-612,-16281,-2541,98,120,184
3,712,250317,-626,-16298,-2500,98,113,167
3,713,250322,-656,-16355,-2486,98,106,153
3,714,250327,-694,-16443,-2626,99,92,141
3,715,250332,-656,-16457,-2697,98,88,128
3,716,250337,-667,-16379,-2550,97,93,114
3,717,250342,-760,-16339,-2670,95,87,100
3,718,250347,-773,-16262,-2766,101,84,87
3,719,250352,-718,-16257,-2793,98,96,76
3,720,250357,-645,-16235,-2877,98,95,65
3,721,250362,-695,-16268,-2833,99,102,49
3,722,250367,-820,-16303,-2872,99,113,38
3,723,250372,-804,-16340,-2803,99,128,30
3,724,250377,-697,-16243,-2646,96,134,21
3,725,250382,-774,-16225,-2499,97,132,12
3,726,250387,-943,-16299,-2587,97,118,2
3,727,250392,-940,-16278,-2512,99,122,-5
3,728,250397,-876,-16309,-2603,100,116,-10
3,729,250402,-805,-16305,-2841,97,101,-19
3,730,250407,-869,-16312,-2799,96,100,-30
3,731,250412,-896,-16296,-2781,97,96,-37
3,732,250417,-880,-16191,-2612,94,91,-39
3,733,250422,-1035,-16242,-2649,94,71,-42
3,734,250427,-1206,-16112,-2565,99,63,-52
3,735,250432,-1078,-16145,-2776,98,42,-58
3,736,250437,-1169,-16065,-2793,95,28,-61
3,737,250442,-1265,-16100,-2634,97,10,-68
3,738,250447,-1337,-16089,-2656,96,0,-75
3,739,250452,-1403,-16153,-2617,92,-6,-75
3,740,250457,-1257,-16150,-2725,94,-27,-80
3,741,250462,-1243,-16115,-2669,94,-32,-84
3,742,250467,-1289,-16099,-2623,89,-42,-87
3,743,250472,-1326,-16172,-2764,90,-44,-91
3,744,250477,-1272,-16179,-2942,92,-35,-95
3,745,250482,-1183,-16204,-3014,88,-19,-99
3,746,250487,-1254,-16251,-2881,83,-1,-103
3,747,250492,-1366,-16272,-2639,84,18,-106
3,748,250497,-1299,-16244,-2600,82,33,-107
3,749,250502,-1237,-16311,-2707,79,44,-110
3,750,250507,-1244,-16296,-2640,77,54,-112
3,751,250512,-1311,-16230,-2573,75,59,-114
3,752,250517,-1408,-16324,-2518,73,66,-115
3,753,250522,-1493,-16384,-2624,70,73,-117
3,754,250527,-1332,-16203,-2675,67,76,-120
3,755,250532,-1246,-16131,-2662,63,85,-122
3,756,250537,-1462,-16084,-2636,64,85,-126
3,757,250542,-1526,-16085,-2651,62,91,-125
3,758,250547,-1353,-16007,-2556,59,95,-123
3,759,250552,-1255,-15951,-2437,59,90,-118
3,760,250557,-1307,-15986,-2355,52,80,-120
3,761,250562,-1357,-15974,-2434,54,70,-123
3,762,250567,-1329,-15999,-2563,58,56,-121
3,763,250572,-1200,-16035,-2685,56,44,-115
3,764,250577,-1093,-15995,-2482,48,44,-117
3,765,250582,-1041,-16028,-2308,44,41,-115
3,766,250587,-1150,-16144,-2386,48,37,-112
3,767,250592,-1249,-16190,-2278,46,30,-114
3,768,250597,-1242,-16240,-2327,44,20,-109
3,769,250602,-1151,-16217,-2364,42,13,-105
3,770,250607,-1137,-16176,-2306,39,5,-104
3,771,250612,-1204,-16150,-2364,39,-9,-103
3,772,250617,-1281,-16154,-2486,37,-17,-97
3,773,250622,-1279,-16098,-2477,35,-21,-94
3,774,250627,-1317,-16104,-2405,32,-27,-93
3,775,250632,-1337,-15993,-2478,31,-29,-93
3,776,250637,-1299,-16009,-2556,29,-35,-91
3,777,250642,-1273,-16002,-2532,28,-29,-89
3,778,250647,-1304,-16070,-2430,26,-24,-87
3,779,250652,-1320,-16135,-2400,29,-25,-85
3,780,250657,-1247,-16162,-2450,27,-19,-81
3,781,250662,-1223,-16105,-2536,25,-17,-78
3,782,250667,-1208,-16169,-2437,27,-5,-76
3,783,250672,-1252,-16254,-2469,25,4,-75
3,784,250677,-1250,-16258,-2565,24,8,-73
3,785,250682,-1267,-16294,-2533,20,14,-67
3,786,250687,-1225,-16342,-2314,15,14,-64
3,787,250692,-1241,-16299,-2042,16,3,-60
3,788,250697,-1359,-16335,-2090,18,-23,-57
3,789,250702,-1420,-16391,-2177,18,-42,-55
3,790,250707,-1436,-16397,-2192,14,-56,-51
3,791,250712,-1376,-16445,-2143,11,-64,-47
3,792,250717,-1292,-16378,-2122,12,-66,-48
3,793,250722,-1222,-16424,-2315,11,-73,-41
3,794,250727,-1349,-16436,-2370,7,-62,-42
3,795,250732,-1393,-16430,-2291,4,-46,-41
3,796,250737,-1341,-16391,-2415,3,-41,-38
3,797,250742,-1223,-16330,-2454,2,-21,-34
3,798,250747,-1152,-16263,-2476,2,-3,-29
3,799,250752,-1212,-16200,-2489,-3,14,-25
3,800,250757,-1245,-16129,-2523,-4,27,-23
3,801,250762,-1218,-16101,-2495,-1,41,-19
3,802,250767,-1193,-16160,-2448,-5,53,-16
3,803,250772,-1178,-16267,-2466,-4,56,-13
3,804,250777,-1165,-16272,-2316,-4,59,-9
3,805,250782,-1158,-16232,-2191,-6,44,-5
3,806,250787,-1182,-16144,-2226,-8,29,-3
3,807,250792,-1192,-16106,-2271,-9,11,3
3,808,250797,-1259,-16112,-2298,-9,-3,8
3,809,250802,-1297,-16127,-2306,-10,-17,12
3,810,250807,-1327,-16122,-2219,-11,-27,17
3,811,250812,-1347,-16106,-2322,-11,-32,17
3,812,250817,-1308,-16034,-2417,-12,-32,20
3,813,250822,-1209,-15980,-2450,-13,-31,25
3,814,250827,-1177,-15943,-2466,-17,-22,25
3,815,250832,-1263,-16049,-2510,-14,-10,28
3,816,250837,-1344,-16148,-2385,-13,4,32
3,817,250842,-1262,-16179,-2329,-14,15,35
3,818,250847,-1156,-16135,-2260,-14,15,41
3,819,250852,-1125,-16069,-2209,-13,13,39
3,820,250857,-1230,-16047,-2193,-13,10,40
3,821,250862,-1331,-16041,-2269,-15,0,44
3,822,250867,-1342,-16036,-2307,-14,-7,49
3,823,250872,-1231,-16011,-2387,-14,-15,51
3,824,250877,-1202,-16022,-2375,-15,-22,48
3,825,250882,-1218,-16102,-2421,-16,-30,49
3,826,250887,-1317,-16168,-2365,-13,-29,51
3,827,250892,-1307,-16215,-2285,-15,-32,54
3,828,250897,-1251,-16219,-2238,-16,-32,52
3,829,250902,-1263,-16248,-2224,-14,-29,53
3,830,250907,-1286,-16263,-2288,-12,-21,55
3,831,250912,-1253,-16296,-2202,-14,-17,56
3,832,250917,-1188,-16273,-2169,-12,-16,59
3,833,250922,-1182,-16268,-2128,-10,-16,60
3,834,250927,-1177,-16267,-2095,-12,-18,58
3,835,250932,-1327,-16289,-2124,-10,-23,57
3,836,250937,-1373,-16295,-2131,-11,-31,56
3,837,250942,-1408,-16304,-2127,-10,-36,56
3,838,250947,-1333,-16338,-2138,-12,-45,55
3,839,250952,-1226,-16350,-2200,-12,-52,58
3,840,250957,-1246,-16360,-2202,-9,-49,54
3,841,250962,-1325,-16346,-2294,-9,-52,51
3,842,250967,-1274,-16360,-2410,-9,-46,54
3,843,250972,-1260,-16325,-2293,-8,-27,49
3,844,250977,-1240,-16332,-2283,-6,-15,46
3,845,250982,-1245,-16335,-2459,-2,1,46
3,846,250987,-1289,-16282,-2414,-2,29,44
3,847,250992,-1249,-16299,-2392,-2,48,44
3,848,250997,-1042,-16327,-2361,-2,92,39
3,849,251002,-1117,-16294,-2288,1,105,38
3,850,251007,-1193,-16225,-2212,3,109,38
3,851,251012,-1227,-16177,-2161,4,109,40
3,852,251017,-1191,-16168,-2175,9,101,39
3,853,251022,-1139,-16172,-2234,13,85,34
3,854,251027,-1134,-16164,-2165,9,68,35
3,855,251032,-1221,-16196,-2106,12,45,35
3,856,251037,-1266,-16236,-2081,14,25,34
3,857,251042,-1159,-16212,-2125,15,3,32
3,858,251047,-1077,-16152,-2210,15,-18,31
3,859,251052,-1078,-16178,-2212,20,-39,35
3,860,251057,-1174,-16165,-2305,20,-48,29
3,861,251062,-1247,-16167,-2421,23,-43,26
3,862,251067,-1219,-16160,-2371,21,-32,25
3,863,251072,-1218,-16213,-2223,23,-21,26
3,864,251077,-1173,-16312,-2153,26,-12,22
3,865,251082,-1160,-16306,-2170,26,4,20
3,866,251087,-1228,-16307,-2150,27,27,17
3,867,251092,-1269,-16361,-1992,28,41,17
3,868,251097,-1178,-16335,-2279,27,25,17
3,869,251102,-1156,-16277,-2066,28,50,15
3,870,251107,-1181,-16291,-2020,31,49,17
3,871,251112,-1235,-16271,-2283,30,43,11
3,872,251117,-1318,-16205,-2175,30,59,11
3,873,251122,-1305,-16241,-2267,33,53,12
3,874,251127,-1234,-16178,-2295,34,53,6
3,875,251132,-1129,-16188,-2274,31,58,6
3,876,251137,-1084,-16162,-2231,33,51,3
3,877,251142,-1178,-16236,-2331,36,38,4
3,878,251147,-1286,-16291,-2260,36,35,1
3,879,251152,-1271,-16216,-2253,37,30,2
3,880,251157,-1195,-16240,-2270,36,18,3
3,881,251162,-1186,-16232,-2243,39,15,2
3,882,251167,-1244,-16173,-2264,42,8,1
3,883,251172,-1286,-16176,-2307,41,2,2
3,884,251177,-1230,-16165,-2341,42,4,1
3,885,251182,-1182,-16119,-2306,43,5,-2
3,886,251187,-1180,-16123,-2313,43,6,-1
3,887,251192,-1226,-16134,-2296,45,10,-3
3,888,251197,-1288,-16106,-2326,49,15,-5
3,889,251202,-1233,-16088,-2291,45,17,-3
3,890,251207,-1216,-16084,-2170,45,22,-4
3,891,251212,-1292,-16106,-2116,47,22,-6
3,892,251217,-1305,-16137,-2175,48,19,-9
3,893,251222,-1243,-16188,-2247,45,15,-8
3,894,251227,-1240,-16171,-2206,47,14,-6
3,895,251232,-1251,-16240,-2125,47,9,-7
3,896,251237,-1289,-16262,-2072,48,1,-8
3,897,251242,-1310,-16310,-2051,47,-7,-10
3,898,251247,-1267,-16288,-2077,46,-16,-10
3,899,251252,-1252,-16359,-2125,48,-22,-8
3,900,251257,-1264,-16384,-2173,46,-24,-7
3,901,251262,-1276,-16404,-2232,45,-21,-9
3,902,251267,-1271,-16356,-2251,48,-9,-10
3,903,251272,-1256,-16367,-2354,47,-5,-9
3,904,251277,-1251,-16319,-2367,43,8,-14
3,905,251282,-1257,-16348,-2301,44,22,-14
3,906,251287,-1248,-16394,-2255,44,32,-17
3,907,251292,-1242,-16371,-2142,46,39,-17
3,908,251297,-1220,-16318,-2159,48,40,-14
3,909,251302,-1282,-16285,-2024,44,38,-14
3,910,251307,-1334,-16305,-1888,42,32,-15
3,911,251312,-1354,-16302,-1967,43,20,-16
3,912,251317,-1254,-16266,-2012,44,8,-14
3,913,251322,-1217,-16297,-2117,43,-3,-14
3,914,251327,-1229,-16233,-2231,40,-11,-15
3,915,251332,-1195,-16255,-2303,41,-10,-13
3,916,251337,-1165,-16288,-2270,38,-4,-16
3,917,251342,-1226,-16222,-2171,39,2,-14
3,918,251347,-1288,-16187,-2159,40,9,-15
3,919,251352,-1282,-16189,-2196,40,14,-18
3,920,251357,-1281,-16160,-2336,37,18,-17
3,921,251362,-1265,-16144,-2246,39,32,-18
3,922,251367,-1291,-16172,-2187,40,36,-18
3,923,251372,-1358,-16151,-2182,42,37,-19
3,924,251377,-1367,-16181,-2195,40,34,-19
3,925,251382,-1313,-16181,-2199,37,34,-19
3,926,251387,-1162,-16197,-2139,40,33,-17
3,927,251392,-1148,-16256,-2095,39,37,-16
3,928,251397,-1150,-16246,-2030,39,35,-17
3,929,251402,-1193,-16215,-2126,38,26,-17
3,930,251407,-1212,-16197,-2210,38,22,-18
3,931,251412,-1174,-16109,-2241,35,20,-16
3,932,251417,-1148,-16033,-2150,34,18,-15
3,933,251422,-1215,-16078,-2137,35,20,-13
3,934,251427,-1215,-16184,-2241,38,12,-10
3,935,251432,-1190,-16206,-2236,36,12,-13
3,936,251437,-1137,-16199,-2093,35,7,-11
3,937,251442,-1216,-16224,-1999,35,2,-10
3,938,251447,-1330,-16240,-1948,35,-5,-10
3,939,251452,-1420,-16286,-1930,32,-15,-12
3,940,251457,-1388,-16327,-1913,28,-19,-9
3,941,251462,-1305,-16372,-1914,30,-25,-8
3,942,251467,-1271,-16447,-2015,29,-29,-9
3,943,251472,-1287,-16432,-2060,26,-26,-7
3,944,251477,-1316,-16441,-2123,27,-22,-5
3,945,251482,-1332,-16457,-2152,28,-20,-6
3,946,251487,-1271,-16421,-2096,24,-14,-7
3,947,251492,-1222,-16412,-2137,24,-7,-6
3,948,251497,-1291,-16384,-2216,24,-1,-5
3,949,251502,-1314,-16382,-2167,23,5,-7
3,950,251507,-1304,-16364,-2126,24,12,-7
3,951,251512,-1243,-16346,-2028,23,22,-6
3,952,251517,-1202,-16327,-2038,22,22,-4
3,953,251522,-1248,-16340,-2112,20,22,-3
3,954,251527,-1262,-16297,-2091,21,22,-1
3,955,251532,-1303,-16318,-2102,20,18,0
3,956,251537,-1274,-16314,-2049,17,20,0
3,957,251542,-1268,-16311,-2027,18,18,0
3,958,251547,-1243,-16284,-2049,18,15,4
3,959,251552,-1212,-16266,-2024,19,10,3
3,960,251557,-1229,-16164,-2010,17,7,2
3,961,251562,-1348,-16163,-2055,16,2,4
3,962,251567,-1318,-16193,-2084,17,1,4
3,963,251572,-1237,-16211,-2072,15,2,5
3,964,251577,-1219,-16297,-1984,13,3,7
3,965,251582,-1233,-16315,-1986,13,-2,8
3,966,251587,-1288,-16291,-1927,13,-2,8
3,967,251592,-1325,-16345,-1868,13,-6,9
3,968,251597,-1344,-16373,-1821,13,-15,11
3,969,251602,-1264,-16403,-1869,11,-18,9
3,970,251607,-1240,-16403,-1915,12,-24,8
3,971,251612,-1237,-16397,-2002,11,-30,10
3,972,251617,-1261,-16336,-2074,9,-32,12
3,973,251622,-1266,-16317,-2080,8,-30,11
3,974,251627,-1252,-16251,-2056,8,-31,13
3,975,251632,-1301,-16244,-2021,8,-27,12
3,976,251637,-1324,-16244,-2017,9,-29,12
3,977,251642,-1348,-16250,-2037,6,-26,10
3,978,251647,-1361,-16246,-2072,3,-23,9
3,979,251652,-1353,-16254,-2073,4,-19,11
3,980,251657,-1312,-16221,-2143,6,-10,14
3,981,251662,-1280,-16176,-2175,3,3,11
3,982,251667,-1284,-16179,-2103,4,13,10
3,983,251672,-1358,-16150,-1976,4,23,10
3,984,251677,-1305,-16163,-2054,4,28,12
3,985,251682,-1184,-16217,-2054,2,36,11
3,986,251687,-1101,-16249,-2029,3,39,13
3,987,251692,-1116,-16227,-1956,4,35,13
3,988,251697,-1250,-16211,-1883,2,32,15
3,989,251702,-1296,-16199,-1940,2,22,13
3,990,251707,-1242,-16191,-2010,1,8,14
3,991,251712,-1235,-16204,-1996,-1,-3,17
3,992,251717,-1260,-16246,-2025,0,-12,15
3,993,251722,-1291,-16268,-2123,1,-21,12
3,994,251727,-1352,-16241,-2128,1,-21,13
3,995,251732,-1370,-16217,-2058,-1,-17,13
3,996,251737,-1358,-16193,-2075,2,-14,11
3,997,251742,-1363,-16247,-2097,1,-10,13
3,998,251747,-1345,-16259,-2064,-1,-4,12
3,999,251752,-1344,-16282,-2045,3,2,10
