event_id,seq,ts_ms,ax,ay,az,gx,gy,gz
1,0,11767,-999,-16914,-3996,17,64,39
1,1,11772,-168,-16917,-3898,19,30,60
1,2,11777,731,-16830,-3513,21,55,58
1,3,11782,575,-17440,-2517,32,128,41
1,4,11787,-193,-17969,-2040,51,137,24
1,5,11792,-374,-18329,-2705,64,56,24
1,6,11797,-181,-18697,-3321,66,-33,29
1,7,11802,-58,-19045,-2610,59,-34,21
1,8,11807,-97,-19308,-1742,62,-14,15
1,9,11812,-56,-19590,-1919,68,-21,11
1,10,11817,140,-19806,-2498,73,-16,7
1,11,11822,137,-19759,-2415,69,7,-1
1,12,11827,312,-19534,-1583,62,-8,0
1,13,11832,488,-19207,-893,58,-94,7
1,14,11837,504,-18927,-1360,64,-230,15
1,15,11842,450,-18725,-1911,61,-341,24
1,16,11847,182,-18470,-2183,58,-427,26
1,17,11852,-226,-18220,-2210,57,-493,27
1,18,11857,-423,-17952,-2428,56,-541,27
1,19,11862,-926,-17610,-2715,53,-529,21
1,20,11867,-1329,-17390,-3103,52,-485,12
1,21,11872,-1549,-17103,-3292,49,-408,2
1,22,11877,-1279,-16937,-3729,45,-333,-7
1,23,11882,-877,-16665,-3630,40,-234,-19
1,24,11887,-847,-16492,-3420,34,-153,-33
1,25,11892,-1063,-16369,-2823,26,-97,-48
1,26,11897,-1111,-16243,-2471,13,-77,-54
1,27,11902,-907,-16123,-2292,5,-51,-55
1,28,11907,-813,-15855,-2295,2,-23,-54
1,29,11912,-920,-15634,-2224,-10,1,-54
1,30,11917,-1160,-15502,-2214,-17,-4,-54
1,31,11922,-1041,-15438,-2504,-23,-34,-53
1,32,11927,-310,-15074,-3079,-42,-30,-49
1,33,11932,-307,-14905,-2550,-53,-14,-51
1,34,11937,-272,-14724,-2169,-55,-63,-46
1,35,11942,-325,-14486,-2323,-58,-161,-39
1,36,11947,-330,-14221,-2886,-58,-272,-31
1,37,11952,-394,-14039,-3281,-61,-341,-23
1,38,11957,-604,-14067,-3450,-65,-362,-21
1,39,11962,-725,-14144,-3719,-68,-339,-20
1,40,11967,-716,-14293,-3889,-68,-277,-20
1,41,11972,-494,-14405,-3794,-74,-186,-20
1,42,11977,-697,-14509,-3360,-78,-101,-19
1,43,11982,-727,-14589,-3681,-80,-73,-17
1,44,11987,-960,-14478,-3488,-84,-71,-8
1,45,11992,-1213,-14434,-2929,-93,-98,-5
1,46,11997,-1355,-14454,-3026,-92,-143,-1
1,47,12002,-1320,-14592,-3787,-86,-151,3
1,48,12007,-1324,-14738,-3948,-85,-83,-2
1,49,12012,-1537,-14850,-3629,-89,-6,-7
1,50,12017,-1384,-14953,-3386,-87,25,-7
1,51,12022,-1211,-14971,-3383,-86,11,-5
1,52,12027,-1103,-14865,-3106,-88,-16,-3
1,53,12032,-1166,-14923,-2882,-86,-64,5
1,54,12037,-1198,-14998,-3176,-82,-131,12
1,55,12042,-1163,-15109,-3656,-85,-161,19
1,56,12047,-1123,-15153,-3756,-87,-142,21
1,57,12052,-1091,-15132,-3382,-86,-116,27
1,58,12057,-948,-15163,-3304,-81,-129,34
1,59,12062,-929,-15176,-3460,-73,-165,41
1,60,12067,-1164,-15272,-3418,-77,-209,43
1,61,12072,-1292,-15367,-3297,-75,-260,45
1,62,12077,-2279,-15728,-2876,-67,-296,50
1,63,12082,-1951,-15909,-3945,-64,-322,51
1,64,12087,-1460,-15687,-4667,-71,-218,47
1,65,12092,-1501,-15969,-3916,-69,-95,47
1,66,12097,-1851,-15573,-2611,-69,-29,40
1,67,12102,-1796,-15613,-3100,-64,-115,51
1,68,12107,-1711,-15721,-3295,-58,-150,51
1,69,12112,-1747,-15845,-3731,-63,-172,48
1,70,12117,-1710,-16022,-3369,-71,-127,41
1,71,12122,-1472,-16106,-3168,-65,-85,44
1,72,12127,-1228,-16192,-3131,-64,-44,48
1,73,12132,-1160,-16108,-3120,-64,-26,47
1,74,12137,-1281,-16052,-2786,-66,-41,48
1,75,12142,-1427,-16076,-2495,-67,-103,49
1,76,12147,-1370,-16224,-2622,-63,-168,57
1,77,12152,-1240,-16338,-3203,-64,-197,60
1,78,12157,-1117,-16343,-3429,-67,-155,62
1,79,12162,-1032,-16347,-3253,-74,-79,62
1,80,12167,-1011,-16296,-2922,-70,-39,62
1,81,12172,-1005,-16253,-2839,-65,-67,63
1,82,12177,-966,-16237,-3034,-62,-123,66
1,83,12182,-1084,-16172,-3165,-67,-159,69
1,84,12187,-1188,-16197,-3185,-68,-172,74
1,85,12192,-1176,-16152,-3345,-69,-170,77
1,86,12197,-1149,-16135,-3504,-66,-160,78
1,87,12202,-1135,-16101,-3532,-60,-146,82
1,88,12207,-1151,-16044,-3399,-58,-147,78
1,89,12212,-1128,-16050,-3329,-58,-157,78
1,90,12217,-1162,-16086,-3450,-58,-167,80
1,91,12222,-1271,-15979,-3533,-56,-168,86
1,92,12227,-1537,-15910,-3589,-54,-157,81
1,93,12232,-1725,-15933,-3696,-51,-130,77
1,94,12237,-1707,-16003,-3962,-49,-84,74
1,95,12242,-1527,-16095,-4064,-47,-2,70
1,96,12247,-1456,-16052,-3777,-47,86,65
1,97,12252,-1495,-15955,-3345,-47,131,59
1,98,12257,-1468,-15884,-3200,-46,115,56
1,99,12262,-1377,-15832,-3252,-41,71,61
1,100,12267,-1320,-15766,-3222,-39,27,64
1,101,12272,-1315,-15716,-3181,-37,-9,64
1,102,12277,-1229,-15624,-3269,-33,-44,67
1,103,12282,-1114,-15523,-3489,-33,-75,69
1,104,12287,-1070,-15464,-3572,-29,-71,73
1,105,12292,-1139,-15391,-3553,-22,-65,70
1,106,12297,-1151,-15458,-3629,-16,-103,77
1,107,12302,-1138,-15448,-3608,-16,-118,77
1,108,12307,-1178,-15504,-3516,-15,-129,75
1,109,12312,-1270,-15597,-3451,-9,-136,76
1,110,12317,-1397,-15694,-3507,-9,-142,76
1,111,12322,-1544,-15681,-3536,-5,-140,71
1,112,12327,-1600,-15621,-3598,-3,-130,68
1,113,12332,-1569,-15577,-3716,0,-111,66
1,114,12337,-1567,-15581,-3806,2,-73,62
1,115,12342,-1639,-15655,-3634,4,-36,60
1,116,12347,-1643,-15700,-3425,9,-23,53
1,117,12352,-1601,-15782,-3348,11,-22,50
1,118,12357,-1543,-15857,-3347,13,-15,50
1,119,12362,-1391,-15900,-3427,13,4,48
1,120,12367,-1175,-15951,-3250,13,18,45
1,121,12372,-1103,-15951,-2882,11,8,45
1,122,12377,-1140,-15905,-2707,14,-41,49
1,123,12382,-1032,-15915,-2903,19,-108,52
1,124,12387,-934,-15941,-3197,22,-146,53
1,125,12392,-1060,-15929,-3199,22,-154,54
1,126,12397,-1205,-15911,-3160,22,-164,51
1,127,12402,-1347,-15969,-3299,25,-174,51
1,128,12407,-1497,-16027,-3590,30,-171,49
1,129,12412,-1581,-16097,-3725,33,-147,47
1,130,12417,-1659,-16168,-3637,31,-108,41
1,131,12422,-1817,-16244,-3468,29,-67,35
1,132,12427,-1855,-16283,-3516,32,-34,29
1,133,12432,-1817,-16357,-3611,32,-2,19
1,134,12437,-1764,-16343,-3593,34,36,13
1,135,12442,-1729,-16352,-3385,34,67,9
1,136,12447,-1601,-16386,-3254,36,72,4
1,137,12452,-1552,-16344,-3169,32,71,-4
1,138,12457,-1413,-16249,-3066,30,64,-4
1,139,12462,-1249,-16123,-3032,30,49,-2
1,140,12467,-1134,-16063,-2985,32,28,-2
1,141,12472,-1038,-16013,-3043,35,-1,-3
1,142,12477,-1017,-15942,-3107,37,-35,-3
1,143,12482,-1010,-15878,-3195,36,-71,-4
1,144,12487,-1107,-15867,-3263,33,-99,0
1,145,12492,-1153,-15828,-3337,37,-107,0
1,146,12497,-1094,-15825,-3377,38,-101,0
1,147,12502,-1090,-15816,-3386,36,-91,-1
1,148,12507,-1253,-15799,-3351,39,-83,-4
1,149,12512,-1486,-15856,-3417,40,-84,-6
1,150,12517,-1590,-15949,-3615,40,-75,-10
1,151,12522,-1657,-16066,-3691,36,-43,-14
1,152,12527,-1699,-16124,-3416,33,3,-22
1,153,12532,-1748,-16107,-3235,30,40,-30
1,154,12537,-1614,-16007,-3291,34,64,-33
1,155,12542,-1482,-15924,-3345,35,82,-32
1,156,12547,-1399,-15909,-3261,31,90,-36
1,157,12552,-1370,-15881,-3037,32,73,-41
1,158,12557,-1273,-15856,-3040,33,39,-40
1,159,12562,-1132,-15888,-3169,34,15,-38
1,160,12567,-1112,-15892,-3161,35,9,-35
1,161,12572,-1178,-15904,-3030,34,1,-31
1,162,12577,-1216,-15924,-3011,35,-22,-32
1,163,12582,-1140,-15953,-3151,37,-50,-29
1,164,12587,-1131,-16035,-3174,37,-71,-30
1,165,12592,-1209,-16092,-3188,36,-77,-32
1,166,12597,-1277,-16163,-3210,35,-71,-33
1,167,12602,-1273,-16192,-3346,33,-61,-33
1,168,12607,-1293,-16189,-3327,34,-54,-29
1,169,12612,-1289,-16195,-3163,33,-52,-30
1,170,12617,-1332,-16163,-3102,35,-61,-32
1,171,12622,-1410,-16136,-3280,34,-67,-36
1,172,12627,-1520,-16158,-3421,33,-59,-38
1,173,12632,-1662,-16141,-3400,29,-45,-36
1,174,12637,-1754,-16091,-3261,31,-34,-39
1,175,12642,-1744,-16088,-3316,31,-30,-40
1,176,12647,-1731,-16119,-3537,35,-19,-42
1,177,12652,-1597,-16113,-3560,35,9,-46
1,178,12657,-1606,-16120,-3324,30,41,-52
1,179,12662,-1409,-16078,-3088,28,48,-53
1,180,12667,-1288,-16103,-3137,28,37,-52
1,181,12672,-1235,-16115,-3098,27,22,-50
1,182,12677,-1187,-16118,-3094,28,2,-48
1,183,12682,-1164,-16167,-3117,26,-19,-48
1,184,12687,-1148,-16120,-3224,27,-38,-46
1,185,12692,-1159,-16197,-3285,26,-43,-43
1,186,12697,-1185,-16215,-3272,23,-35,-41
1,187,12702,-1244,-16210,-3240,21,-37,-41
1,188,12707,-1250,-16204,-3309,20,-47,-40
1,189,12712,-1248,-16192,-3312,20,-43,-40
1,190,12717,-1241,-16157,-3318,22,-35,-41
1,191,12722,-1195,-16118,-3345,21,-29,-37
1,192,12727,-1169,-16123,-3349,22,-28,-37
1,193,12732,-1189,-16132,-3240,21,-28,-36
1,194,12737,-1260,-16172,-3117,17,-40,-34
1,195,12742,-1286,-16208,-3109,16,-55,-34
1,196,12747,-1268,-16210,-3172,16,-63,-34
1,197,12752,-1257,-16221,-3191,15,-54,-31
1,198,12757,-1258,-16242,-3187,13,-47,-27
1,199,12762,-1194,-16252,-3229,13,-32,-27
1,200,12767,-1155,-16321,-3206,12,-21,-26
1,201,12772,-1074,-16343,-3207,8,-13,-26
1,202,12777,-995,-16312,-3123,6,-7,-27
1,203,12782,-1043,-16337,-3019,4,-6,-23
1,204,12787,-1108,-16332,-2977,2,-17,-18
1,205,12792,-1055,-16321,-3070,-2,-26,-16
1,206,12797,-968,-16261,-3134,-3,-36,-10
1,207,12802,-1088,-16159,-3098,-7,-43,-8
1,208,12807,-1257,-16138,-3106,-5,-55,-6
1,209,12812,-1311,-16118,-3157,-5,-70,-1
1,210,12817,-1333,-16084,-3323,-5,-77,3
1,211,12822,-1360,-16085,-3346,-6,-78,3
1,212,12827,-1435,-16071,-3376,-6,-78,4
1,213,12832,-1551,-16057,-3399,-8,-79,2
1,214,12837,-1685,-16021,-3373,-10,-75,3
1,215,12842,-1559,-15948,-3571,-11,-63,5
1,216,12847,-1669,-15941,-3462,-10,-31,2
1,217,12852,-1604,-15918,-3382,-11,-6,4
1,218,12857,-1668,-15882,-3388,-11,4,3
1,219,12862,-1648,-15925,-3355,-14,5,3
1,220,12867,-1669,-15896,-3221,-15,0,3
1,221,12872,-1666,-15894,-3173,-14,-5,2
1,222,12877,-1607,-15872,-3302,-14,-2,0
1,223,12882,-1509,-15894,-3315,-15,2,4
1,224,12887,-1484,-15858,-3215,-18,-4,5
1,225,12892,-1502,-15822,-3137,-18,-21,4
1,226,12897,-1400,-15874,-3171,-16,-49,7
1,227,12902,-1313,-15881,-3325,-15,-64,9
1,228,12907,-1258,-15879,-3402,-18,-66,12
1,229,12912,-1241,-15888,-3344,-20,-65,14
1,230,12917,-1222,-15798,-3342,-20,-73,14
1,231,12922,-1143,-15815,-3354,-19,-86,19
1,232,12927,-1160,-15868,-3383,-18,-91,20
1,233,12932,-1256,-15890,-3380,-16,-82,20
1,234,12937,-1358,-15924,-3322,-18,-70,22
1,235,12942,-1358,-15943,-3307,-18,-61,23
1,236,12947,-1374,-16008,-3269,-21,-52,19
1,237,12952,-1411,-16072,-3275,-22,-39,19
1,238,12957,-1370,-16119,-3269,-21,-25,14
1,239,12962,-1336,-16134,-3306,-23,-6,14
1,240,12967,-1269,-16143,-3291,-26,17,13
1,241,12972,-1272,-16148,-3143,-29,29,12
1,242,12977,-1330,-16141,-2966,-27,18,12
1,243,12982,-1379,-16082,-3004,-27,-4,14
1,244,12987,-1369,-16088,-3183,-27,-21,14
1,245,12992,-1315,-16097,-3270,-28,-16,15
1,246,12997,-1242,-16071,-3150,-32,-4,19
1,247,13002,-1204,-16057,-3121,-30,-5,16
1,248,13007,-1298,-16083,-3194,-30,-20,12
1,249,13012,-1386,-16080,-3251,-29,-35,13
1,250,13017,-1404,-16119,-3229,-26,-45,14
1,251,13022,-1363,-16158,-3168,-25,-47,16
1,252,13027,-1267,-16169,-3144,-26,-42,16
1,253,13032,-1273,-16253,-3234,-26,-50,12
1,254,13037,-1296,-16305,-3234,-24,-65,15
1,255,13042,-1289,-16324,-3298,-26,-66,12
1,256,13047,-1226,-16303,-3264,-24,-57,8
1,257,13052,-1229,-16236,-3165,-26,-44,8
1,258,13057,-1239,-16143,-3142,-27,-43,11
1,259,13062,-1322,-16130,-3180,-25,-47,12
1,260,13067,-1347,-16134,-3268,-26,-50,9
1,261,13072,-1348,-16117,-3270,-24,-43,7
1,262,13077,-1394,-16130,-3264,-22,-35,6
1,263,13082,-1498,-16179,-3284,-22,-19,0
1,264,13087,-1526,-16252,-3276,-25,-5,-2
1,265,13092,-1459,-16245,-3225,-23,6,-2
1,266,13097,-1405,-16197,-3177,-22,15,-1
1,267,13102,-1389,-16124,-3161,-22,22,-1
1,268,13107,-1335,-16068,-3201,-21,22,-4
1,269,13112,-1273,-16083,-3194,-20,16,-4
1,270,13117,-1195,-16087,-3121,-22,11,-3
1,271,13122,-1205,-15967,-3099,-18,-4,0
1,272,13127,-1233,-15852,-3181,-16,-21,0
1,273,13132,-1227,-15852,-3236,-15,-35,-1
1,274,13137,-1262,-15869,-3228,-15,-45,-2
1,275,13142,-1273,-15907,-3210,-14,-56,3
1,276,13147,-1337,-15916,-3247,-14,-65,3
1,277,13152,-1371,-15941,-3367,-14,-67,1
1,278,13157,-1293,-15867,-3400,-12,-59,2
1,279,13162,-1272,-15883,-3330,-10,-46,2
1,280,13167,-1297,-15846,-3218,-9,-41,0
1,281,13172,-1342,-15831,-3172,-8,-48,-2
1,282,13177,-1406,-15822,-3358,-5,-56,-1
1,283,13182,-1432,-15860,-3415,-2,-50,-1
1,284,13187,-1478,-15883,-3415,-5,-36,-4
1,285,13192,-1518,-15914,-3459,-4,-19,-5
1,286,13197,-1482,-15933,-3509,-1,-2,-6
1,287,13202,-1419,-15934,-3507,1,20,-9
1,288,13207,-1394,-15924,-3373,-2,44,-14
1,289,13212,-1434,-15932,-3195,-1,52,-17
1,290,13217,-1455,-15919,-3127,2,41,-12
1,291,13222,-1276,-15959,-3158,3,24,-11
1,292,13227,-1211,-16013,-3150,6,16,-11
1,293,13232,-1134,-16076,-3098,7,12,-12
1,294,13237,-1157,-16121,-3098,7,0,-10
1,295,13242,-1171,-16113,-3219,6,-20,-8
1,296,13247,-1187,-16052,-3219,8,-31,-5
1,297,13252,-1162,-16020,-3255,5,-31,-7
1,298,13257,-1045,-15996,-3291,11,-25,-6
1,299,13262,-1065,-15996,-3331,12,-18,-3
1,300,13267,-1150,-15975,-3318,13,-25,-7
1,301,13272,-1229,-16012,-3241,14,-45,-2
1,302,13277,-1293,-15983,-3286,15,-60,-2
1,303,13282,-1317,-15930,-3477,16,-56,-3
1,304,13287,-1202,-15926,-3495,21,-40,-4
1,305,13292,-1242,-15919,-3358,20,-24,-1
1,306,13297,-1368,-15900,-3238,19,-25,-2
1,307,13302,-1443,-15897,-3191,24,-41,-4
1,308,13307,-1440,-15976,-3320,29,-49,-5
1,309,13312,-1448,-16102,-3329,26,-33,-7
1,310,13317,-1458,-16162,-3111,22,-12,-9
1,311,13322,-1425,-16149,-2995,24,-1,-10
1,312,13327,-1305,-16199,-3107,24,-4,-11
1,313,13332,-1265,-16205,-3275,24,-2,-11
1,314,13337,-1229,-16185,-3206,22,-1,-11
1,315,13342,-1274,-16134,-3015,22,2,-13
1,316,13347,-1215,-16109,-3113,24,-6,-11
1,317,13352,-1201,-16079,-3262,27,-15,-8
1,318,13357,-1138,-16072,-3250,26,-18,-8
1,319,13362,-1170,-16021,-3081,27,-20,-6
1,320,13367,-1241,-15978,-3122,24,-38,-9
1,321,13372,-1253,-16032,-3263,27,-49,-7
1,322,13377,-1223,-16132,-3402,30,-44,-6
1,323,13382,-1245,-16174,-3262,28,-31,-11
1,324,13387,-1291,-16194,-3076,27,-35,-9
1,325,13392,-1375,-16240,-3151,27,-47,-10
1,326,13397,-1435,-16246,-3333,24,-47,-9
1,327,13402,-1451,-16203,-3266,23,-35,-7
1,328,13407,-1503,-16182,-3256,24,-25,-11
1,329,13412,-1569,-16149,-3352,27,-21,-13
1,330,13417,-1558,-16110,-3444,25,-6,-15
1,331,13422,-1523,-16054,-3446,23,15,-18
1,332,13427,-1404,-16021,-3425,27,32,-16
1,333,13432,-1293,-15989,-3288,25,47,-15
1,334,13437,-1219,-15990,-3167,25,46,-19
1,335,13442,-1188,-15970,-3115,26,30,-17
1,336,13447,-1211,-15928,-3082,25,-2,-19
1,337,13452,-1231,-15960,-3145,22,-29,-16
1,338,13457,-1210,-15978,-3199,23,-40,-10
1,339,13462,-1173,-15989,-3285,24,-44,-10
1,340,13467,-1185,-16000,-3325,25,-41,-10
1,341,13472,-1219,-16009,-3364,23,-33,-10
1,342,13477,-1286,-16006,-3323,23,-27,-9
1,343,13482,-1323,-16003,-3274,23,-23,-10
1,344,13487,-1353,-16017,-3262,22,-16,-8
1,345,13492,-1352,-16036,-3226,20,-14,-7
1,346,13497,-1362,-16036,-3198,19,-14,-8
1,347,13502,-1328,-16040,-3201,22,-23,-5
1,348,13507,-1356,-16061,-3319,22,-28,-6
1,349,13512,-1312,-16140,-3433,18,-23,-8
1,350,13517,-1314,-16171,-3328,14,-11,-8
1,351,13522,-1324,-16198,-3180,13,5,-8
1,352,13527,-1291,-16156,-3158,15,7,-7
1,353,13532,-1287,-16118,-3191,14,2,-5
1,354,13537,-1286,-16088,-3048,14,-6,-5
1,355,13542,-1339,-16033,-3103,12,-24,-5
1,356,13547,-1335,-16006,-3248,11,-32,-2
1,357,13552,-1309,-16000,-3322,12,-33,4
1,358,13557,-1347,-15998,-3264,14,-29,1
1,359,13562,-1431,-16030,-3230,14,-27,2
1,360,13567,-1447,-16028,-3250,12,-31,1
1,361,13572,-1417,-16065,-3389,12,-27,-2
1,362,13577,-1381,-16090,-3357,11,-15,0
1,363,13582,-1398,-16048,-3229,7,-4,0
1,364,13587,-1386,-16045,-3239,9,-6,0
1,365,13592,-1386,-16055,-3268,8,-11,1
1,366,13597,-1410,-16081,-3208,5,-12,3
1,367,13602,-1454,-16099,-3185,5,-10,2
1,368,13607,-1453,-16080,-3202,6,-8,1
1,369,13612,-1334,-16044,-3188,7,-3,4
1,370,13617,-1241,-16068,-3252,7,3,5
1,371,13622,-1154,-16075,-3195,5,8,7
1,372,13627,-1193,-16038,-3041,6,1,6
1,373,13632,-1249,-16061,-2985,4,-23,6
1,374,13637,-1261,-16104,-3064,2,-45,9
1,375,13642,-1259,-16092,-3210,2,-46,11
1,376,13647,-1291,-16062,-3233,2,-34,11
1,377,13652,-1331,-16032,-3208,-1,-23,10
1,378,13657,-1382,-16015,-3190,1,-24,11
1,379,13662,-1398,-16017,-3255,3,-30,11
1,380,13667,-1440,-16082,-3270,2,-28,11
1,381,13672,-1532,-16028,-3260,1,-19,9
1,382,13677,-1528,-15984,-3217,0,-15,11
1,383,13682,-1445,-16033,-3288,0,-10,12
1,384,13687,-1410,-16017,-3318,0,-2,11
1,385,13692,-1380,-16032,-3226,-1,5,8
1,386,13697,-1403,-16041,-3065,0,0,9
1,387,13702,-1386,-16039,-3053,2,-11,9
1,388,13707,-1320,-16061,-3118,2,-15,11
1,389,13712,-1238,-16083,-3132,1,-21,15
1,390,13717,-1262,-16060,-3020,1,-25,16
1,391,13722,-1260,-16065,-2984,-1,-41,16
1,392,13727,-1208,-16116,-3126,-1,-57,18
1,393,13732,-1259,-16145,-3201,-2,-55,18
1,394,13737,-1361,-16169,-3157,0,-44,18
1,395,13742,-1384,-16154,-3149,-1,-31,20
1,396,13747,-1368,-16170,-3216,-1,-23,22
1,397,13752,-1333,-16157,-3219,3,-23,24
1,398,13757,-1299,-16087,-3184,6,-17,18
1,399,13762,-1311,-16104,-3189,2,-14,17
1,400,13767,-1439,-16044,-3262,5,-7,20
1,401,13772,-1439,-15987,-3235,6,-7,18
1,402,13777,-1429,-16052,-3200,10,-6,20
1,403,13782,-1420,-16075,-3155,11,2,21
1,404,13787,-1477,-16089,-3069,12,4,19
1,405,13792,-1548,-16071,-3018,13,-1,18
1,406,13797,-1572,-16081,-3059,12,0,21
1,407,13802,-1601,-16160,-3086,15,7,21
1,408,13807,-1581,-16186,-2987,14,20,21
1,409,13812,-1560,-16202,-2919,13,31,23
1,410,13817,-1494,-16205,-2838,14,27,26
1,411,13822,-1412,-16223,-2862,12,18,28
1,412,13827,-1416,-16197,-2909,14,10,31
1,413,13832,-1461,-16174,-2958,15,2,33
1,414,13837,-1511,-16150,-2980,16,-8,34
1,415,13842,-1511,-16017,-3079,17,-12,38
1,416,13847,-1523,-15961,-3205,19,-10,42
1,417,13852,-1496,-15943,-3269,21,-2,45
1,418,13857,-1529,-15863,-3276,21,4,48
1,419,13862,-1560,-15833,-3243,23,4,51
1,420,13867,-1542,-15812,-3252,25,-2,54
1,421,13872,-1482,-15786,-3297,30,3,59
1,422,13877,-1520,-15812,-3266,30,13,63
1,423,13882,-1633,-15793,-3148,30,19,71
1,424,13887,-1693,-15793,-3148,32,17,79
1,425,13892,-1656,-15819,-3062,32,11,85
1,426,13897,-1654,-15773,-2912,36,9,93
1,427,13902,-1807,-15708,-2811,39,1,99
1,428,13907,-2046,-15660,-2799,39,-8,106
1,429,13912,-2187,-15740,-2844,43,-26,121
1,430,13917,-2137,-15846,-2930,46,-36,138
1,431,13922,-1962,-15931,-2870,48,-33,149
1,432,13927,-1909,-16070,-2851,50,-26,160
1,433,13932,-2025,-16211,-2956,51,-19,166
1,434,13937,-2198,-16253,-2941,52,-15,176
1,435,13942,-2253,-16245,-2930,56,-12,192
1,436,13947,-2305,-16256,-3088,58,5,203
1,437,13952,-2331,-16251,-3303,60,37,215
1,438,13957,-2363,-16157,-3313,65,73,226
1,439,13962,-2483,-16082,-3239,68,102,237
1,440,13967,-2545,-16002,-3231,75,128,252
1,441,13972,-2587,-15969,-3301,78,156,265
1,442,13977,-2730,-15997,-3304,84,198,281
1,443,13982,-2804,-16025,-3146,87,245,299
1,444,13987,-2717,-15961,-2835,88,284,317
1,445,13992,-2665,-15894,-2669,91,304,333
1,446,13997,-2793,-15930,-2744,100,310,352
1,447,14002,-2939,-15980,-2930,104,308,372
1,448,14007,-2730,-15930,-2804,107,304,397
1,449,14012,-2565,-15823,-2291,110,287,418
1,450,14017,-2661,-15698,-1952,115,249,442
1,451,14022,-2700,-15719,-2479,126,192,470
1,452,14027,-2668,-15777,-2944,131,168,494
1,453,14032,-2754,-15742,-2706,133,154,520
1,454,14037,-2987,-15799,-2179,136,130,545
1,455,14042,-3159,-16023,-2345,140,82,573
1,456,14047,-3285,-16165,-2768,141,68,595
1,457,14052,-3477,-16136,-2864,143,100,618
1,458,14057,-3650,-16018,-2794,144,152,639
1,459,14062,-3576,-15938,-2793,149,208,661
1,460,14067,-3386,-15877,-2900,152,255,682
1,461,14072,-3385,-15807,-2935,158,296,704
1,462,14077,-3460,-15764,-2669,156,320,725
1,463,14082,-3570,-15659,-2484,160,316,749
1,464,14087,-3550,-15633,-2671,165,291,778
1,465,14092,-3453,-15620,-2859,168,284,806
1,466,14097,-3449,-15606,-2767,171,294,832
1,467,14102,-3457,-15613,-2506,175,286,858
1,468,14107,-3598,-15694,-2453,178,247,887
1,469,14112,-3693,-15861,-2510,180,209,913
1,470,14117,-3907,-15979,-2383,179,173,938
1,471,14122,-4227,-15950,-2273,178,143,959
1,472,14127,-4500,-15857,-2449,181,127,982
1,473,14132,-4439,-15945,-3142,179,200,1020
1,474,14137,-4534,-15981,-2892,179,280,1035
1,475,14142,-4692,-15897,-2519,178,330,1049
1,476,14147,-4835,-15913,-2454,179,343,1064
1,477,14152,-4850,-16001,-2642,178,349,1084
1,478,14157,-4749,-16113,-2591,174,367,1106
1,479,14162,-4880,-16059,-2388,168,374,1121
1,480,14167,-5201,-15963,-2383,165,373,1134
1,481,14172,-5211,-15824,-2680,167,368,1156
1,482,14177,-4855,-15708,-2899,167,403,1176
1,483,14182,-4635,-15610,-2982,166,447,1191
1,484,14187,-4656,-15460,-2882,169,469,1203
1,485,14192,-4618,-15416,-2606,170,454,1216
1,486,14197,-4510,-15607,-2386,174,398,1236
1,487,14202,-4385,-15791,-2203,174,316,1256
1,488,14207,-4592,-15943,-1940,171,226,1273
1,489,14212,-5025,-16051,-1864,169,139,1284
1,490,14217,-5468,-16051,-2147,170,63,1296
1,491,14222,-5824,-16010,-2461,166,30,1303
1,492,14227,-5789,-15893,-2891,165,66,1311
1,493,14232,-5698,-15895,-3178,168,152,1314
1,494,14237,-5751,-15829,-3001,165,250,1310
1,495,14242,-6011,-15590,-2812,160,310,1304
1,496,14247,-6187,-15331,-2894,164,330,1300
1,497,14252,-6058,-15183,-3095,169,353,1301
1,498,14257,-5882,-15372,-2806,165,395,1299
1,499,14262,-5759,-15554,-2409,162,397,1297
1,500,14267,-5641,-15680,-2226,167,371,1293
1,501,14272,-5677,-15624,-2365,171,332,1290
1,502,14277,-5581,-15517,-2550,172,301,1288
1,503,14282,-5480,-15500,-2678,173,263,1290
1,504,14287,-5269,-15605,-2612,175,232,1287
1,505,14292,-5277,-15759,-2537,171,198,1276
1,506,14297,-5631,-15733,-2357,168,160,1257
1,507,14302,-6054,-15471,-2403,171,114,1240
1,508,14307,-6235,-15195,-2887,178,92,1228
1,509,14312,-6149,-14987,-3244,182,107,1210
1,510,14317,-6086,-14892,-3073,185,150,1189
1,511,14322,-6157,-14888,-2756,189,170,1164
1,512,14327,-6357,-14976,-2638,198,141,1138
1,513,14332,-6536,-15069,-2805,202,96,1110
1,514,14337,-6581,-15010,-2768,204,80,1083
1,515,14342,-6477,-15030,-2663,206,94,1056
1,516,14347,-6293,-15007,-2554,207,121,1026
1,517,14352,-6136,-15070,-2552,211,136,997
1,518,14357,-6159,-15074,-2510,212,138,961
1,519,14362,-6237,-14993,-2470,214,122,922
1,520,14367,-6209,-14878,-2417,216,119,888
1,521,14372,-6026,-14727,-2454,217,137,852
1,522,14377,-5777,-14712,-2378,222,160,821
1,523,14382,-5637,-14717,-2153,219,159,779
1,524,14387,-5820,-14716,-1927,218,106,737
1,525,14392,-6065,-14556,-1865,224,16,695
1,526,14397,-6071,-14394,-2224,230,-47,657
1,527,14402,-5834,-14419,-2596,229,-45,618
1,528,14407,-5590,-14486,-2541,231,2,570
1,529,14412,-5615,-14542,-2135,230,18,522
1,530,14417,-5664,-14573,-1940,230,-38,471
1,531,14422,-5761,-14643,-2129,234,-120,421
1,532,14427,-5730,-14793,-2464,237,-159,375
1,533,14432,-5704,-14800,-2473,232,-140,330
1,534,14437,-5733,-14758,-2177,227,-104,279
1,535,14442,-5687,-14620,-2254,226,-91,225
1,536,14447,-5608,-14548,-2837,231,-81,172
1,537,14452,-5565,-14503,-3104,233,-45,114
1,538,14457,-5526,-14357,-2842,225,16,55
1,539,14462,-5536,-14334,-2397,225,60,2
1,540,14467,-5374,-14330,-2431,230,60,-51
1,541,14472,-5087,-14475,-2573,226,51,-106
1,542,14477,-5006,-14584,-2384,218,39,-160
1,543,14482,-5106,-14480,-1723,212,11,-222
1,544,14487,-5187,-14476,-1743,211,-71,-276
1,545,14492,-5037,-14663,-2479,206,-140,-327
1,546,14497,-4881,-14748,-2813,199,-139,-386
1,547,14502,-5133,-14704,-1766,191,-180,-499
1,548,14507,-4895,-14783,-2157,188,-237,-557
1,549,14512,-4490,-15161,-2713,183,-245,-613
1,550,14517,-4086,-15473,-2410,173,-200,-671
1,551,14522,-4451,-15748,-1282,159,-170,-732
1,552,14527,-4647,-16098,-1085,155,-248,-790
1,553,14532,-4978,-16295,-2252,139,-374,-836
1,554,14537,-4934,-16140,-2477,123,-423,-894
1,555,14542,-5219,-16139,-2220,102,-414,-958
1,556,14547,-5595,-16117,-2331,85,-350,-1032
1,557,14552,-6092,-16277,-2945,67,-238,-1108
1,558,14557,-6132,-16310,-3219,47,-82,-1186
1,559,14562,-5574,-16323,-3013,24,66,-1252
1,560,14567,-4686,-16380,-2153,5,175,-1317
1,561,14572,-4353,-16221,-1379,-14,182,-1384
1,562,14577,-4528,-16147,-1495,-23,89,-1448
1,563,14582,-5048,-16064,-2306,-40,-39,-1506
1,564,14587,-5167,-15902,-2739,-59,-126,-1562
1,565,14592,-4955,-15796,-2987,-83,-162,-1615
1,566,14597,-4313,-15855,-3509,-97,-139,-1669
1,567,14602,-3648,-16101,-4207,-114,-36,-1728
1,568,14607,-3085,-16370,-4127,-132,107,-1793
1,569,14612,-3013,-16478,-3186,-155,180,-1854
1,570,14617,-3327,-16470,-2457,-170,146,-1916
1,571,14622,-3438,-16502,-2737,-185,68,-1965
1,572,14627,-3215,-16678,-3288,-202,32,-2010
1,573,14632,-2967,-16895,-3384,-228,41,-2058
1,574,14637,-3023,-16840,-3028,-257,59,-2113
1,575,14642,-3066,-16689,-3207,-275,64,-2162
1,576,14647,-2564,-16617,-4061,-294,107,-2207
1,577,14652,-1874,-16615,-4073,-315,235,-2246
1,578,14657,-1745,-16663,-2966,-338,370,-2293
1,579,14662,-1923,-16518,-2079,-352,384,-2337
1,580,14667,-2002,-16645,-2123,-355,262,-2366
1,581,14672,-1900,-16679,-3218,-383,115,-2399
1,582,14677,-1985,-16864,-3043,-403,56,-2430
1,583,14682,-2149,-16812,-3214,-419,23,-2451
1,584,14687,-1233,-16765,-3710,-434,27,-2464
1,585,14692,-658,-16816,-3748,-451,50,-2494
1,586,14697,-1047,-16780,-2626,-460,37,-2532
1,587,14702,-1956,-16743,-2188,-462,-115,-2555
1,588,14707,-2641,-17085,-2698,-470,-289,-2569
1,589,14712,-3101,-17704,-3708,-491,-367,-2580
1,590,14717,-3084,-18230,-3645,-516,-291,-2584
1,591,14722,-2778,-18748,-3595,-542,-154,-2590
1,592,14727,-1878,-19088,-3304,-560,-9,-2596
1,593,14732,-1087,-19346,-2867,-572,91,-2606
1,594,14737,-1216,-19427,-2167,-576,126,-2618
1,595,14742,-1815,-19611,-1972,-581,60,-2614
1,596,14747,-2019,-19282,-2401,-583,-37,-2594
1,597,14752,-1480,-19175,-3144,-589,-97,-2567
1,598,14757,-4005,-14245,-1912,-603,-113,-2544
1,599,14762,2289,-5424,-6159,-431,344,-2708
1,600,14767,-18225,4641,-5479,-801,-377,-2846
1,601,14772,8701,-17884,-465,-575,-950,-1141
1,602,14777,13246,-13282,7892,-771,1988,-1287
1,603,14782,22375,-24872,3219,-446,2346,-1832
1,604,14787,-12743,-17847,12475,-367,1434,-2417
1,605,14792,-25242,-14970,-13297,-418,-3132,-2039
1,606,14797,-16015,-16337,-10378,-565,-4411,-1362
1,607,14802,10099,-19080,-13351,-749,-3664,-1249
1,608,14807,17973,-19483,-1214,-741,-82,-1641
1,609,14812,2666,-17975,2748,-631,1479,-1900
1,610,14817,-13371,-16655,-9001,-580,989,-1818
1,611,14822,-13154,-15563,-5311,-581,850,-1523
1,612,14827,1234,-15408,1375,-628,119,-1273
1,613,14832,10777,-16798,4471,-613,-438,-1216
1,614,14837,6639,-16467,1340,-546,-364,-1404
1,615,14842,-4654,-15388,-6767,-505,-260,-1448
1,616,14847,-9143,-14747,-9865,-531,-292,-1238
1,617,14852,-3241,-14746,-4888,-601,-224,-988
1,618,14857,5291,-15051,1079,-626,-46,-901
1,619,14862,6583,-15187,1720,-552,104,-950
1,620,14867,-5361,-14530,-6941,-450,-320,-922
1,621,14872,-4560,-14168,-5567,-491,-523,-731
1,622,14877,959,-14081,-1633,-528,-396,-591
1,623,14882,4401,-14560,-515,-504,-108,-568
1,624,14887,2098,-14697,-2382,-460,59,-589
1,625,14892,-2603,-14288,-4287,-425,-65,-551
1,626,14897,-4353,-13908,-4225,-424,-350,-434
1,627,14902,-1467,-13801,-3132,-433,-472,-305
1,628,14907,2195,-14028,-2783,-425,-289,-237
1,629,14912,2198,-14174,-3115,-396,36,-233
1,630,14917,-850,-14173,-4284,-367,140,-216
1,631,14922,-3061,-14019,-3889,-357,6,-150
1,632,14927,-2025,-14073,-3525,-361,-233,-48
1,633,14932,741,-14165,-3037,-353,-253,18
1,634,14937,2117,-14323,-3416,-332,-78,49
1,635,14942,962,-14477,-3557,-305,108,67
1,636,14947,-884,-14517,-3524,-289,82,104
1,637,14952,-1083,-14484,-3387,-281,-121,170
1,638,14957,404,-14497,-3476,-272,-288,234
1,639,14962,1671,-14604,-3681,-260,-268,275
1,640,14967,1127,-14729,-3910,-236,-139,293
1,641,14972,-506,-14919,-4098,-219,-75,315
1,642,14977,-915,-15027,-4396,-210,-126,360
1,643,14982,179,-15117,-4311,-206,-160,409
1,644,14987,1453,-15261,-4143,-195,-74,428
1,645,14992,1630,-15333,-4148,-178,105,429
1,646,14997,1079,-15357,-4189,-164,233,437
1,647,15002,808,-15336,-3931,-157,241,463
1,648,15007,1434,-15352,-3615,-155,161,488
1,649,15012,2186,-15385,-3262,-150,76,507
1,650,15017,2420,-15399,-3505,-138,35,519
1,651,15022,2159,-15274,-3990,-124,41,526
1,652,15027,1826,-15208,-4335,-115,47,540
1,653,15032,1757,-15214,-4265,-108,19,554
1,654,15037,1997,-15265,-4057,-101,-38,563
1,655,15042,2145,-15288,-4094,-87,-94,565
1,656,15047,1943,-15246,-4519,-76,-113,559
1,657,15052,1486,-15282,-4873,-65,-103,556
1,658,15057,1028,-15352,-5118,-59,-94,554
1,659,15062,1022,-15434,-5220,-51,-91,548
1,660,15067,1324,-15543,-5287,-42,-74,540
1,661,15072,1584,-15680,-5364,-33,-15,525
1,662,15077,1627,-15911,-5329,-29,68,503
1,663,15082,1351,-16011,-5011,-25,135,478
1,664,15087,1059,-16013,-4729,-20,153,458
1,665,15092,1285,-15986,-4769,-18,142,443
1,666,15097,1883,-15966,-4961,-15,152,429
1,667,15102,2250,-15822,-4773,-10,202,410
1,668,15107,2403,-15698,-4583,-5,240,394
1,669,15112,2462,-15570,-4497,3,231,375
1,670,15117,2401,-15565,-4440,9,172,360
1,671,15122,2446,-15615,-4488,19,94,351
1,672,15127,2511,-15679,-4619,23,42,339
1,673,15132,2537,-15798,-4817,26,28,323
1,674,15137,2475,-15871,-4855,27,34,305
1,675,15142,2385,-15831,-4873,34,33,285
1,676,15147,2225,-15808,-4985,36,28,266
1,677,15152,2235,-15854,-5099,38,32,248
1,678,15157,2339,-15887,-5066,40,50,228
1,679,15162,2384,-15935,-4978,42,70,205
1,680,15167,2372,-15873,-5012,46,87,187
1,681,15172,2344,-15684,-4977,49,103,167
1,682,15177,2330,-15574,-4896,49,114,151
1,683,15182,2369,-15542,-4754,55,114,139
1,684,15187,2417,-15550,-4597,58,95,125
1,685,15192,2208,-15541,-4535,62,65,106
1,686,15197,2006,-15451,-4735,65,25,87
1,687,15202,2079,-15336,-5123,69,8,75
1,688,15207,2263,-15292,-5315,75,32,59
1,689,15212,2241,-15311,-4990,72,73,39
1,690,15217,1956,-15339,-4545,75,73,19
1,691,15222,1842,-15373,-4619,82,26,9
1,692,15227,1979,-15457,-4904,87,-10,1
1,693,15232,2140,-15530,-4923,89,-5,-11
1,694,15237,1891,-15484,-4530,91,-3,-42
1,695,15242,1782,-15550,-4835,98,-33,-51
1,696,15247,1688,-15595,-5083,97,-41,-67
1,697,15252,1645,-15620,-5016,99,-19,-76
1,698,15257,1573,-15589,-4810,101,16,-91
1,699,15262,1512,-15609,-4882,105,48,-104
1,700,15267,1538,-15667,-4965,108,73,-111
1,701,15272,1520,-15650,-4677,108,82,-123
1,702,15277,1541,-15626,-4338,111,64,-132
1,703,15282,1540,-15583,-4399,114,30,-139
1,704,15287,1612,-15724,-4705,122,15,-142
1,705,15292,1605,-15814,-4793,125,29,-151
1,706,15297,1460,-15829,-4539,120,46,-155
1,707,15302,1309,-15819,-4307,123,40,-161
1,708,15307,1420,-15819,-4464,124,23,-167
1,709,15312,1610,-15850,-4725,127,35,-170
1,710,15317,1695,-15863,-4639,126,67,-169
1,711,15322,1643,-15809,-4287,127,78,-171
1,712,15327,1582,-15818,-4111,133,48,-173
1,713,15332,1673,-15886,-4260,135,-1,-173
1,714,15337,1638,-15867,-4439,135,-26,-172
1,715,15342,1597,-15807,-4498,136,-20,-171
1,716,15347,1592,-15777,-4445,138,-9,-170
1,717,15352,1576,-15768,-4390,139,-8,-168
1,718,15357,1511,-15770,-4421,140,-28,-166
1,719,15362,1522,-15755,-4569,145,-46,-163
1,720,15367,1522,-15697,-4701,145,-39,-162
1,721,15372,1523,-15640,-4569,143,-12,-161
1,722,15377,1530,-15599,-4528,146,14,-157
1,723,15382,1487,-15600,-4506,147,27,-153
1,724,15387,1499,-15587,-4425,146,23,-150
1,725,15392,1446,-15514,-4380,146,11,-148
1,726,15397,1372,-15459,-4374,148,4,-145
1,727,15402,1399,-15498,-4530,150,13,-138
1,728,15407,1464,-15555,-4536,150,37,-134
1,729,15412,1553,-15539,-4267,145,58,-131
1,730,15417,1587,-15523,-4108,145,58,-125
1,731,15422,1637,-15588,-4136,146,46,-119
1,732,15427,1621,-15603,-4181,146,27,-114
1,733,15432,1625,-15600,-4061,143,16,-110
1,734,15437,1572,-15563,-3919,141,-8,-101
1,735,15442,1588,-15631,-4029,144,-44,-92
1,736,15447,1658,-15741,-4235,144,-76,-86
1,737,15452,1564,-15739,-4288,144,-89,-83
1,738,15457,1487,-15862,-4245,143,-91,-76
1,739,15462,1518,-15973,-4225,138,-88,-74
1,740,15467,1460,-16022,-4321,136,-85,-69
1,741,15472,1367,-16036,-4381,132,-71,-67
1,742,15477,1388,-15943,-4409,129,-56,-65
1,743,15482,1471,-15883,-4441,126,-28,-63
1,744,15487,1630,-15908,-4471,124,6,-59
1,745,15492,1752,-15937,-4363,119,37,-59
1,746,15497,1760,-15971,-4084,118,50,-53
1,747,15502,1703,-15926,-3921,118,25,-45
1,748,15507,1765,-15954,-4070,117,-13,-41
1,749,15512,1884,-16006,-4226,115,-30,-35
1,750,15517,1963,-16007,-4157,109,-28,-27
1,751,15522,1909,-15974,-4011,104,-33,-23
1,752,15527,1852,-15862,-4113,102,-53,-19
1,753,15532,1869,-15795,-4352,97,-68,-11
1,754,15537,1844,-15758,-4340,94,-63,-3
1,755,15542,1909,-15790,-4216,90,-54,-1
1,756,15547,1938,-15781,-4061,89,-59,1
1,757,15552,1825,-15805,-4030,85,-74,4
1,758,15557,1670,-15828,-4028,79,-102,7
1,759,15562,1566,-15830,-4096,75,-118,12
1,760,15567,1674,-15779,-4243,73,-109,18
1,761,15572,1753,-15759,-4269,68,-83,21
1,762,15577,1748,-15788,-4227,62,-64,23
1,763,15582,1640,-15853,-4228,60,-63,26
1,764,15587,1576,-15902,-4279,60,-78,30
1,765,15592,1537,-15873,-4253,53,-88,28
1,766,15597,1504,-15870,-4223,51,-86,32
1,767,15602,1539,-16036,-4143,43,-69,36
1,768,15607,1532,-15984,-4079,38,-73,38
1,769,15612,1557,-15978,-3952,33,-93,40
1,770,15617,1521,-16010,-3964,32,-106,43
1,771,15622,1639,-16053,-4088,28,-110,44
1,772,15627,1740,-15986,-4099,22,-96,47
1,773,15632,1767,-15966,-4024,16,-86,47
1,774,15637,1712,-15941,-3953,14,-92,51
1,775,15642,1709,-15916,-4103,15,-112,56
1,776,15647,1723,-15885,-4204,8,-118,58
1,777,15652,1725,-15852,-4248,5,-103,60
1,778,15657,1692,-15863,-4304,3,-77,63
1,779,15662,1691,-15836,-4398,2,-54,64
1,780,15667,1672,-15891,-4381,0,-45,59
1,781,15672,1666,-15887,-4278,-4,-42,59
1,782,15677,1628,-15911,-4188,-7,-45,62
1,783,15682,1577,-15943,-4169,-9,-47,60
1,784,15687,1587,-15963,-4200,-11,-44,60
1,785,15692,1566,-15970,-4145,-12,-38,62
1,786,15697,1631,-15916,-3958,-17,-38,65
1,787,15702,1664,-15924,-4050,-15,-49,66
1,788,15707,1708,-15947,-4212,-19,-57,66
1,789,15712,1604,-15945,-4204,-21,-53,64
1,790,15717,1554,-15971,-4018,-26,-52,63
1,791,15722,1546,-16005,-4058,-28,-58,63
1,792,15727,1579,-15963,-4251,-29,-56,62
1,793,15732,1615,-15932,-4301,-32,-33,62
1,794,15737,1581,-15843,-4236,-33,-12,63
1,795,15742,1553,-15780,-4131,-36,-8,62
1,796,15747,1591,-15789,-4215,-33,-19,61
1,797,15752,1675,-15819,-4281,-31,-25,63
1,798,15757,1682,-15858,-4172,-30,-24,61
1,799,15762,1624,-15940,-4098,-35,-26,59
1,800,15767,1696,-16001,-4107,-39,-33,57
1,801,15772,1689,-15999,-4080,-45,-36,56
1,802,15777,1662,-15900,-4220,-44,-31,57
1,803,15782,1666,-15861,-4277,-42,-17,54
1,804,15787,1634,-15813,-4096,-44,-2,56
1,805,15792,1585,-15827,-3940,-40,-7,54
1,806,15797,1665,-15801,-3977,-42,-26,53
1,807,15802,1649,-15792,-4175,-44,-38,55
1,808,15807,1598,-15795,-4205,-45,-44,56
1,809,15812,1526,-15801,-4072,-45,-44,52
1,810,15817,1513,-15813,-4074,-45,-44,51
1,811,15822,1553,-15770,-4207,-45,-40,53
1,812,15827,1598,-15773,-4244,-46,-22,46
1,813,15832,1596,-15794,-4099,-46,-6,43
1,814,15837,1584,-15831,-3985,-44,-6,44
1,815,15842,1621,-15901,-4016,-42,-19,43
1,816,15847,1702,-15932,-4102,-45,-31,43
1,817,15852,1671,-15947,-4000,-45,-38,45
1,818,15857,1651,-15929,-3895,-43,-47,45
1,819,15862,1629,-15898,-3969,-43,-60,43
1,820,15867,1536,-15914,-4122,-40,-68,45
1,821,15872,1466,-15998,-4174,-40,-73,42
1,822,15877,1376,-16065,-4150,-40,-70,36
1,823,15882,1291,-16025,-4115,-38,-59,32
1,824,15887,1370,-15981,-4144,-36,-41,33
1,825,15892,1473,-15941,-4170,-35,-16,32
1,826,15897,1473,-15903,-4070,-36,7,27
1,827,15902,1462,-15884,-3903,-35,9,25
1,828,15907,1505,-15895,-3925,-30,-15,26
1,829,15912,1528,-15874,-4015,-28,-41,28
1,830,15917,1578,-15795,-4075,-29,-47,24
1,831,15922,1524,-15753,-4131,-27,-45,22
1,832,15927,1482,-15718,-4188,-25,-42,23
1,833,15932,1519,-15792,-4250,-22,-36,21
1,834,15937,1471,-15826,-4233,-21,-28,19
1,835,15942,1365,-15858,-4151,-20,-17,14
1,836,15947,1386,-15859,-4159,-16,-5,13
1,837,15952,1456,-15825,-4198,-13,10,13
1,838,15957,1569,-15811,-4137,-15,24,10
1,839,15962,1653,-15814,-3961,-13,28,11
1,840,15967,1616,-15864,-3828,-9,7,12
1,841,15972,1486,-15822,-4006,-6,-50,13
1,842,15977,1479,-15841,-4242,-7,-50,10
1,843,15982,1504,-15840,-4214,-7,-35,14
1,844,15987,1457,-15830,-4102,-2,-25,10
1,845,15992,1369,-15794,-4125,2,-28,9
1,846,15997,1366,-15877,-4286,3,-31,7
1,847,16002,1313,-15885,-4256,5,-25,4
1,848,16007,1223,-15853,-4172,4,-18,1
1,849,16012,1187,-15842,-4115,7,-21,2
1,850,16017,1266,-15843,-4247,9,-25,0
1,851,16022,1316,-15851,-4215,12,-21,-3
1,852,16027,1285,-15789,-4156,16,-20,-4
1,853,16032,1200,-15762,-4184,16,-23,-2
1,854,16037,1241,-15803,-4250,19,-21,-8
1,855,16042,1321,-15775,-4229,21,-14,-8
1,856,16047,1339,-15767,-4235,22,-5,-10
1,857,16052,1422,-15788,-4223,21,8,-11
1,858,16057,1471,-15836,-4149,23,12,-10
1,859,16062,1464,-15808,-4092,21,6,-12
1,860,16067,1446,-15781,-4039,22,-4,-13
1,861,16072,1508,-15798,-4105,27,-12,-14
1,862,16077,1558,-15778,-4242,27,-4,-13
1,863,16082,1484,-15762,-4123,28,10,-13
1,864,16087,1436,-15759,-3996,28,9,-10
1,865,16092,1432,-15768,-4040,28,-2,-9
1,866,16097,1515,-15796,-4116,27,-6,-11
1,867,16102,1538,-15880,-4106,29,-1,-10
1,868,16107,1427,-15852,-4041,30,4,-12
1,869,16112,1351,-15775,-4075,29,4,-12
1,870,16117,1417,-15743,-4198,31,-8,-10
1,871,16122,1460,-15738,-4157,33,-18,-10
1,872,16127,1400,-15748,-4115,31,-20,-12
1,873,16132,1275,-15755,-4120,33,-28,-11
1,874,16137,1232,-15665,-4265,36,-27,-9
1,875,16142,1326,-15617,-4345,36,-14,-9
1,876,16147,1417,-15627,-4247,36,1,-12
1,877,16152,1452,-15732,-4119,38,10,-10
1,878,16157,1471,-15709,-4131,39,3,-9
1,879,16162,1503,-15732,-4244,41,-4,-9
1,880,16167,1509,-15765,-4173,39,-12,-8
1,881,16172,1452,-15752,-4037,39,-24,-7
1,882,16177,1413,-15752,-4132,41,-32,-5
1,883,16182,1478,-15762,-4315,39,-19,-5
1,884,16187,1446,-15780,-4379,37,12,-9
1,885,16192,1371,-15780,-4148,38,40,-8
1,886,16197,1291,-15740,-3899,39,39,-8
1,887,16202,1309,-15747,-4022,40,20,-5
1,888,16207,1371,-15786,-4191,42,16,-2
1,889,16212,1413,-15808,-4115,43,25,-1
1,890,16217,1394,-15819,-3892,39,28,-5
1,891,16222,1389,-15818,-3903,40,10,-1
1,892,16227,1435,-15843,-3999,41,-10,-1
1,893,16232,1438,-15810,-4018,41,-15,0
1,894,16237,1458,-15818,-3916,44,-13,4
1,895,16242,1441,-15844,-3929,44,-14,9
1,896,16247,1489,-15898,-4045,42,-24,13
1,897,16252,1533,-15923,-4025,42,-37,12
1,898,16257,1507,-15941,-4043,44,-52,15
1,899,16262,1396,-15984,-4055,43,-65,15
1,900,16267,1324,-15966,-4108,43,-62,16
1,901,16272,1277,-15949,-4183,45,-53,19
1,902,16277,1277,-15954,-4223,44,-30,21
1,903,16282,1278,-15995,-4200,43,-5,21
1,904,16287,1244,-15986,-4031,43,8,20
1,905,16292,1228,-15872,-3958,43,2,17
1,906,16297,1211,-15868,-4029,44,-10,21
1,907,16302,1230,-15887,-4093,46,-10,21
1,908,16307,1189,-15874,-3983,44,-1,25
1,909,16312,1211,-15860,-3957,43,6,23
1,910,16317,1337,-15860,-3898,43,6,27
1,911,16322,1361,-15860,-3896,46,1,31
1,912,16327,1309,-15831,-3938,46,-3,28
1,913,16332,1328,-15784,-3968,46,-5,30
1,914,16337,1447,-15788,-3967,45,2,35
1,915,16342,1510,-15823,-3994,45,2,35
1,916,16347,1555,-15794,-3968,47,0,37
1,917,16352,1542,-15816,-3984,46,-10,43
1,918,16357,1463,-15806,-3941,46,-27,46
1,919,16362,1371,-15812,-3951,46,-37,48
1,920,16367,1390,-15904,-4048,47,-39,49
1,921,16372,1330,-15962,-4052,45,-34,49
1,922,16377,1303,-15921,-3945,46,-27,51
1,923,16382,1278,-15910,-3855,47,-26,52
1,924,16387,1236,-15978,-3896,47,-32,51
1,925,16392,1217,-16003,-3923,46,-31,53
1,926,16397,1190,-16095,-3875,43,-29,54
1,927,16402,1101,-16055,-3855,43,-27,53
1,928,16407,1104,-16034,-3913,44,-26,53
1,929,16412,1097,-16019,-4005,40,-19,54
1,930,16417,1196,-16022,-4074,40,-1,52
1,931,16422,1265,-16007,-3998,45,18,54
1,932,16427,1212,-16006,-3887,43,20,52
1,933,16432,1235,-16009,-3835,40,13,53
1,934,16437,1279,-16060,-3858,40,4,54
1,935,16442,1296,-16031,-3949,38,3,54
1,936,16447,1322,-16040,-3996,35,13,54
1,937,16452,1382,-16002,-3886,33,27,52
1,938,16457,1363,-15983,-3732,33,21,55
1,939,16462,1337,-15972,-3760,33,-2,55
1,940,16467,1306,-15933,-3885,32,-22,53
1,941,16472,1256,-15926,-3972,31,-30,53
1,942,16477,1191,-15884,-4038,30,-23,55
1,943,16482,1208,-15882,-3992,30,-12,57
1,944,16487,1213,-15859,-4039,29,-11,55
1,945,16492,1243,-15823,-4073,28,-12,53
1,946,16497,1219,-15852,-4060,26,-11,55
1,947,16502,1236,-15874,-4076,24,-5,53
1,948,16507,1286,-15889,-4053,25,3,49
1,949,16512,1315,-15931,-3940,23,4,49
1,950,16517,1327,-15942,-3874,21,-2,47
1,951,16522,1290,-15974,-3861,20,-14,48
1,952,16527,1245,-15969,-3986,19,-16,48
1,953,16532,1247,-15979,-4037,20,-7,47
1,954,16537,1254,-16014,-3958,14,11,45
1,955,16542,1327,-16019,-3824,13,16,42
1,956,16547,1345,-16024,-3783,13,12,43
1,957,16552,1385,-16037,-3826,15,4,43
1,958,16557,1368,-16052,-3887,10,-1,41
1,959,16562,1329,-16010,-3919,8,-9,42
1,960,16567,1337,-15958,-3918,5,-12,38
1,961,16572,1316,-15985,-3957,5,-21,37
1,962,16577,1250,-15946,-3989,4,-27,40
1,963,16582,1163,-15921,-4019,3,-30,37
1,964,16587,1159,-15909,-4114,4,-28,34
1,965,16592,1133,-15907,-4225,3,-15,33
1,966,16597,1163,-15927,-4150,0,0,30
1,967,16602,1184,-15920,-3995,0,9,28
1,968,16607,1147,-15923,-3882,1,5,27
1,969,16612,1123,-16017,-3934,-2,-3,22
1,970,16617,1128,-16071,-3927,-2,-11,20
1,971,16622,1109,-16089,-3874,-4,-15,20
1,972,16627,1200,-16060,-3884,-6,-14,20
1,973,16632,1319,-16080,-3959,-5,-9,19
1,974,16637,1354,-16118,-3967,-7,-1,15
1,975,16642,1305,-16104,-3802,-7,-1,9
1,976,16647,1256,-16042,-3766,-8,-15,10
1,977,16652,1278,-16021,-3855,-11,-31,10
1,978,16657,1344,-16047,-4021,-11,-33,10
1,979,16662,1412,-16033,-3931,-11,-25,7
1,980,16667,1364,-15988,-3884,-14,-27,9
1,981,16672,1267,-15872,-3938,-12,-33,4
1,982,16677,1264,-15835,-4037,-10,-39,9
1,983,16682,1280,-15862,-4028,-16,-38,8
1,984,16687,1228,-15847,-3898,-16,-36,4
1,985,16692,1183,-15841,-3832,-12,-41,2
1,986,16697,1080,-15863,-3969,-12,-50,-1
1,987,16702,1072,-15859,-4126,-12,-35,-4
1,988,16707,1089,-15853,-3935,-13,-16,-6
1,989,16712,1096,-15859,-3802,-12,-10,-8
1,990,16717,1071,-15902,-3878,-8,-18,-13
1,991,16722,1051,-15984,-3977,-10,-25,-15
1,992,16727,1092,-15991,-3956,-11,-17,-18
1,993,16732,1114,-15921,-3877,-17,-10,-21
1,994,16737,1121,-15912,-3879,-13,-3,-22
1,995,16742,1200,-15927,-3919,-11,2,-23
1,996,16747,1241,-15892,-3903,-9,7,-25
1,997,16752,1202,-15872,-3796,-10,5,-25
1,998,16757,1186,-15801,-3740,-11,-10,-24
1,999,16762,1233,-15815,-3819,-13,-26,-26
