event_id,seq,ts_ms,ax,ay,az,gx,gy,gz
17,0,1671967,339,-16286,-2366,2,-8,-5
17,1,1671972,328,-16295,-2431,2,-7,-3
17,2,1671977,369,-16283,-2437,-2,2,-3
17,3,1671982,382,-16237,-2398,-3,6,-1
17,4,1671987,402,-16258,-2340,-4,5,-1
17,5,1671992,299,-16336,-2349,1,-9,0
17,6,1671997,289,-16325,-2337,-2,-10,-1
17,7,1672002,278,-16325,-2409,-2,-6,0
17,8,1672007,350,-16305,-2359,-3,-5,-3
17,9,1672012,282,-16365,-2362,-3,-4,-1
17,10,1672017,301,-16358,-2334,-3,-6,-2
17,11,1672022,319,-16341,-2372,-1,-10,-4
17,12,1672027,283,-16306,-2409,-3,-13,-2
17,13,1672032,318,-16284,-2404,-3,-13,-2
17,14,1672037,300,-16318,-2386,-1,-19,-1
17,15,1672042,257,-16246,-2445,-2,-27,-1
17,16,1672047,318,-16220,-2480,-3,-30,-4
17,17,1672052,309,-16242,-2516,1,-27,-3
17,18,1672057,295,-16295,-2562,0,-17,-5
17,19,1672062,305,-16353,-2533,-2,-11,-7
17,20,1672067,340,-16323,-2500,-3,-14,-5
17,21,1672072,377,-16328,-2525,-5,-11,-7
17,22,1672077,361,-16337,-2498,0,-9,-7
17,23,1672082,320,-16341,-2479,-1,-5,-8
17,24,1672087,283,-16310,-2505,1,-3,-8
17,25,1672092,295,-16333,-2486,2,-5,-9
17,26,1672097,325,-16380,-2454,-3,-10,-8
17,27,1672102,292,-16433,-2472,0,-12,-8
17,28,1672107,266,-16440,-2447,3,-13,-9
17,29,1672112,319,-16446,-2474,2,-11,-13
17,30,1672117,295,-16435,-2520,2,-8,-13
17,31,1672122,273,-16466,-2501,2,-2,-11
17,32,1672127,241,-16463,-2511,2,-2,-13
17,33,1672132,250,-16464,-2470,0,-3,-16
17,34,1672137,267,-16435,-2497,1,-3,-18
17,35,1672142,255,-16358,-2504,0,0,-16
17,36,1672147,264,-16368,-2473,3,4,-16
17,37,1672152,283,-16355,-2482,4,-3,-21
17,38,1672157,265,-16392,-2482,-1,-6,-20
17,39,1672162,279,-16351,-2540,-2,-4,-23
17,40,1672167,305,-16260,-2518,0,-3,-23
17,41,1672172,257,-16212,-2525,2,6,-24
17,42,1672177,265,-16234,-2573,0,8,-24
17,43,1672182,245,-16217,-2574,-1,9,-26
17,44,1672187,279,-16169,-2527,-3,11,-28
17,45,1672192,291,-16167,-2517,-3,14,-26
17,46,1672197,296,-16168,-2483,-2,18,-29
17,47,1672202,305,-16130,-2403,-2,19,-30
17,48,1672207,273,-16151,-2413,0,14,-30
17,49,1672212,286,-16099,-2418,-4,9,-32
17,50,1672217,374,-16128,-2419,-4,6,-32
17,51,1672222,433,-16117,-2408,-3,4,-34
17,52,1672227,400,-16146,-2344,-6,2,-33
17,53,1672232,356,-16122,-2378,-4,-2,-35
17,54,1672237,360,-16130,-2401,-6,-2,-37
17,55,1672242,354,-16179,-2367,-8,-3,-35
17,56,1672247,368,-16179,-2339,-7,2,-37
17,57,1672252,379,-16187,-2295,-8,2,-37
17,58,1672257,393,-16159,-2331,-8,-2,-38
17,59,1672262,391,-16119,-2339,-11,-2,-36
17,60,1672267,433,-16105,-2337,-13,-4,-36
17,61,1672272,413,-16127,-2287,-12,-4,-38
17,62,1672277,411,-16141,-2291,-15,-8,-37
17,63,1672282,404,-16050,-2341,-15,-13,-40
17,64,1672287,409,-16065,-2393,-13,-14,-39
17,65,1672292,443,-16077,-2413,-14,-11,-37
17,66,1672297,422,-16066,-2403,-15,-12,-40
17,67,1672302,339,-16086,-2368,-17,-16,-39
17,68,1672307,355,-16113,-2397,-17,-16,-38
17,69,1672312,363,-16105,-2445,-16,-15,-38
17,70,1672317,416,-16114,-2467,-18,-7,-39
17,71,1672322,455,-16139,-2422,-20,1,-38
17,72,1672327,431,-16130,-2314,-20,2,-40
17,73,1672332,430,-16126,-2292,-18,-5,-41
17,74,1672337,434,-16126,-2338,-20,-11,-39
17,75,1672342,442,-16159,-2373,-20,-15,-39
17,76,1672347,428,-16195,-2352,-18,-17,-39
17,77,1672352,426,-16213,-2383,-19,-23,-37
17,78,1672357,474,-16205,-2457,-18,-27,-39
17,79,1672362,436,-16209,-2502,-16,-22,-35
17,80,1672367,356,-16265,-2524,-14,-18,-33
17,81,1672372,342,-16279,-2577,-18,-20,-34
17,82,1672377,332,-16328,-2523,-18,-19,-33
17,83,1672382,311,-16371,-2502,-17,-18,-35
17,84,1672387,299,-16382,-2463,-19,-18,-35
17,85,1672392,404,-16346,-2419,-16,-15,-32
17,86,1672397,436,-16361,-2443,-15,-8,-32
17,87,1672402,449,-16367,-2497,-14,-7,-32
17,88,1672407,398,-16343,-2473,-15,-10,-33
17,89,1672412,420,-16343,-2497,-16,-11,-34
17,90,1672417,485,-16330,-2475,-12,-12,-30
17,91,1672422,568,-16311,-2482,-14,-9,-30
17,92,1672427,530,-16339,-2475,-12,-4,-29
17,93,1672432,460,-16405,-2493,-12,-5,-29
17,94,1672437,397,-16467,-2485,-12,-12,-27
17,95,1672442,422,-16453,-2489,-10,-16,-27
17,96,1672447,446,-16427,-2422,-9,-7,-22
17,97,1672452,473,-16427,-2415,-8,6,-21
17,98,1672457,461,-16412,-2480,-7,9,-23
17,99,1672462,451,-16408,-2499,-6,-1,-20
17,100,1672467,442,-16380,-2451,-5,-10,-17
17,101,1672472,464,-16374,-2393,-6,-18,-20
17,102,1672477,477,-16381,-2365,-7,-15,-18
17,103,1672482,400,-16383,-2296,-4,-18,-16
17,104,1672487,448,-16375,-2396,-1,-23,-14
17,105,1672492,501,-16323,-2469,-3,-32,-13
17,106,1672497,489,-16276,-2500,-2,-36,-15
17,107,1672502,477,-16230,-2458,-1,-38,-12
17,108,1672507,452,-16245,-2412,-2,-38,-7
17,109,1672512,435,-16296,-2421,1,-41,-5
17,110,1672517,434,-16299,-2495,1,-44,-7
17,111,1672522,407,-16274,-2556,1,-44,-7
17,112,1672527,477,-16216,-2634,1,-39,-6
17,113,1672532,586,-16143,-2649,2,-30,-6
17,114,1672537,661,-16102,-2645,4,-18,-4
17,115,1672542,587,-16121,-2633,1,-13,-5
17,116,1672547,510,-16149,-2575,3,-15,-2
17,117,1672552,489,-16166,-2534,7,-22,-1
17,118,1672557,481,-16155,-2507,6,-28,0
17,119,1672562,516,-16161,-2452,9,-31,3
17,120,1672567,531,-16178,-2482,10,-37,3
17,121,1672572,471,-16215,-2510,10,-47,5
17,122,1672577,422,-16196,-2537,14,-55,3
17,123,1672582,369,-16178,-2575,12,-61,4
17,124,1672587,339,-16169,-2578,12,-60,6
17,125,1672592,324,-16199,-2665,14,-56,4
17,126,1672597,307,-16197,-2712,16,-46,4
17,127,1672602,334,-16181,-2696,15,-32,4
17,128,1672607,330,-16137,-2711,14,-24,3
17,129,1672612,351,-16087,-2677,14,-14,5
17,130,1672617,429,-16083,-2620,14,1,2
17,131,1672622,383,-16071,-2603,15,8,2
17,132,1672627,289,-16091,-2529,18,2,2
17,133,1672632,276,-16067,-2529,15,-8,0
17,134,1672637,326,-16030,-2558,18,-14,-1
17,135,1672642,334,-16044,-2625,19,-16,5
17,136,1672647,319,-16069,-2604,19,-11,3
17,137,1672652,280,-16086,-2633,20,-13,-1
17,138,1672657,290,-16069,-2694,19,-16,1
17,139,1672662,323,-16106,-2741,21,-10,0
17,140,1672667,298,-16170,-2645,20,0,-2
17,141,1672672,268,-16243,-2646,19,10,-3
17,142,1672677,197,-16301,-2607,22,12,-2
17,143,1672682,212,-16322,-2600,22,13,-2
17,144,1672687,249,-16309,-2608,21,20,-4
17,145,1672692,189,-16371,-2563,23,27,-5
17,146,1672697,265,-16424,-2539,21,30,-6
17,147,1672702,359,-16408,-2551,21,34,-7
17,148,1672707,466,-16375,-2563,23,38,-8
17,149,1672712,442,-16328,-2534,21,44,-7
17,150,1672717,343,-16303,-2516,20,49,-8
17,151,1672722,271,-16333,-2443,21,43,-9
17,152,1672727,272,-16309,-2424,20,36,-10
17,153,1672732,416,-16369,-2442,18,35,-8
17,154,1672737,447,-16403,-2436,17,32,-11
17,155,1672742,431,-16358,-2446,16,30,-11
17,156,1672747,426,-16315,-2522,17,31,-9
17,157,1672752,493,-16336,-2582,16,39,-10
17,158,1672757,466,-16338,-2442,17,45,-12
17,159,1672762,459,-16311,-2342,16,47,-11
17,160,1672767,471,-16245,-2377,14,45,-12
17,161,1672772,490,-16265,-2389,16,40,-12
17,162,1672777,454,-16262,-2455,15,37,-11
17,163,1672782,409,-16254,-2439,14,28,-10
17,164,1672787,445,-16246,-2440,15,21,-9
17,165,1672792,544,-16220,-2494,14,19,-11
17,166,1672797,588,-16260,-2496,12,24,-8
17,167,1672802,603,-16211,-2444,14,31,-8
17,168,1672807,581,-16209,-2496,15,32,-6
17,169,1672812,550,-16167,-2505,14,26,-5
17,170,1672817,538,-16219,-2511,16,22,-6
17,171,1672822,535,-16254,-2450,14,22,-4
17,172,1672827,587,-16242,-2409,13,17,-3
17,173,1672832,596,-16320,-2469,12,12,-4
17,174,1672837,505,-16352,-2528,14,10,-3
17,175,1672842,470,-16436,-2612,13,15,-1
17,176,1672847,438,-16480,-2576,14,21,0
17,177,1672852,573,-16513,-2481,9,33,-3
17,178,1672857,629,-16513,-2406,9,43,-2
17,179,1672862,597,-16427,-2396,12,47,0
17,180,1672867,559,-16461,-2370,13,46,-4
17,181,1672872,483,-16503,-2341,11,33,0
17,182,1672877,423,-16518,-2253,12,20,4
17,183,1672882,456,-16474,-2240,12,13,3
17,184,1672887,511,-16392,-2278,13,8,1
17,185,1672892,545,-16419,-2376,13,6,5
17,186,1672897,523,-16420,-2455,10,4,3
17,187,1672902,455,-16409,-2463,10,6,1
17,188,1672907,436,-16346,-2413,8,10,1
17,189,1672912,465,-16319,-2349,6,18,2
17,190,1672917,532,-16257,-2285,6,30,0
17,191,1672922,475,-16211,-2307,5,28,-2
17,192,1672927,384,-16266,-2260,6,20,0
17,193,1672932,324,-16251,-2227,5,6,-2
17,194,1672937,313,-16190,-2211,1,-9,-2
17,195,1672942,376,-16179,-2226,3,-17,-1
17,196,1672947,443,-16194,-2283,2,-17,0
17,197,1672952,415,-16196,-2406,3,-18,-2
17,198,1672957,366,-16249,-2499,-1,-23,-5
17,199,1672962,310,-16282,-2566,-1,-22,-5
17,200,1672967,367,-16271,-2622,-4,-10,-5
17,201,1672972,416,-16227,-2521,-7,12,-9
17,202,1672977,485,-16185,-2500,-4,30,-12
17,203,1672982,480,-16176,-2516,-5,37,-12
17,204,1672987,359,-16213,-2518,-4,34,-15
17,205,1672992,313,-16242,-2564,-7,30,-14
17,206,1672997,371,-16239,-2507,-8,29,-16
17,207,1673002,494,-16162,-2408,-7,31,-16
17,208,1673007,584,-16145,-2458,-7,28,-17
17,209,1673012,614,-16141,-2474,-7,28,-18
17,210,1673017,560,-16149,-2606,-6,21,-17
17,211,1673022,524,-16130,-2631,-5,12,-18
17,212,1673027,537,-16143,-2604,-6,11,-17
17,213,1673032,552,-16123,-2652,-6,18,-16
17,214,1673037,587,-16112,-2642,-7,29,-17
17,215,1673042,579,-16121,-2631,-4,39,-18
17,216,1673047,557,-16193,-2651,-6,45,-19
17,217,1673052,533,-16181,-2680,-6,47,-20
17,218,1673057,558,-16171,-2601,-6,52,-20
17,219,1673062,557,-16229,-2525,-8,61,-22
17,220,1673067,558,-16209,-2494,-7,67,-24
17,221,1673072,566,-16183,-2530,-6,66,-25
17,222,1673077,560,-16174,-2516,-5,62,-24
17,223,1673082,564,-16150,-2423,-5,65,-23
17,224,1673087,539,-16172,-2369,-8,62,-22
17,225,1673092,540,-16232,-2384,-9,54,-24
17,226,1673097,663,-16230,-2379,-8,44,-22
17,227,1673102,743,-16218,-2410,-9,42,-23
17,228,1673107,735,-16256,-2360,-8,36,-22
17,229,1673112,597,-16288,-2321,-9,26,-21
17,230,1673117,470,-16350,-2363,-5,12,-17
17,231,1673122,489,-16390,-2448,-7,9,-23
17,232,1673127,568,-16400,-2491,-6,18,-22
17,233,1673132,682,-16392,-2419,-6,27,-22
17,234,1673137,675,-16360,-2396,-12,34,-25
17,235,1673142,610,-16374,-2418,-12,31,-22
17,236,1673147,595,-16378,-2405,-14,24,-21
17,237,1673152,629,-16346,-2383,-15,26,-21
17,238,1673157,676,-16305,-2245,-12,24,-19
17,239,1673162,763,-16278,-2117,-13,16,-17
17,240,1673167,693,-16292,-2164,-13,1,-19
17,241,1673172,656,-16335,-2240,-12,-18,-16
17,242,1673177,566,-16302,-2303,-13,-31,-17
17,243,1673182,612,-16261,-2345,-12,-36,-14
17,244,1673187,619,-16285,-2403,-13,-39,-12
17,245,1673192,655,-16292,-2468,-12,-43,-13
17,246,1673197,659,-16281,-2520,-13,-45,-15
17,247,1673202,640,-16249,-2602,-13,-40,-15
17,248,1673207,662,-16257,-2631,-10,-28,-13
17,249,1673212,626,-16200,-2576,-11,-15,-13
17,250,1673217,591,-16168,-2505,-13,-10,-11
17,251,1673222,535,-16263,-2466,-13,-11,-13
17,252,1673227,445,-16302,-2454,-11,-17,-11
17,253,1673232,510,-16323,-2496,-11,-20,-10
17,254,1673237,628,-16311,-2513,-13,-15,-11
17,255,1673242,662,-16272,-2436,-13,-7,-12
17,256,1673247,618,-16310,-2458,-11,-8,-12
17,257,1673252,533,-16319,-2491,-6,-12,-9
17,258,1673257,498,-16347,-2505,-11,-16,-10
17,259,1673262,557,-16381,-2548,-13,-11,-9
17,260,1673267,642,-16299,-2453,-10,2,-8
17,261,1673272,632,-16275,-2433,-12,6,-11
17,262,1673277,554,-16284,-2498,-11,7,-13
17,263,1673282,511,-16238,-2603,-6,5,-10
17,264,1673287,450,-16142,-2641,-7,7,-7
17,265,1673292,477,-16142,-2638,-7,16,-9
17,266,1673297,571,-16170,-2560,-7,29,-8
17,267,1673302,626,-16175,-2388,-6,33,-9
17,268,1673307,557,-16132,-2380,-6,28,-7
17,269,1673312,464,-16199,-2438,-6,18,-7
17,270,1673317,451,-16144,-2592,-3,13,-8
17,271,1673322,524,-16110,-2575,-4,17,-9
17,272,1673327,633,-16115,-2457,-4,23,-6
17,273,1673332,674,-16120,-2410,-2,19,-8
17,274,1673337,628,-16166,-2437,-2,17,-8
17,275,1673342,565,-16190,-2499,0,10,-7
17,276,1673347,477,-16163,-2498,0,17,-6
17,277,1673352,528,-16150,-2368,0,23,-3
17,278,1673357,606,-16180,-2358,1,22,-6
17,279,1673362,619,-16150,-2400,1,16,-7
17,280,1673367,637,-16135,-2362,1,9,-5
17,281,1673372,619,-16138,-2428,1,2,-2
17,282,1673377,576,-16057,-2468,0,-3,-3
17,283,1673382,649,-16063,-2500,2,-4,-1
17,284,1673387,634,-16052,-2381,1,-6,-2
17,285,1673392,620,-16079,-2447,2,-15,-2
17,286,1673397,505,-16094,-2484,4,-30,-1
17,287,1673402,486,-16161,-2507,8,-36,1
17,288,1673407,521,-16197,-2472,9,-43,4
17,289,1673412,562,-16221,-2421,5,-40,2
17,290,1673417,560,-16272,-2386,7,-39,0
17,291,1673422,472,-16360,-2398,10,-46,3
17,292,1673427,342,-16439,-2433,9,-52,3
17,293,1673432,284,-16456,-2577,10,-49,-1
17,294,1673437,414,-16436,-2612,10,-38,1
17,295,1673442,577,-16410,-2562,9,-16,0
17,296,1673447,617,-16384,-2561,11,4,1
17,297,1673452,547,-16354,-2545,11,15,-2
17,298,1673457,478,-16322,-2543,11,22,-3
17,299,1673462,493,-16263,-2538,10,24,-4
17,300,1673467,616,-16233,-2346,11,30,-3
17,301,1673472,596,-16224,-2259,12,22,-3
17,302,1673477,551,-16243,-2309,11,10,1
17,303,1673482,532,-16275,-2413,11,-3,1
17,304,1673487,553,-16250,-2453,15,-10,1
17,305,1673492,586,-16209,-2360,15,-13,0
17,306,1673497,629,-16223,-2352,13,-15,2
17,307,1673502,602,-16296,-2421,13,-17,4
17,308,1673507,479,-16321,-2486,16,-17,2
17,309,1673512,394,-16335,-2508,14,-16,4
17,310,1673517,413,-16334,-2562,13,-9,2
17,311,1673522,475,-16357,-2473,12,4,3
17,312,1673527,486,-16385,-2417,10,15,2
17,313,1673532,436,-16442,-2388,12,18,-2
17,314,1673537,392,-16436,-2424,13,13,0
17,315,1673542,354,-16440,-2454,12,10,-1
17,316,1673547,394,-16425,-2440,10,13,-4
17,317,1673552,448,-16377,-2362,10,19,-4
17,318,1673557,540,-16348,-2346,6,24,-6
17,319,1673562,548,-16302,-2368,8,23,-7
17,320,1673567,578,-16252,-2411,8,19,-6
17,321,1673572,543,-16197,-2508,8,11,-4
17,322,1673577,556,-16139,-2464,5,10,-5
17,323,1673582,593,-16145,-2407,3,3,-5
17,324,1673587,587,-16191,-2387,4,-1,-4
17,325,1673592,620,-16186,-2376,1,-7,-3
17,326,1673597,648,-16189,-2374,3,-13,-5
17,327,1673602,605,-16145,-2388,4,-18,-5
17,328,1673607,563,-16187,-2458,3,-22,-4
17,329,1673612,461,-16261,-2474,3,-28,-2
17,330,1673617,463,-16331,-2489,2,-32,-4
17,331,1673622,454,-16298,-2544,-1,-27,-7
17,332,1673627,535,-16278,-2603,1,-18,-5
17,333,1673632,539,-16253,-2626,0,-3,-8
17,334,1673637,583,-16258,-2605,1,7,-8
17,335,1673642,586,-16260,-2504,3,8,-7
17,336,1673647,498,-16296,-2445,0,5,-10
17,337,1673652,486,-16316,-2402,-3,2,-12
17,338,1673657,450,-16289,-2458,0,-1,-12
17,339,1673662,542,-16312,-2466,0,-2,-9
17,340,1673667,562,-16271,-2475,-3,-1,-10
17,341,1673672,564,-16259,-2485,-2,-8,-12
17,342,1673677,539,-16264,-2488,-2,-12,-10
17,343,1673682,607,-16234,-2528,-5,-13,-14
17,344,1673687,655,-16197,-2504,-3,-9,-9
17,345,1673692,631,-16261,-2480,-3,-7,-8
17,346,1673697,542,-16301,-2561,-8,-9,-11
17,347,1673702,489,-16278,-2608,-8,-13,-11
17,348,1673707,513,-16231,-2632,-6,-12,-13
17,349,1673712,578,-16238,-2614,-8,-4,-14
17,350,1673717,557,-16284,-2587,-8,13,-14
17,351,1673722,504,-16290,-2616,-8,15,-12
17,352,1673727,548,-16266,-2594,-12,14,-15
17,353,1673732,579,-16229,-2581,-10,19,-17
17,354,1673737,598,-16268,-2532,-10,26,-16
17,355,1673742,553,-16229,-2510,-8,29,-14
17,356,1673747,599,-16171,-2500,-6,23,-16
17,357,1673752,652,-16142,-2453,-8,19,-17
17,358,1673757,625,-16156,-2504,-10,12,-15
17,359,1673762,634,-16157,-2503,-9,3,-12
17,360,1673767,583,-16186,-2454,-9,-3,-15
17,361,1673772,622,-16200,-2447,-11,-11,-15
17,362,1673777,636,-16165,-2539,-12,-13,-15
17,363,1673782,670,-16161,-2556,-12,-9,-13
17,364,1673787,697,-16161,-2592,-13,-6,-16
17,365,1673792,679,-16187,-2586,-12,-8,-14
17,366,1673797,681,-16172,-2588,-15,-6,-14
17,367,1673802,687,-16144,-2600,-14,2,-14
17,368,1673807,636,-16077,-2532,-16,12,-16
17,369,1673812,656,-16031,-2425,-19,17,-16
17,370,1673817,600,-16049,-2409,-19,13,-14
17,371,1673822,547,-16116,-2421,-16,1,-9
17,372,1673827,570,-16172,-2422,-18,-6,-13
17,373,1673832,561,-16194,-2453,-18,-14,-13
17,374,1673837,696,-16104,-2454,-21,-20,-12
17,375,1673842,651,-16095,-2536,-18,-19,-11
17,376,1673847,556,-16068,-2618,-16,-20,-11
17,377,1673852,468,-16033,-2618,-21,-22,-11
17,378,1673857,501,-15992,-2566,-24,-23,-11
17,379,1673862,571,-15952,-2494,-24,-27,-8
17,380,1673867,608,-15931,-2273,-29,-33,-8
17,381,1673872,556,-15896,-2339,-30,-52,-6
17,382,1673877,403,-15946,-2442,-28,-77,-3
17,383,1673882,221,-16016,-2490,-32,-102,4
17,384,1673887,273,-16094,-2501,-39,-121,6
17,385,1673892,353,-16055,-2362,-45,-129,12
17,386,1673897,541,-15972,-2186,-52,-128,14
17,387,1673902,607,-15898,-2047,-53,-130,20
17,388,1673907,367,-15929,-1733,-58,-146,19
17,389,1673912,127,-16015,-2007,-63,-198,26
17,390,1673917,-144,-16076,-1800,-63,-255,37
17,391,1673922,118,-15951,-2196,-69,-313,44
17,392,1673927,341,-16002,-2080,-73,-335,53
17,393,1673932,272,-16159,-2513,-77,-347,57
17,394,1673937,-92,-16293,-2452,-84,-351,62
17,395,1673942,-128,-16366,-2992,-88,-377,72
17,396,1673947,-142,-16373,-3262,-100,-360,80
17,397,1673952,35,-16561,-3269,-112,-322,86
17,398,1673957,51,-16608,-3218,-122,-274,94
17,399,1673962,92,-16550,-3071,-130,-236,101
17,400,1673967,134,-16447,-3222,-131,-215,114
17,401,1673972,78,-16406,-3293,-141,-185,123
17,402,1673977,54,-16467,-3150,-153,-163,132
17,403,1673982,-41,-16559,-2827,-163,-171,150
17,404,1673987,-65,-16615,-2667,-176,-189,161
17,405,1673992,95,-16586,-2790,-183,-202,176
17,406,1673997,269,-16508,-2858,-192,-193,189
17,407,1674002,116,-16386,-2866,-201,-193,204
17,408,1674007,-117,-16364,-2927,-208,-215,218
17,409,1674012,-240,-16365,-3128,-219,-249,234
17,410,1674017,-48,-16250,-3337,-233,-269,251
17,411,1674022,-51,-16185,-3253,-241,-268,266
17,412,1674027,-217,-16085,-3222,-248,-260,279
17,413,1674032,-443,-16136,-3574,-256,-257,294
17,414,1674037,-562,-16101,-3942,-264,-246,308
17,415,1674042,-614,-16021,-4092,-278,-218,321
17,416,1674047,-652,-16020,-4078,-293,-182,333
17,417,1674052,-639,-15968,-3819,-304,-143,344
17,418,1674057,-678,-15840,-3596,-318,-113,355
17,419,1674062,-783,-15807,-3661,-325,-103,368
17,420,1674067,-937,-15781,-3584,-333,-106,379
17,421,1674072,-1047,-15764,-3478,-349,-129,393
17,422,1674077,-918,-15719,-3339,-357,-162,407
17,423,1674082,-828,-15741,-3279,-363,-194,419
17,424,1674087,-896,-15709,-3444,-372,-217,429
17,425,1674092,-1011,-15703,-3706,-378,-243,440
17,426,1674097,-1048,-15721,-4141,-383,-257,455
17,427,1674102,-1030,-15774,-4383,-392,-252,465
17,428,1674107,-964,-15755,-4317,-410,-234,476
17,429,1674112,-996,-15718,-4220,-421,-209,484
17,430,1674117,-1040,-15723,-4276,-426,-181,493
17,431,1674122,-1148,-15745,-4406,-431,-158,500
17,432,1674127,-1297,-15725,-4449,-438,-142,508
17,433,1674132,-1393,-15698,-4364,-450,-136,516
17,434,1674137,-1480,-15845,-4338,-461,-137,525
17,435,1674142,-1567,-15943,-4347,-471,-139,532
17,436,1674147,-1500,-15930,-4351,-477,-130,537
17,437,1674152,-1440,-15886,-4465,-479,-117,544
17,438,1674157,-1505,-15879,-4509,-483,-101,548
17,439,1674162,-1502,-15893,-4506,-492,-91,551
17,440,1674167,-1499,-15917,-4417,-494,-93,561
17,441,1674172,-1504,-15906,-4132,-505,-101,564
17,442,1674177,-1620,-15990,-4056,-507,-121,572
17,443,1674182,-1699,-16012,-4128,-508,-145,575
17,444,1674187,-1720,-16016,-4372,-510,-178,582
17,445,1674192,-1663,-15996,-4306,-516,-199,589
17,446,1674197,-1592,-16023,-4275,-516,-221,595
17,447,1674202,-1622,-16152,-4178,-517,-245,599
17,448,1674207,-1806,-16338,-4730,-519,-271,605
17,449,1674212,-1787,-16238,-4760,-522,-248,610
17,450,1674217,-1760,-16192,-4860,-525,-223,609
17,451,1674222,-1694,-16218,-4802,-523,-203,610
17,452,1674227,-1773,-16262,-4745,-524,-190,612
17,453,1674232,-1858,-16321,-4676,-528,-182,612
17,454,1674237,-1912,-16230,-4682,-528,-181,611
17,455,1674242,-1998,-16237,-4687,-521,-174,614
17,456,1674247,-1992,-16224,-4803,-521,-164,613
17,457,1674252,-1882,-16061,-4822,-521,-161,613
17,458,1674257,-1864,-15947,-4800,-516,-156,611
17,459,1674262,-1959,-15940,-4844,-514,-149,609
17,460,1674267,-2196,-15999,-4762,-508,-146,608
17,461,1674272,-2397,-16061,-5030,-499,-161,608
17,462,1674277,-2317,-15949,-5075,-500,-160,607
17,463,1674282,-2126,-15856,-5206,-498,-141,601
17,464,1674287,-2062,-15884,-5124,-493,-97,595
17,465,1674292,-2223,-15950,-5015,-488,-61,588
17,466,1674297,-2330,-15975,-4860,-485,-45,580
17,467,1674302,-2367,-16001,-4810,-479,-43,574
17,468,1674307,-2298,-15935,-4686,-476,-38,568
17,469,1674312,-2232,-15843,-4715,-472,-33,563
17,470,1674317,-2239,-15800,-4686,-464,-27,557
17,471,1674322,-2331,-15750,-4766,-458,-30,545
17,472,1674327,-2285,-15638,-4789,-446,-36,542
17,473,1674332,-2255,-15520,-4782,-442,-45,536
17,474,1674337,-2104,-15395,-4813,-435,-53,526
17,475,1674342,-2095,-15243,-4757,-426,-56,519
17,476,1674347,-2153,-15135,-4685,-416,-67,507
17,477,1674352,-2276,-15044,-4734,-402,-99,500
17,478,1674357,-2492,-15130,-4838,-390,-139,496
17,479,1674362,-2631,-15225,-5080,-379,-174,486
17,480,1674367,-2554,-15301,-5249,-374,-186,480
17,481,1674372,-2355,-15363,-5314,-367,-156,466
17,482,1674377,-2240,-15388,-5286,-358,-98,454
17,483,1674382,-2254,-15454,-5354,-352,-46,439
17,484,1674387,-2402,-15399,-5331,-346,0,422
17,485,1674392,-2393,-15312,-5248,-339,36,408
17,486,1674397,-2343,-15223,-5026,-332,73,396
17,487,1674402,-2212,-15192,-4741,-322,96,383
17,488,1674407,-2302,-15191,-4565,-310,99,366
17,489,1674412,-2254,-15191,-4627,-296,69,352
17,490,1674417,-2257,-15127,-4673,-284,26,341
17,491,1674422,-2041,-15021,-4715,-271,-10,333
17,492,1674427,-2049,-14941,-4623,-261,-30,321
17,493,1674432,-2092,-14885,-4651,-245,-56,309
17,494,1674437,-2221,-14803,-4796,-233,-94,295
17,495,1674442,-2365,-14799,-4955,-214,-131,279
17,496,1674447,-2487,-14928,-5197,-198,-163,266
17,497,1674452,-2548,-15015,-5280,-187,-174,248
17,498,1674457,-2535,-15084,-5356,-171,-170,234
17,499,1674462,-2612,-15179,-5549,-160,-149,214
17,500,1674467,-2594,-15320,-5738,-150,-111,194
17,501,1674472,-2437,-15332,-5803,-138,-60,178
17,502,1674477,-2303,-15324,-5718,-131,1,155
17,503,1674482,-2327,-15323,-5425,-117,56,132
17,504,1674487,-2528,-15280,-5251,-106,92,109
17,505,1674492,-2669,-15251,-5224,-90,108,89
17,506,1674497,-2721,-15305,-5326,-76,119,70
17,507,1674502,-2532,-15263,-5334,-67,129,49
17,508,1674507,-2259,-15149,-5195,-51,144,32
17,509,1674512,-2113,-15072,-5003,-36,151,12
17,510,1674517,-2136,-14994,-4997,-19,151,-12
17,511,1674522,-2299,-14975,-4977,-1,137,-31
17,512,1674527,-2365,-15000,-5086,16,109,-47
17,513,1674532,-2280,-14940,-5143,29,83,-67
17,514,1674537,-2301,-14951,-5149,42,64,-87
17,515,1674542,-2369,-15064,-5274,59,51,-105
17,516,1674547,-2217,-15177,-5365,73,51,-125
17,517,1674552,-1956,-15168,-5385,84,69,-145
17,518,1674557,-1801,-15143,-5232,98,102,-166
17,519,1674562,-2011,-15189,-5131,111,126,-190
17,520,1674567,-2227,-15275,-5171,124,130,-211
17,521,1674572,-2208,-15293,-5202,147,111,-249
17,522,1674577,-1978,-15362,-5165,159,116,-267
17,523,1674582,-1820,-15385,-5094,169,134,-290
17,524,1674587,-1858,-15306,-5063,182,156,-312
17,525,1674592,-1827,-15296,-5302,199,166,-333
17,526,1674597,-1740,-15203,-5308,213,176,-350
17,527,1674602,-1727,-15131,-5087,219,173,-369
17,528,1674607,-1835,-15200,-4877,232,158,-389
17,529,1674612,-1866,-15248,-4950,243,142,-406
17,530,1674617,-1722,-15278,-5173,257,139,-423
17,531,1674622,-1537,-15326,-5225,273,154,-441
17,532,1674627,-1511,-15295,-5056,282,168,-463
17,533,1674632,-1639,-15251,-4821,293,158,-482
17,534,1674637,-1761,-15302,-4960,305,130,-499
17,535,1674642,-1698,-15436,-5195,316,113,-517
17,536,1674647,-1479,-15481,-5183,327,122,-532
17,537,1674652,-1327,-15542,-5073,335,142,-549
17,538,1674657,-1322,-15612,-4873,346,152,-571
17,539,1674662,-1417,-15545,-4843,353,152,-589
17,540,1674667,-1489,-15487,-4862,360,148,-608
17,541,1674672,-1475,-15433,-4863,369,144,-624
17,542,1674677,-1288,-15329,-4778,379,144,-637
17,543,1674682,-1109,-15266,-4627,388,142,-652
17,544,1674687,-981,-15308,-4584,400,120,-669
17,545,1674692,-1077,-15293,-4590,406,93,-684
17,546,1674697,-1040,-15159,-4725,414,63,-701
17,547,1674702,-893,-14963,-4995,424,55,-713
17,548,1674707,-670,-14930,-5086,435,74,-724
17,549,1674712,-571,-14878,-4928,438,90,-740
17,550,1674717,-598,-14812,-4682,449,82,-752
17,551,1674722,-825,-14759,-4543,459,55,-764
17,552,1674727,-1056,-14884,-4750,471,15,-775
17,553,1674732,-1131,-14961,-4985,483,-5,-783
17,554,1674737,-892,-15125,-5051,484,-3,-793
17,555,1674742,-374,-15362,-4815,479,13,-803
17,556,1674747,-52,-15366,-4357,485,41,-815
17,557,1674752,-268,-15457,-3990,497,59,-831
17,558,1674757,-707,-15528,-4162,506,40,-842
17,559,1674762,-876,-15580,-4461,510,4,-849
17,560,1674767,-717,-15640,-4638,509,-19,-858
17,561,1674772,-421,-15733,-4342,508,-9,-867
17,562,1674777,-269,-15748,-4146,510,-2,-878
17,563,1674782,-378,-15800,-4391,525,-3,-888
17,564,1674787,-466,-15914,-4706,538,-2,-896
17,565,1674792,-542,-16014,-4986,545,-10,-903
17,566,1674797,-720,-16165,-4892,544,-5,-911
17,567,1674802,-832,-16405,-4566,538,5,-923
17,568,1674807,-599,-16599,-4379,542,11,-931
17,569,1674812,-499,-16838,-4399,552,32,-942
17,570,1674817,-636,-17074,-4490,561,56,-951
17,571,1674822,-777,-17271,-4407,560,70,-960
17,572,1674827,-655,-17372,-4504,547,67,-971
17,573,1674832,-306,-17425,-4218,556,77,-973
17,574,1674837,-239,-17560,-3780,555,103,-982
17,575,1674842,-362,-17605,-3677,555,104,-998
17,576,1674847,-517,-17603,-3851,556,104,-1008
17,577,1674852,-325,-17349,-4067,553,96,-1011
17,578,1674857,-84,-17147,-3935,551,109,-1017
17,579,1674862,0,-16995,-3758,544,114,-1023
17,580,1674867,147,-16761,-3522,540,103,-1026
17,581,1674872,325,-16482,-3451,547,88,-1031
17,582,1674877,450,-16254,-3475,544,82,-1033
17,583,1674882,389,-16178,-3548,539,69,-1034
17,584,1674887,243,-16070,-3560,540,40,-1034
17,585,1674892,219,-15938,-3494,535,7,-1038
17,586,1674897,516,-15787,-3583,522,-22,-1039
17,587,1674902,647,-15670,-3608,519,-21,-1039
17,588,1674907,555,-15747,-3808,517,4,-1043
17,589,1674912,484,-15780,-3895,512,32,-1042
17,590,1674917,643,-15753,-3657,500,56,-1038
17,591,1674922,929,-15750,-3556,491,79,-1036
17,592,1674927,968,-15937,-3117,485,107,-1034
17,593,1674932,846,-16189,-2814,484,108,-1032
17,594,1674937,823,-16322,-2767,477,93,-1027
17,595,1674942,1370,-16381,-2697,466,67,-1014
17,596,1674947,1364,-16477,-2358,453,45,-1005
17,597,1674952,861,-15667,-2313,450,4,-998
17,598,1674957,-6271,-14625,-15916,487,60,-972
17,599,1674962,-2477,-18953,-32768,845,2764,-1381
17,600,1674967,-30618,-12762,-10471,-373,7190,-962
17,601,1674990,18747,-23706,29930,101,2100,124
17,602,1674991,18747,-23706,29930,101,2100,124
17,603,1674992,-9402,-13450,9936,508,-4273,155
17,604,1674993,-9402,-13450,9936,508,-4273,155
17,605,1674994,-9402,-13450,9936,508,-4273,155
17,606,1674997,-17934,-13511,2474,370,-8212,469
17,607,1675002,-13487,-14927,-3503,156,-8636,851
17,608,1675007,22426,-17131,-32768,-126,-8348,685
17,609,1675012,15219,-15224,-19465,-157,-3559,439
17,610,1675017,-4240,-15514,5554,-303,-1575,261
17,611,1675022,-10787,-14684,-15239,68,-2788,387
17,612,1675027,545,-16339,-27018,211,-2263,484
17,613,1675032,8314,-15996,-27938,57,-207,395
17,614,1675037,6310,-16200,-16634,-156,1971,241
17,615,1675042,-3963,-15087,3451,-288,3089,152
17,616,1675047,-4894,-15030,9180,-242,2472,177
17,617,1675052,-1222,-15703,3943,-81,1380,258
17,618,1675057,2728,-16056,199,-34,624,270
17,619,1675062,1189,-16011,2006,-49,147,287
17,620,1675067,-618,-15813,5854,-116,-323,287
17,621,1675072,-1180,-16128,4714,-62,-881,324
17,622,1675077,1506,-16767,-2298,-14,-1366,356
17,623,1675082,3531,-16926,-9159,-4,-1383,351
17,624,1675087,2860,-17019,-9745,-50,-984,320
17,625,1675092,327,-16938,-7270,-106,-554,291
17,626,1675097,-336,-17148,-5871,-131,-251,283
17,627,1675102,1116,-17247,-6678,-128,70,277
17,628,1675107,2450,-17239,-7703,-122,480,260
17,629,1675112,1696,-17093,-4274,-129,824,232
17,630,1675117,95,-16844,-1358,-138,777,221
17,631,1675122,-233,-16825,-180,-130,501,232
17,632,1675127,864,-16881,-1263,-106,229,251
17,633,1675132,1879,-17122,-2098,-83,142,257
17,634,1675137,1578,-17234,-1385,-72,125,249
17,635,1675142,938,-17196,-1800,-69,-20,243
17,636,1675147,717,-17016,-3193,-69,-182,243
17,637,1675152,1251,-16975,-4399,-70,-219,247
17,638,1675157,1624,-17009,-4294,-77,-96,241
17,639,1675162,1503,-17163,-3543,-76,61,233
17,640,1675167,1105,-17271,-2916,-72,142,220
17,641,1675172,997,-17223,-3503,-67,128,212
17,642,1675177,1194,-17069,-3706,-70,134,210
17,643,1675182,1407,-16991,-2923,-75,168,209
17,644,1675187,1342,-16980,-2052,-74,183,203
17,645,1675192,1263,-16991,-1638,-67,153,195
17,646,1675197,1229,-16911,-2307,-56,83,197
17,647,1675202,1281,-16759,-2733,-49,37,194
17,648,1675207,1387,-16596,-2992,-50,3,189
17,649,1675212,1406,-16502,-2708,-57,-4,187
17,650,1675217,1365,-16494,-2563,-55,-14,184
17,651,1675222,1347,-16458,-2804,-48,-16,176
17,652,1675227,1320,-16359,-3039,-38,4,172
17,653,1675232,1301,-16324,-3430,-37,26,169
17,654,1675237,1305,-16222,-3295,-44,53,161
17,655,1675242,1329,-16093,-2975,-48,62,156
17,656,1675247,1322,-15979,-2751,-49,69,152
17,657,1675252,1356,-15895,-2670,-46,73,148
17,658,1675257,1381,-15862,-2786,-36,70,144
17,659,1675262,1297,-15832,-2914,-28,58,142
17,660,1675267,1157,-15852,-2770,-26,39,140
17,661,1675272,1124,-15839,-2668,-27,7,136
17,662,1675277,1249,-15753,-2531,-27,-12,133
17,663,1675282,1343,-15694,-2618,-19,-15,132
17,664,1675287,1154,-15715,-2646,-13,-15,127
17,665,1675292,819,-15865,-2783,-9,-30,122
17,666,1675297,670,-15875,-2959,-8,-61,118
17,667,1675302,723,-15776,-3065,-9,-72,116
17,668,1675307,860,-15733,-3116,-11,-53,113
17,669,1675312,841,-15882,-3285,3,22,100
17,670,1675317,675,-15962,-3379,1,38,97
17,671,1675322,721,-15965,-3430,0,54,91
17,672,1675327,941,-15878,-3244,1,84,89
17,673,1675332,1086,-15868,-2931,0,122,90
17,674,1675337,1004,-16035,-2804,1,152,85
17,675,1675342,802,-16162,-2853,7,154,80
17,676,1675347,770,-16095,-2843,7,142,79
17,677,1675352,1077,-16019,-2942,11,129,83
17,678,1675357,1368,-16036,-2757,11,132,83
17,679,1675362,1433,-15954,-2640,10,132,81
17,680,1675367,1099,-15958,-2271,17,133,78
17,681,1675372,833,-15848,-2425,21,76,81
17,682,1675377,751,-15794,-2954,22,35,86
17,683,1675382,898,-15825,-3024,21,22,88
17,684,1675387,804,-15855,-2611,26,18,92
17,685,1675392,837,-15851,-2568,29,-11,88
17,686,1675397,810,-15866,-3016,36,-42,87
17,687,1675402,868,-15823,-3495,42,-40,89
17,688,1675407,764,-15717,-3595,43,-14,90
17,689,1675412,728,-15714,-3402,41,14,87
17,690,1675417,655,-15794,-3219,39,30,88
17,691,1675422,587,-15874,-3112,38,37,86
17,692,1675427,467,-15870,-3213,39,49,81
17,693,1675432,460,-15780,-3309,44,71,78
17,694,1675437,526,-15705,-3428,48,96,78
17,695,1675442,548,-15720,-3394,48,116,76
17,696,1675447,609,-15765,-3220,50,123,75
17,697,1675452,669,-15878,-3019,50,123,74
17,698,1675457,690,-15881,-2903,52,121,70
17,699,1675462,577,-16026,-2825,55,116,71
17,700,1675467,471,-16143,-2904,53,110,70
17,701,1675472,506,-16072,-2961,51,99,66
17,702,1675477,585,-15944,-3017,52,86,67
17,703,1675482,784,-15814,-3047,52,82,69
17,704,1675487,831,-15759,-3123,57,92,68
17,705,1675492,721,-15797,-3105,59,94,67
17,706,1675497,541,-15822,-3098,63,85,65
17,707,1675502,503,-15813,-3075,63,72,66
17,708,1675507,615,-15789,-3011,62,64,67
17,709,1675512,640,-15762,-2965,62,60,63
17,710,1675517,544,-15863,-2922,67,49,62
17,711,1675522,485,-15931,-3039,72,31,63
17,712,1675527,508,-15927,-3203,73,12,62
17,713,1675532,588,-15973,-3235,71,6,60
17,714,1675537,637,-15976,-3272,66,18,58
17,715,1675542,672,-15906,-3211,66,37,57
17,716,1675547,721,-15843,-3244,68,56,54
17,717,1675552,664,-15880,-3278,70,73,54
17,718,1675557,645,-15975,-3256,71,78,51
17,719,1675562,551,-15919,-3043,67,77,50
17,720,1675567,547,-15862,-2883,65,66,49
17,721,1675572,617,-15834,-2815,70,50,49
17,722,1675577,629,-15885,-2939,71,38,47
17,723,1675582,579,-15971,-2964,72,17,46
17,724,1675587,541,-15974,-3030,74,-9,46
17,725,1675592,553,-15998,-3107,77,-31,44
17,726,1675597,624,-16045,-3225,75,-33,44
17,727,1675602,734,-16053,-3298,78,-16,42
17,728,1675607,696,-16022,-3353,77,13,39
17,729,1675612,612,-16041,-3427,77,32,36
17,730,1675617,584,-16102,-3368,76,42,36
17,731,1675622,541,-16166,-3200,76,46,38
17,732,1675627,486,-16252,-2963,74,51,34
17,733,1675632,511,-16226,-2936,78,60,32
17,734,1675637,604,-16181,-3022,82,68,29
17,735,1675642,605,-16161,-3042,82,71,28
17,736,1675647,524,-16206,-3026,82,64,27
17,737,1675652,477,-16295,-2887,77,46,27
17,738,1675657,598,-16278,-2792,81,26,26
17,739,1675662,724,-16211,-2825,81,27,25
17,740,1675667,763,-16166,-2837,80,35,23
17,741,1675672,578,-16193,-2899,80,29,21
17,742,1675677,319,-16449,-3003,75,-1,23
17,743,1675682,465,-16445,-2912,73,-2,19
17,744,1675687,607,-16442,-2964,73,21,16
17,745,1675692,669,-16383,-3055,76,54,15
17,746,1675697,626,-16349,-3101,74,82,10
17,747,1675702,556,-16281,-3056,71,91,7
17,748,1675707,485,-16282,-2906,68,87,9
17,749,1675712,477,-16266,-2763,68,79,9
17,750,1675717,434,-16340,-2668,68,72,4
17,751,1675722,397,-16369,-2651,68,63,4
17,752,1675727,352,-16329,-2804,68,52,1
17,753,1675732,457,-16298,-3009,66,46,-1
17,754,1675737,558,-16247,-2966,63,46,-1
17,755,1675742,642,-16174,-2863,61,51,-1
17,756,1675747,603,-16084,-2759,60,50,-5
17,757,1675752,561,-16026,-2773,63,46,-5
17,758,1675757,555,-16003,-2812,63,37,-5
17,759,1675762,402,-16162,-2770,60,21,-6
17,760,1675767,316,-16309,-2650,59,-5,-5
17,761,1675772,370,-16461,-2583,55,-27,-5
17,762,1675777,514,-16445,-2626,55,-35,-7
17,763,1675782,658,-16424,-2791,57,-25,-10
17,764,1675787,564,-16374,-2933,57,-18,-13
17,765,1675792,444,-16315,-2958,56,-13,-11
17,766,1675797,410,-16270,-2877,53,-18,-13
17,767,1675802,431,-16261,-2797,51,-24,-15
17,768,1675807,467,-16252,-2699,49,-27,-16
17,769,1675812,426,-16260,-2741,46,-21,-19
17,770,1675817,332,-16341,-2948,46,-15,-20
17,771,1675822,320,-16442,-3101,45,-6,-24
17,772,1675827,414,-16506,-2958,40,8,-22
17,773,1675832,548,-16510,-2776,35,26,-26
17,774,1675837,573,-16489,-2627,36,42,-30
17,775,1675842,497,-16431,-2672,35,48,-33
17,776,1675847,434,-16300,-2774,37,43,-32
17,777,1675852,455,-16193,-2850,34,34,-31
17,778,1675857,555,-16076,-2737,30,19,-30
17,779,1675862,624,-16066,-2565,27,5,-30
17,780,1675867,581,-16077,-2588,28,-15,-30
17,781,1675872,523,-16078,-2788,30,-29,-33
17,782,1675877,441,-16140,-2973,29,-33,-33
17,783,1675882,423,-16172,-3025,26,-30,-32
17,784,1675887,515,-16201,-2928,25,-20,-30
17,785,1675892,571,-16218,-2716,23,-13,-32
17,786,1675897,609,-16154,-2697,27,-11,-30
17,787,1675902,494,-16096,-2729,29,-17,-34
17,788,1675907,367,-16104,-2782,30,-27,-34
17,789,1675912,214,-16217,-2801,27,-45,-32
17,790,1675917,190,-16377,-2800,24,-59,-32
17,791,1675922,218,-16489,-2809,23,-59,-35
17,792,1675927,380,-16498,-2846,20,-40,-38
17,793,1675932,507,-16462,-2882,20,-6,-43
17,794,1675937,473,-16377,-3014,21,25,-46
17,795,1675942,459,-16271,-2930,19,41,-42
17,796,1675947,444,-16203,-2839,14,44,-42
17,797,1675952,467,-16147,-2630,13,41,-43
17,798,1675957,523,-16157,-2445,14,29,-43
17,799,1675962,523,-16104,-2397,14,12,-41
17,800,1675967,603,-16042,-2481,16,-7,-39
17,801,1675972,604,-15993,-2532,17,-32,-37
17,802,1675977,593,-15958,-2611,16,-60,-36
17,803,1675982,594,-15914,-2709,15,-80,-35
17,804,1675987,598,-15926,-2800,15,-90,-32
17,805,1675992,614,-15914,-2880,14,-88,-33
17,806,1675997,556,-15867,-2903,15,-78,-31
17,807,1676002,481,-15901,-2937,16,-66,-31
17,808,1676007,379,-15893,-2887,16,-56,-31
17,809,1676012,271,-15912,-2925,14,-42,-32
17,810,1676017,296,-15911,-2937,15,-27,-35
17,811,1676022,320,-15939,-2837,14,-13,-36
17,812,1676027,278,-15972,-2815,15,-2,-36
17,813,1676032,308,-15984,-2802,14,2,-34
17,814,1676037,406,-15981,-2728,12,7,-31
17,815,1676042,446,-16047,-2605,14,13,-33
17,816,1676047,262,-16185,-2459,13,-9,-32
17,817,1676052,291,-16178,-2471,15,-26,-34
17,818,1676057,394,-16123,-2516,15,-39,-30
17,819,1676062,448,-16177,-2555,19,-48,-29
17,820,1676067,379,-16281,-2609,20,-52,-28
17,821,1676072,353,-16368,-2670,17,-57,-31
17,822,1676077,359,-16398,-2732,19,-57,-27
17,823,1676082,439,-16376,-2774,18,-41,-28
17,824,1676087,478,-16387,-2707,15,-20,-27
17,825,1676092,406,-16466,-2632,14,-5,-29
17,826,1676097,349,-16528,-2538,15,1,-29
17,827,1676102,301,-16581,-2506,14,-2,-26
17,828,1676107,293,-16581,-2559,16,-4,-24
17,829,1676112,416,-16524,-2519,12,5,-26
17,830,1676117,493,-16467,-2464,13,13,-24
17,831,1676122,537,-16464,-2441,15,13,-25
17,832,1676127,498,-16415,-2519,18,5,-21
17,833,1676132,437,-16442,-2561,19,-11,-20
17,834,1676137,373,-16448,-2587,19,-27,-18
17,835,1676142,371,-16372,-2612,16,-31,-19
17,836,1676147,327,-16371,-2659,16,-28,-21
17,837,1676152,414,-16377,-2733,19,-13,-14
17,838,1676157,450,-16362,-2780,22,4,-14
17,839,1676162,424,-16382,-2731,20,11,-15
17,840,1676167,359,-16449,-2617,16,12,-17
17,841,1676172,343,-16475,-2513,17,13,-16
17,842,1676177,349,-16463,-2420,16,12,-15
17,843,1676182,376,-16421,-2370,17,15,-14
17,844,1676187,420,-16408,-2411,20,11,-14
17,845,1676192,451,-16399,-2348,20,-8,-12
17,846,1676197,450,-16392,-2289,16,-36,-11
17,847,1676202,414,-16420,-2371,18,-62,-10
17,848,1676207,306,-16394,-2520,21,-80,-9
17,849,1676212,318,-16398,-2745,16,-79,-7
17,850,1676217,413,-16307,-2833,18,-62,-8
17,851,1676222,525,-16194,-2864,19,-38,-7
17,852,1676227,561,-16160,-2793,18,-15,-10
17,853,1676232,449,-16170,-2744,16,-4,-14
17,854,1676237,363,-16196,-2724,18,-1,-12
17,855,1676242,348,-16195,-2711,16,1,-14
17,856,1676247,438,-16129,-2637,18,3,-9
17,857,1676252,542,-16060,-2539,20,6,-9
17,858,1676257,555,-16065,-2476,19,4,-10
17,859,1676262,490,-16094,-2410,19,-11,-10
17,860,1676267,431,-16103,-2516,21,-36,-6
17,861,1676272,410,-16161,-2609,20,-52,-5
17,862,1676277,465,-16117,-2718,20,-56,-8
17,863,1676282,632,-16104,-2746,21,-43,-8
17,864,1676287,668,-16025,-2666,17,-25,-6
17,865,1676292,651,-16023,-2625,16,-18,-6
17,866,1676297,577,-16045,-2582,17,-21,-3
17,867,1676302,477,-16035,-2602,18,-27,-3
17,868,1676307,405,-16014,-2565,17,-32,-5
17,869,1676312,402,-15964,-2668,13,-31,-3
17,870,1676317,451,-15921,-2708,18,-28,-3
17,871,1676322,527,-15892,-2789,19,-19,-1
17,872,1676327,610,-15926,-2817,19,-8,-2
17,873,1676332,474,-15956,-2807,19,-4,-3
17,874,1676337,359,-15976,-2695,18,-6,-8
17,875,1676342,328,-15998,-2732,18,-5,-9
17,876,1676347,445,-16049,-2806,17,4,-9
17,877,1676352,458,-16062,-2810,19,18,-7
17,878,1676357,365,-16115,-2802,19,26,-6
17,879,1676362,386,-16172,-2764,22,27,-9
17,880,1676367,456,-16186,-2810,19,25,-11
17,881,1676372,483,-16217,-2814,20,29,-8
17,882,1676377,512,-16227,-2738,21,37,-12
17,883,1676382,433,-16252,-2730,21,42,-12
17,884,1676387,350,-16357,-2732,22,38,-12
17,885,1676392,362,-16424,-2809,23,28,-12
17,886,1676397,415,-16474,-2753,24,23,-11
17,887,1676402,476,-16465,-2663,24,21,-13
17,888,1676407,425,-16509,-2647,26,19,-15
17,889,1676412,341,-16519,-2785,25,11,-16
17,890,1676417,331,-16536,-2914,28,14,-13
17,891,1676422,385,-16512,-2807,26,29,-14
17,892,1676427,416,-16497,-2724,28,41,-19
17,893,1676432,336,-16567,-2666,29,47,-19
17,894,1676437,293,-16600,-2718,31,49,-21
17,895,1676442,312,-16569,-2799,31,48,-23
17,896,1676447,435,-16447,-2801,31,48,-23
17,897,1676452,563,-16333,-2722,31,52,-24
17,898,1676457,621,-16248,-2685,34,53,-26
17,899,1676462,597,-16228,-2652,35,47,-22
17,900,1676467,545,-16277,-2620,36,31,-23
17,901,1676472,539,-16329,-2551,37,14,-21
17,902,1676477,526,-16345,-2420,36,0,-20
17,903,1676482,596,-16368,-2326,37,-9,-19
17,904,1676487,614,-16353,-2394,38,-17,-19
17,905,1676492,614,-16354,-2491,42,-27,-16
17,906,1676497,589,-16466,-2539,43,-38,-14
17,907,1676502,500,-16551,-2503,43,-46,-17
17,908,1676507,442,-16595,-2464,43,-53,-16
17,909,1676512,459,-16586,-2562,43,-47,-15
17,910,1676517,553,-16587,-2607,43,-32,-15
17,911,1676522,599,-16568,-2569,44,-10,-18
17,912,1676527,570,-16571,-2587,45,4,-20
17,913,1676532,490,-16572,-2557,47,1,-18
17,914,1676537,450,-16494,-2511,43,-9,-17
17,915,1676542,532,-16429,-2528,43,-11,-19
17,916,1676547,581,-16436,-2505,44,-9,-18
17,917,1676552,587,-16420,-2466,47,-12,-15
17,918,1676557,542,-16455,-2439,48,-19,-15
17,919,1676562,469,-16491,-2490,50,-35,-16
17,920,1676567,418,-16520,-2530,49,-45,-14
17,921,1676572,439,-16558,-2556,48,-49,-12
17,922,1676577,560,-16537,-2489,47,-42,-13
17,923,1676582,668,-16495,-2444,45,-32,-15
17,924,1676587,607,-16435,-2447,47,-23,-15
17,925,1676592,547,-16462,-2541,49,-19,-15
17,926,1676597,501,-16463,-2580,53,-16,-12
17,927,1676602,486,-16389,-2500,50,-14,-13
17,928,1676607,560,-16433,-2413,48,-13,-12
17,929,1676612,626,-16456,-2432,50,-6,-11
17,930,1676617,619,-16446,-2448,50,1,-10
17,931,1676622,692,-16400,-2485,48,5,-10
17,932,1676627,730,-16367,-2450,46,9,-10
17,933,1676632,693,-16334,-2277,46,10,-8
17,934,1676637,647,-16353,-2171,46,7,-10
17,935,1676642,593,-16310,-2177,49,-1,-9
17,936,1676647,616,-16245,-2236,48,-8,-6
17,937,1676652,633,-16174,-2207,45,-14,-6
17,938,1676657,612,-16135,-2203,46,-23,-4
17,939,1676662,631,-16168,-2146,46,-33,-3
17,940,1676667,586,-16228,-2112,45,-45,-1
17,941,1676672,538,-16213,-2159,44,-52,-1
17,942,1676677,532,-16220,-2266,42,-49,-2
17,943,1676682,662,-16208,-2332,37,-34,-2
17,944,1676687,710,-16099,-2250,36,-23,-4
17,945,1676692,697,-16094,-2184,37,-18,-3
17,946,1676697,699,-16065,-2178,35,-23,0
17,947,1676702,654,-16039,-2168,34,-30,0
17,948,1676707,632,-16109,-2139,36,-31,2
17,949,1676712,601,-16174,-2079,35,-33,2
17,950,1676717,551,-16137,-2015,31,-38,0
17,951,1676722,536,-16170,-2029,28,-39,-1
17,952,1676727,494,-16228,-2136,27,-38,0
17,953,1676732,529,-16193,-2136,26,-33,-1
17,954,1676737,667,-16070,-2087,21,-21,-2
17,955,1676742,767,-15956,-2056,20,-15,0
17,956,1676747,755,-15924,-1988,18,-15,0
17,957,1676752,670,-15921,-1898,18,-20,-1
17,958,1676757,628,-15934,-1929,18,-40,-1
17,959,1676762,556,-15910,-1983,16,-61,3
17,960,1676767,565,-15926,-2059,14,-84,4
17,961,1676772,617,-15944,-2149,14,-100,5
17,962,1676777,688,-15938,-2247,13,-110,4
17,963,1676782,649,-15984,-2420,16,-118,7
17,964,1676787,475,-16138,-2658,17,-121,5
17,965,1676792,400,-16185,-2726,15,-112,3
17,966,1676797,398,-16184,-2702,14,-94,2
17,967,1676802,455,-16184,-2763,15,-70,2
17,968,1676807,444,-16174,-2797,16,-41,-3
17,969,1676812,339,-16178,-2811,18,-15,-4
17,970,1676817,378,-16176,-2722,14,7,-5
17,971,1676822,405,-16168,-2529,12,21,-7
17,972,1676827,477,-16136,-2422,13,30,-8
17,973,1676832,485,-16152,-2279,11,39,-10
17,974,1676837,480,-16179,-2286,11,34,-11
17,975,1676842,537,-16181,-2236,12,28,-11
17,976,1676847,574,-16160,-2179,10,23,-11
17,977,1676852,552,-16123,-2218,12,7,-9
17,978,1676857,514,-16088,-2164,13,-5,-11
17,979,1676862,517,-16054,-2226,17,-22,-9
17,980,1676867,443,-16117,-2351,17,-31,-10
17,981,1676872,419,-16097,-2424,14,-38,-12
17,982,1676877,380,-16130,-2472,14,-42,-12
17,983,1676882,397,-16041,-2509,18,-39,-11
17,984,1676887,400,-16015,-2604,19,-29,-13
17,985,1676892,442,-16024,-2724,20,-18,-13
17,986,1676897,399,-16027,-2692,20,-2,-15
17,987,1676902,385,-16034,-2695,16,9,-21
17,988,1676907,458,-16016,-2637,16,19,-20
17,989,1676912,472,-16020,-2593,17,36,-22
17,990,1676917,398,-16047,-2584,18,49,-23
17,991,1676922,360,-16062,-2506,22,56,-24
17,992,1676927,321,-16024,-2374,20,56,-26
17,993,1676932,279,-16046,-2391,20,47,-27
17,994,1676937,298,-16030,-2481,20,44,-28
17,995,1676942,351,-16016,-2500,23,55,-29
17,996,1676947,437,-16018,-2478,22,71,-29
17,997,1676952,388,-16037,-2430,24,84,-34
17,998,1676957,382,-16089,-2432,20,90,-36
17,999,1676962,424,-16114,-2400,17,97,-37
18,0,1687577,66,-16282,-1681,-24,-46,-82
18,1,1687582,69,-16262,-1684,-22,-43,-78
18,2,1687587,48,-16232,-1570,-23,-41,-78
18,3,1687592,-22,-16194,-1585,-17,-43,-75
18,4,1687597,-71,-16185,-1653,-15,-40,-74
18,5,1687602,10,-16176,-1676,-9,-39,-71
18,6,1687607,-14,-16177,-1473,-6,-41,-68
18,7,1687612,-33,-16197,-1388,-5,-50,-68
18,8,1687617,1,-16195,-1442,2,-63,-67
18,9,1687622,5,-16206,-1460,2,-68,-64
18,10,1687627,-39,-16193,-1403,5,-71,-65
18,11,1687632,-22,-16224,-1293,4,-83,-67
18,12,1687637,-15,-16277,-1359,7,-97,-61
18,13,1687642,-22,-16299,-1574,10,-103,-55
18,14,1687647,22,-16337,-1577,10,-104,-58
18,15,1687652,26,-16318,-1509,14,-104,-57
18,16,1687657,-17,-16408,-1467,14,-103,-55
18,17,1687662,-24,-16469,-1564,15,-100,-54
18,18,1687667,-6,-16516,-1648,14,-94,-51
18,19,1687672,-59,-16512,-1540,14,-80,-50
18,20,1687677,-100,-16503,-1483,17,-68,-49
18,21,1687682,-99,-16460,-1571,21,-62,-46
18,22,1687687,-38,-16479,-1609,20,-51,-45
18,23,1687692,-107,-16426,-1554,20,-32,-46
18,24,1687697,-134,-16346,-1511,21,-27,-44
18,25,1687702,-138,-16293,-1531,20,-25,-43
18,26,1687707,-156,-16298,-1463,19,-27,-42
18,27,1687712,-161,-16261,-1402,21,-29,-40
18,28,1687717,-231,-16247,-1393,25,-35,-38
18,29,1687722,-244,-16290,-1402,27,-46,-37
18,30,1687727,-193,-16281,-1378,29,-59,-34
18,31,1687732,-239,-16239,-1265,26,-71,-30
18,32,1687737,-299,-16217,-1294,29,-84,-30
18,33,1687742,-355,-16185,-1454,33,-94,-31
18,34,1687747,-366,-16234,-1502,34,-97,-31
18,35,1687752,-411,-16263,-1470,33,-97,-30
18,36,1687757,-493,-16282,-1357,28,-91,-28
18,37,1687762,-478,-16349,-1261,28,-86,-27
18,38,1687767,-434,-16420,-1332,30,-75,-30
18,39,1687772,-533,-16407,-1336,29,-56,-31
18,40,1687777,-624,-16389,-1370,27,-45,-32
18,41,1687782,-656,-16436,-1281,24,-32,-35
18,42,1687787,-612,-16522,-1277,20,-18,-36
18,43,1687792,-591,-16489,-1277,21,-4,-35
18,44,1687797,-638,-16495,-1406,21,11,-37
18,45,1687802,-650,-16437,-1401,16,26,-42
18,46,1687807,-620,-16426,-1376,16,35,-40
18,47,1687812,-508,-16438,-1345,16,36,-42
18,48,1687817,-465,-16457,-1327,15,39,-44
18,49,1687822,-419,-16435,-1481,19,34,-44
18,50,1687827,-379,-16415,-1554,21,32,-43
18,51,1687832,-358,-16352,-1495,20,24,-40
18,52,1687837,-287,-16340,-1426,20,10,-42
18,53,1687842,-291,-16325,-1510,20,1,-41
18,54,1687847,-299,-16273,-1662,23,-6,-38
18,55,1687852,-359,-16257,-1773,26,-3,-36
18,56,1687857,-289,-16246,-1902,24,13,-38
18,57,1687862,-257,-16238,-1965,22,44,-39
18,58,1687867,-260,-16211,-1908,21,80,-41
18,59,1687872,-231,-16242,-1843,22,107,-41
18,60,1687877,-147,-16248,-1766,24,125,-42
18,61,1687882,-34,-16260,-1716,22,134,-41
18,62,1687887,-15,-16297,-1655,28,137,-38
18,63,1687892,38,-16284,-1677,30,126,-36
18,64,1687897,123,-16231,-1693,28,103,-33
18,65,1687902,213,-16243,-1572,30,73,-27
18,66,1687907,177,-16275,-1558,35,33,-23
18,67,1687912,182,-16241,-1681,38,-8,-17
18,68,1687917,288,-16272,-1851,43,-43,-10
18,69,1687922,382,-16297,-1949,46,-67,-3
18,70,1687927,397,-16266,-1889,48,-85,0
18,71,1687932,290,-16225,-1931,50,-94,1
18,72,1687937,273,-16235,-2084,54,-99,5
18,73,1687942,207,-16269,-2177,56,-88,10
18,74,1687947,67,-16245,-2144,56,-70,13
18,75,1687952,8,-16249,-2139,58,-55,18
18,76,1687957,27,-16253,-2102,57,-36,18
18,77,1687962,47,-16254,-2028,57,-19,19
18,78,1687967,44,-16275,-1982,58,-1,20
18,79,1687972,-17,-16242,-1852,59,5,24
18,80,1687977,-22,-16282,-1785,63,-3,25
18,81,1687982,100,-16326,-1750,63,-16,29
18,82,1687987,51,-16310,-1680,65,-31,33
18,83,1687992,5,-16305,-1664,66,-47,33
18,84,1687997,-15,-16319,-1659,67,-68,37
18,85,1688002,-9,-16298,-1662,66,-87,43
18,86,1688007,23,-16339,-1702,65,-97,42
18,87,1688012,57,-16411,-1673,66,-98,45
18,88,1688017,5,-16402,-1645,68,-95,47
18,89,1688022,-122,-16407,-1539,66,-96,50
18,90,1688027,-309,-16451,-1483,64,-107,52
18,91,1688032,-429,-16419,-1357,66,-119,51
18,92,1688037,-489,-16422,-1225,67,-134,52
18,93,1688042,-536,-16442,-1206,67,-145,54
18,94,1688047,-491,-16490,-1267,64,-153,53
18,95,1688052,-448,-16496,-1409,62,-153,51
18,96,1688057,-455,-16507,-1346,59,-144,51
18,97,1688062,-411,-16524,-1400,54,-132,49
18,98,1688067,-436,-16500,-1266,53,-109,48
18,99,1688072,-504,-16540,-1261,50,-86,46
18,100,1688077,-451,-16589,-1394,45,-63,41
18,101,1688082,-412,-16560,-1278,40,-35,39
18,102,1688087,-351,-16516,-1204,35,-13,38
18,103,1688092,-309,-16570,-1038,32,1,40
18,104,1688097,-253,-16544,-1016,30,2,38
18,105,1688102,-262,-16468,-1089,25,3,35
18,106,1688107,-307,-16386,-1142,23,1,34
18,107,1688112,-285,-16277,-1122,21,-8,35
18,108,1688117,-227,-16236,-1214,21,-15,33
18,109,1688122,-159,-16217,-1263,20,-14,32
18,110,1688127,-146,-16225,-1354,18,-17,34
18,111,1688132,-169,-16212,-1382,16,-23,32
18,112,1688137,-163,-16181,-1353,17,-30,34
18,113,1688142,-159,-16139,-1319,16,-36,33
18,114,1688147,-156,-16161,-1224,14,-44,32
18,115,1688152,-227,-16179,-1275,16,-58,32
18,116,1688157,-226,-16229,-1315,16,-67,32
18,117,1688162,-221,-16313,-1378,14,-67,30
18,118,1688167,-216,-16356,-1431,10,-60,30
18,119,1688172,-268,-16491,-1469,11,-45,28
18,120,1688177,-438,-16497,-1562,13,-23,25
18,121,1688182,-473,-16550,-1703,10,1,21
18,122,1688187,-377,-16548,-1674,5,30,17
18,123,1688192,-336,-16515,-1570,2,63,15
18,124,1688197,-314,-16442,-1528,-2,87,11
18,125,1688202,-341,-16402,-1552,0,97,9
18,126,1688207,-331,-16332,-1589,3,102,5
18,127,1688212,-78,-16265,-1510,2,103,3
18,128,1688217,-30,-16285,-1543,2,94,2
18,129,1688222,-24,-16311,-1602,5,80,0
18,130,1688227,-19,-16293,-1589,7,62,4
18,131,1688232,24,-16302,-1527,7,41,5
18,132,1688237,11,-16289,-1552,6,18,4
18,133,1688242,-21,-16354,-1525,14,-3,3
18,134,1688247,4,-16421,-1627,18,-23,5
18,135,1688252,21,-16450,-1716,22,-38,6
18,136,1688257,-22,-16498,-1747,23,-42,6
18,137,1688262,-50,-16512,-1726,22,-45,3
18,138,1688267,-78,-16513,-1673,25,-42,-1
18,139,1688272,-103,-16517,-1767,28,-41,1
18,140,1688277,-72,-16600,-1773,30,-32,1
18,141,1688282,5,-16604,-1688,31,-26,2
18,142,1688287,79,-16540,-1601,31,-20,-2
18,143,1688292,34,-16506,-1525,35,-24,-3
18,144,1688297,-29,-16516,-1409,38,-33,-3
18,145,1688302,-34,-16487,-1455,41,-46,-2
18,146,1688307,-92,-16466,-1512,43,-57,-2
18,147,1688312,-126,-16428,-1453,43,-63,-3
18,148,1688317,-195,-16408,-1449,43,-64,-3
18,149,1688322,-207,-16424,-1513,47,-62,-5
18,150,1688327,-73,-16418,-1617,48,-54,-8
18,151,1688332,-35,-16354,-1504,48,-36,-11
18,152,1688337,-187,-16305,-1381,48,-28,-12
18,153,1688342,-271,-16251,-1403,48,-23,-17
18,154,1688347,-234,-16236,-1434,48,-17,-15
18,155,1688352,-98,-16273,-1496,48,-3,-18
18,156,1688357,-59,-16352,-1283,48,12,-18
18,157,1688362,-99,-16406,-1153,46,15,-22
18,158,1688367,-89,-16459,-1168,47,10,-21
18,159,1688372,-124,-16487,-1289,47,6,-22
18,160,1688377,-169,-16455,-1302,49,5,-24
18,161,1688382,-160,-16436,-1257,46,5,-25
18,162,1688387,-90,-16405,-1100,45,-1,-24
18,163,1688392,-65,-16396,-1032,43,-4,-24
18,164,1688397,-68,-16398,-1091,47,-14,-26
18,165,1688402,-134,-16425,-1103,47,-20,-27
18,166,1688407,-286,-16431,-1156,47,-28,-25
18,167,1688412,-363,-16364,-1186,45,-32,-26
18,168,1688417,-420,-16285,-1247,42,-23,-30
18,169,1688422,-416,-16236,-1439,40,-2,-32
18,170,1688427,-350,-16153,-1512,39,28,-35
18,171,1688432,-297,-16152,-1392,38,54,-37
18,172,1688437,-282,-16147,-1304,36,71,-41
18,173,1688442,-255,-16138,-1228,33,77,-44
18,174,1688447,-264,-16049,-1163,33,76,-46
18,175,1688452,-291,-16008,-1057,34,67,-46
18,176,1688457,-301,-15956,-1052,35,48,-45
18,177,1688462,-320,-15939,-1080,37,19,-46
18,178,1688467,-211,-16021,-1138,37,-4,-47
18,179,1688472,-152,-16094,-1247,36,-17,-48
18,180,1688477,-65,-16206,-1339,38,-22,-48
18,181,1688482,30,-16265,-1352,36,-20,-45
18,182,1688487,45,-16322,-1318,35,-17,-42
18,183,1688492,-47,-16352,-1199,35,-17,-42
18,184,1688497,-159,-16344,-1196,31,-20,-42
18,185,1688502,-184,-16330,-1185,32,-22,-43
18,186,1688507,-206,-16351,-1251,32,-22,-42
18,187,1688512,-259,-16390,-1370,34,-17,-41
18,188,1688517,-237,-16407,-1344,30,-7,-44
18,189,1688522,-201,-16380,-1317,30,-2,-46
18,190,1688527,-180,-16402,-1403,27,8,-47
18,191,1688532,-161,-16444,-1330,27,17,-45
18,192,1688537,-114,-16436,-1207,28,21,-47
18,193,1688542,-123,-16465,-1119,26,23,-46
18,194,1688547,-148,-16523,-1060,23,14,-47
18,195,1688552,-113,-16532,-1057,24,-1,-44
18,196,1688557,-116,-16573,-1081,26,-13,-43
18,197,1688562,-71,-16555,-1111,26,-27,-41
18,198,1688567,-67,-16545,-1101,27,-42,-40
18,199,1688572,-145,-16564,-1051,26,-56,-42
18,200,1688577,-208,-16566,-1071,24,-69,-40
18,201,1688582,-88,-16635,-1214,22,-71,-36
18,202,1688587,-34,-16709,-1153,21,-64,-37
18,203,1688592,-173,-16699,-994,18,-52,-39
18,204,1688597,-369,-16721,-1009,15,-47,-39
18,205,1688602,-457,-16766,-1161,15,-37,-41
18,206,1688607,-355,-16749,-1164,10,-10,-42
18,207,1688612,-281,-16728,-1107,6,20,-45
18,208,1688617,-334,-16733,-1050,6,42,-49
18,209,1688622,-391,-16782,-1164,2,60,-51
18,210,1688627,-380,-16818,-1316,1,80,-52
18,211,1688632,-346,-16785,-1240,-1,101,-54
18,212,1688637,-269,-16704,-1002,-6,113,-53
18,213,1688642,-221,-16657,-891,-3,117,-53
18,214,1688647,-187,-16662,-871,-4,108,-53
18,215,1688652,-89,-16662,-845,-6,87,-54
18,216,1688657,-128,-16650,-815,-7,66,-51
18,217,1688662,-97,-16607,-848,-7,40,-49
18,218,1688667,-66,-16574,-931,-6,23,-47
18,219,1688672,-30,-16514,-1090,-4,18,-44
18,220,1688677,-5,-16476,-1147,-9,22,-47
18,221,1688682,8,-16503,-1159,-11,29,-47
18,222,1688687,51,-16483,-1186,-11,37,-45
18,223,1688692,34,-16544,-1243,-11,55,-43
18,224,1688697,57,-16564,-1173,-15,70,-43
18,225,1688702,23,-16531,-1063,-16,72,-43
18,226,1688707,-40,-16464,-1024,-14,73,-40
18,227,1688712,-27,-16415,-1053,-18,67,-41
18,228,1688717,1,-16417,-1057,-16,55,-36
18,229,1688722,-99,-16383,-1069,-17,44,-33
18,230,1688727,-74,-16384,-1140,-16,37,-32
18,231,1688732,-36,-16364,-1221,-17,33,-33
18,232,1688737,-11,-16356,-1232,-19,32,-31
18,233,1688742,19,-16356,-1170,-18,36,-30
18,234,1688747,28,-16369,-1119,-17,31,-29
18,235,1688752,60,-16351,-1147,-18,25,-27
18,236,1688757,76,-16328,-1276,-17,23,-25
18,237,1688762,27,-16283,-1309,-13,21,-23
18,238,1688767,-22,-16235,-1294,-14,18,-24
18,239,1688772,75,-16198,-1314,-16,11,-20
18,240,1688777,161,-16215,-1292,-14,2,-15
18,241,1688782,144,-16236,-1250,-15,-4,-17
18,242,1688787,99,-16244,-1232,-11,-18,-14
18,243,1688792,63,-16273,-1281,-10,-32,-13
18,244,1688797,95,-16256,-1320,-12,-39,-10
18,245,1688802,162,-16242,-1305,-8,-42,-6
18,246,1688807,163,-16230,-1216,-7,-44,-5
18,247,1688812,118,-16312,-1264,-5,-50,-3
18,248,1688817,114,-16332,-1335,-6,-49,-1
18,249,1688822,89,-16306,-1302,-7,-47,-1
18,250,1688827,76,-16308,-1202,-5,-45,0
18,251,1688832,-13,-16324,-1150,-7,-44,-2
18,252,1688837,-114,-16363,-1222,-6,-44,1
18,253,1688842,-125,-16401,-1316,-3,-44,3
18,254,1688847,-158,-16431,-1228,-5,-37,3
18,255,1688852,-123,-16443,-1057,-6,-33,3
18,256,1688857,-180,-16503,-1063,-6,-36,0
18,257,1688862,-156,-16514,-1182,-3,-38,3
18,258,1688867,-170,-16515,-1297,-2,-31,2
18,259,1688872,-113,-16498,-1218,-3,-20,0
18,260,1688877,-120,-16457,-1177,-4,-14,0
18,261,1688882,-108,-16454,-1174,-6,-12,1
18,262,1688887,-63,-16444,-1157,-4,-7,1
18,263,1688892,-118,-16381,-1159,-2,-5,1
18,264,1688897,-110,-16383,-1079,-2,-4,1
18,265,1688902,-52,-16372,-1057,-4,-10,0
18,266,1688907,5,-16400,-1053,-3,-14,0
18,267,1688912,-24,-16446,-1084,-1,-20,-1
18,268,1688917,-30,-16453,-1123,1,-23,1
18,269,1688922,-15,-16474,-1087,-1,-27,2
18,270,1688927,-56,-16463,-1109,-2,-35,0
18,271,1688932,-65,-16446,-1073,0,-43,2
18,272,1688937,-62,-16422,-1139,0,-46,1
18,273,1688942,-101,-16423,-1275,2,-43,3
18,274,1688947,-85,-16368,-1354,2,-34,1
18,275,1688952,-39,-16331,-1283,2,-16,-3
18,276,1688957,-81,-16345,-1231,4,-11,-3
18,277,1688962,-19,-16389,-1221,6,-9,-2
18,278,1688967,-25,-16449,-1216,11,-11,-2
18,279,1688972,-25,-16453,-1192,9,-16,-3
18,280,1688977,60,-16448,-1098,9,-27,-1
18,281,1688982,111,-16418,-1114,9,-35,-2
18,282,1688987,64,-16405,-1138,12,-44,-2
18,283,1688992,44,-16421,-1194,15,-52,1
18,284,1688997,-8,-16477,-1194,18,-55,1
18,285,1689002,-63,-16508,-1171,17,-56,1
18,286,1689007,-42,-16533,-1136,15,-55,2
18,287,1689012,-78,-16535,-1141,14,-47,0
18,288,1689017,-150,-16604,-1214,16,-37,0
18,289,1689022,-94,-16636,-1294,15,-23,-3
18,290,1689027,-10,-16654,-1242,16,-7,-2
18,291,1689032,-5,-16643,-1184,12,10,-5
18,292,1689037,-86,-16650,-1202,13,22,-5
18,293,1689042,-70,-16570,-1292,13,31,-6
18,294,1689047,-57,-16532,-1384,14,40,-11
18,295,1689052,-22,-16502,-1312,13,47,-10
18,296,1689057,25,-16495,-1247,17,48,-10
18,297,1689062,72,-16469,-1217,21,40,-8
18,298,1689067,67,-16419,-1286,19,32,-8
18,299,1689072,100,-16401,-1240,21,22,-9
18,300,1689077,75,-16393,-1105,23,7,-6
18,301,1689082,10,-16361,-1005,24,-8,-6
18,302,1689087,-46,-16364,-1031,25,-29,-8
18,303,1689092,-17,-16382,-1074,27,-43,-5
18,304,1689097,-72,-16414,-1071,28,-47,-5
18,305,1689102,-104,-16376,-1051,26,-51,-7
18,306,1689107,-114,-16297,-1128,25,-52,-7
18,307,1689112,-103,-16332,-1276,29,-46,-6
18,308,1689117,-69,-16324,-1274,25,-31,-8
18,309,1689122,-69,-16298,-1161,22,-16,-12
18,310,1689127,-110,-16249,-1057,24,-6,-11
18,311,1689132,-113,-16256,-1213,22,-3,-13
18,312,1689137,-20,-16361,-1197,22,7,-13
18,313,1689142,-48,-16399,-1072,21,14,-12
18,314,1689147,-45,-16385,-1050,19,16,-15
18,315,1689152,2,-16396,-1197,23,15,-15
18,316,1689157,107,-16376,-1276,24,22,-13
18,317,1689162,170,-16443,-1246,20,33,-13
18,318,1689167,204,-16460,-1157,20,36,-15
18,319,1689172,184,-16470,-1201,22,30,-16
18,320,1689177,133,-16431,-1218,25,18,-12
18,321,1689182,135,-16455,-1085,24,11,-12
18,322,1689187,50,-16394,-954,21,1,-9
18,323,1689192,41,-16349,-994,23,-20,-9
18,324,1689197,39,-16351,-1042,25,-35,-9
18,325,1689202,56,-16433,-1149,25,-39,-9
18,326,1689207,35,-16456,-1098,24,-38,-8
18,327,1689212,-5,-16445,-1065,24,-38,-9
18,328,1689217,-90,-16465,-1041,25,-35,-8
18,329,1689222,-159,-16470,-1186,24,-29,-9
18,330,1689227,-155,-16455,-1228,24,-19,-9
18,331,1689232,-72,-16498,-1201,20,-3,-12
18,332,1689237,-19,-16459,-1133,16,9,-13
18,333,1689242,-50,-16421,-1176,13,16,-14
18,334,1689247,-35,-16372,-1230,13,22,-15
18,335,1689252,87,-16362,-1322,17,31,-17
18,336,1689257,212,-16382,-1218,13,40,-17
18,337,1689262,229,-16383,-1063,12,41,-14
18,338,1689267,169,-16334,-968,13,27,-11
18,339,1689272,63,-16301,-1000,16,6,-12
18,340,1689277,67,-16315,-1138,18,-11,-8
18,341,1689282,60,-16340,-1165,17,-20,-10
18,342,1689287,85,-16371,-1081,14,-29,-11
18,343,1689292,35,-16369,-1033,16,-38,-8
18,344,1689297,-7,-16398,-1153,14,-39,-4
18,345,1689302,-85,-16433,-1230,14,-35,-6
18,346,1689307,-95,-16458,-1238,13,-23,-7
18,347,1689312,-54,-16492,-1200,11,-6,-9
18,348,1689317,-24,-16550,-1128,11,8,-7
18,349,1689322,-107,-16568,-1053,11,20,-10
18,350,1689327,-102,-16607,-984,9,19,-9
18,351,1689332,-83,-16623,-953,8,12,-10
18,352,1689337,-41,-16609,-854,6,-1,-10
18,353,1689342,17,-16581,-872,3,-13,-7
18,354,1689347,27,-16506,-946,4,-31,-5
18,355,1689352,-50,-16427,-991,4,-51,-7
18,356,1689357,44,-16277,-1028,7,-70,-5
18,357,1689362,69,-16277,-1090,9,-90,-1
18,358,1689367,65,-16258,-1123,10,-98,1
18,359,1689372,30,-16237,-1203,8,-100,-1
18,360,1689377,-32,-16261,-1321,7,-98,-1
18,361,1689382,-10,-16263,-1368,7,-95,1
18,362,1689387,42,-16318,-1341,8,-80,1
18,363,1689392,-33,-16331,-1234,5,-59,1
18,364,1689397,-68,-16326,-1159,0,-44,-1
18,365,1689402,-82,-16346,-1258,2,-30,-4
18,366,1689407,-49,-16425,-1434,2,-10,-1
18,367,1689412,77,-16508,-1302,0,11,0
18,368,1689417,197,-16552,-1162,-3,27,1
18,369,1689422,171,-16580,-1182,-6,35,-1
18,370,1689427,182,-16596,-1151,-4,32,0
18,371,1689432,145,-16565,-1164,1,26,1
18,372,1689437,127,-16604,-1015,-2,16,3
18,373,1689442,139,-16623,-844,-3,-1,7
18,374,1689447,122,-16597,-855,-2,-23,6
18,375,1689452,21,-16613,-933,2,-45,5
18,376,1689457,-71,-16591,-1001,2,-63,9
18,377,1689462,-77,-16552,-1037,1,-77,9
18,378,1689467,-31,-16505,-1058,1,-81,10
18,379,1689472,-158,-16420,-1074,-1,-72,8
18,380,1689477,-232,-16384,-1223,-1,-63,4
18,381,1689482,-288,-16375,-1317,0,-53,2
18,382,1689487,-260,-16397,-1298,1,-37,3
18,383,1689492,-117,-16418,-1227,-3,-16,2
18,384,1689497,-41,-16447,-1214,-6,7,-4
18,385,1689502,-11,-16437,-1229,-8,21,-6
18,386,1689507,-21,-16429,-1236,-7,25,-5
18,387,1689512,62,-16412,-1192,-8,23,-4
18,388,1689517,92,-16364,-1069,-6,15,-4
18,389,1689522,160,-16333,-969,-5,5,-4
18,390,1689527,164,-16315,-941,-8,-11,-3
18,391,1689532,100,-16282,-994,-5,-35,-3
18,392,1689537,75,-16281,-1033,-5,-56,2
18,393,1689542,41,-16237,-1001,-6,-71,2
18,394,1689547,-40,-16282,-1011,-4,-81,3
18,395,1689552,-81,-16323,-1148,-3,-89,0
18,396,1689557,-55,-16356,-1264,-4,-86,1
18,397,1689562,-26,-16428,-1329,-5,-69,4
18,398,1689567,-94,-16461,-1281,-5,-48,1
18,399,1689572,-121,-16513,-1223,-8,-27,-2
18,400,1689577,-61,-16524,-1207,-13,-8,-2
18,401,1689582,-64,-16540,-1105,-14,8,-5
18,402,1689587,18,-16532,-1048,-14,22,-4
18,403,1689592,40,-16538,-1009,-12,26,-4
18,404,1689597,122,-16585,-1069,-19,25,-5
18,405,1689602,184,-16607,-1044,-19,17,-2
18,406,1689607,280,-16671,-895,-18,3,2
18,407,1689612,324,-16665,-789,-20,-25,5
18,408,1689617,283,-16654,-673,-19,-61,9
18,409,1689622,224,-16568,-693,-19,-106,16
18,410,1689627,70,-16451,-842,-17,-147,22
18,411,1689632,-25,-16361,-972,-15,-179,25
18,412,1689637,-93,-16302,-1184,-15,-200,29
18,413,1689642,-114,-16264,-1219,-19,-206,31
18,414,1689647,-216,-16275,-1239,-24,-201,33
18,415,1689652,-413,-16343,-1456,-23,-183,36
18,416,1689657,-323,-16370,-1835,-24,-149,42
18,417,1689662,56,-16309,-1852,-30,-89,43
18,418,1689667,24,-16313,-1494,-38,-31,44
18,419,1689672,-226,-16377,-1260,-44,-8,48
18,420,1689677,-241,-16370,-1313,-46,-4,52
18,421,1689682,44,-16435,-1388,-46,7,61
18,422,1689687,7,-16221,-346,-58,-8,76
18,423,1689692,-128,-16172,-480,-57,-68,84
18,424,1689697,-122,-16101,-1051,-57,-113,97
18,425,1689702,-64,-16043,-1410,-60,-121,108
18,426,1689707,-49,-16045,-1322,-63,-113,116
18,427,1689712,11,-16029,-1217,-68,-111,126
18,428,1689717,126,-16074,-1377,-70,-116,133
18,429,1689722,-110,-16169,-1280,-77,-116,142
18,430,1689727,-619,-16218,-1022,-81,-124,151
18,431,1689732,-808,-16189,-1023,-83,-147,165
18,432,1689737,-630,-16205,-1326,-83,-157,179
18,433,1689742,-635,-16231,-1282,-87,-145,188
18,434,1689747,-1013,-16206,-983,-92,-146,189
18,435,1689752,-1094,-16213,-1149,-94,-166,200
18,436,1689757,-830,-16269,-1627,-98,-170,211
18,437,1689762,-702,-16341,-1931,-102,-137,217
18,438,1689767,-728,-16427,-1828,-107,-93,223
18,439,1689772,-640,-16414,-1600,-109,-68,232
18,440,1689777,-430,-16467,-1552,-111,-64,241
18,441,1689782,-412,-16540,-1596,-114,-56,247
18,442,1689787,-671,-16563,-1530,-119,-52,258
18,443,1689792,-754,-16490,-1372,-117,-62,270
18,444,1689797,-643,-16427,-1197,-122,-83,277
18,445,1689802,-668,-16360,-1049,-124,-108,286
18,446,1689807,-941,-16354,-1300,-123,-132,295
18,447,1689812,-1046,-16346,-1479,-122,-155,307
18,448,1689817,-817,-16303,-1707,-124,-167,318
18,449,1689822,-755,-16336,-1495,-128,-162,326
18,450,1689827,-973,-16384,-1283,-130,-167,333
18,451,1689832,-1107,-16400,-1528,-128,-178,339
18,452,1689837,-1063,-16465,-1758,-127,-177,346
18,453,1689842,-1021,-16448,-1719,-131,-161,353
18,454,1689847,-1101,-16486,-1631,-137,-146,353
18,455,1689852,-1285,-16417,-1653,-134,-135,357
18,456,1689857,-1333,-16519,-1824,-129,-124,363
18,457,1689862,-1291,-16645,-2163,-129,-110,367
18,458,1689867,-1288,-16689,-1925,-130,-86,370
18,459,1689872,-1439,-16634,-1423,-132,-85,372
18,460,1689877,-1512,-16578,-1319,-133,-102,376
18,461,1689882,-1521,-16553,-1453,-129,-125,380
18,462,1689887,-1510,-16461,-1482,-124,-135,384
18,463,1689892,-1336,-16414,-1450,-119,-143,385
18,464,1689897,-1298,-16338,-1499,-122,-153,382
18,465,1689902,-1235,-16296,-1623,-120,-157,384
18,466,1689907,-1304,-16246,-1746,-116,-146,384
18,467,1689912,-1494,-16165,-1784,-117,-126,380
18,468,1689917,-1542,-16090,-1979,-114,-106,379
18,469,1689922,-1373,-16083,-1913,-111,-69,377
18,470,1689927,-1261,-16044,-2011,-107,-41,373
18,471,1689932,-1263,-16011,-1891,-106,-12,367
18,472,1689937,-1244,-16113,-1899,-103,11,363
18,473,1689942,-1090,-16227,-1961,-99,29,361
18,474,1689947,-887,-16314,-1819,-94,50,359
18,475,1689952,-1034,-16437,-1430,-93,60,356
18,476,1689957,-1431,-16590,-1183,-87,41,351
18,477,1689962,-1523,-16733,-1198,-80,13,350
18,478,1689967,-1339,-16707,-1065,-80,-9,348
18,479,1689972,-1255,-16662,-784,-78,-29,342
18,480,1689977,-1380,-16595,-815,-71,-61,331
18,481,1689982,-1548,-16501,-1260,-61,-98,324
18,482,1689987,-1456,-16400,-1824,-55,-117,323
18,483,1689992,-1292,-16288,-1895,-52,-105,314
18,484,1689997,-1350,-16148,-1672,-55,-80,300
18,485,1690002,-1424,-16167,-1634,-48,-66,290
18,486,1690007,-1425,-16253,-2018,-37,-51,279
18,487,1690012,-1341,-16280,-1995,-31,-23,276
18,488,1690017,-1470,-16368,-1608,-30,3,266
18,489,1690022,-1597,-16501,-1331,-28,2,259
18,490,1690027,-1433,-16509,-1410,-22,-6,253
18,491,1690032,-1239,-16426,-1475,-17,7,240
18,492,1690037,-1352,-16350,-1335,-12,17,226
18,493,1690042,-1480,-16276,-1314,-7,4,219
18,494,1690047,-1380,-16238,-1542,-2,-13,211
18,495,1690052,-1234,-16184,-1633,0,-13,200
18,496,1690057,-1514,-16056,-1497,14,14,175
18,497,1690062,-1432,-16117,-1767,22,18,171
18,498,1690067,-1324,-16227,-1820,23,36,163
18,499,1690072,-1422,-16278,-1552,25,54,148
18,500,1690077,-1559,-16341,-1206,32,46,138
18,501,1690082,-1496,-16417,-1231,37,18,131
18,502,1690087,-1406,-16536,-1377,45,1,125
18,503,1690092,-1427,-16527,-1210,52,-15,116
18,504,1690097,-1471,-16418,-1015,54,-41,105
18,505,1690102,-1527,-16306,-1185,60,-77,99
18,506,1690107,-1462,-16253,-1568,68,-102,91
18,507,1690112,-1417,-16173,-1694,76,-102,80
18,508,1690117,-1570,-16103,-1618,78,-90,68
18,509,1690122,-1676,-16098,-1570,82,-80,57
18,510,1690127,-1668,-16040,-1688,86,-69,48
18,511,1690132,-1677,-15989,-1697,88,-44,31
18,512,1690137,-1780,-15964,-1538,90,-16,17
18,513,1690142,-1767,-15959,-1438,95,2,8
18,514,1690147,-1729,-15981,-1550,100,14,-5
18,515,1690152,-1767,-16041,-1682,104,38,-21
18,516,1690157,-1684,-16115,-1647,106,57,-35
18,517,1690162,-1637,-16276,-1579,112,74,-44
18,518,1690167,-1522,-16518,-1452,116,91,-52
18,519,1690172,-1376,-16637,-1268,118,99,-66
18,520,1690177,-1347,-16641,-1035,118,97,-77
18,521,1690182,-1443,-16589,-902,122,77,-88
18,522,1690187,-1414,-16562,-1036,126,50,-97
18,523,1690192,-1424,-16482,-1169,131,25,-108
18,524,1690197,-1384,-16361,-1135,133,4,-120
18,525,1690202,-1406,-16265,-1128,142,-17,-131
18,526,1690207,-1398,-16193,-1204,145,-36,-147
18,527,1690212,-1307,-16194,-1331,147,-40,-156
18,528,1690217,-1309,-16106,-1389,151,-33,-167
18,529,1690222,-1364,-15937,-1424,153,-23,-185
18,530,1690227,-1347,-15893,-1633,161,-7,-199
18,531,1690232,-1348,-15912,-1837,165,22,-216
18,532,1690237,-1477,-16117,-1883,169,59,-232
18,533,1690242,-1617,-16470,-1749,170,93,-248
18,534,1690247,-1443,-16647,-1542,169,119,-262
18,535,1690252,-1225,-16670,-1246,167,139,-278
18,536,1690257,-1156,-16658,-936,170,145,-297
18,537,1690262,-1265,-16637,-903,177,123,-311
18,538,1690267,-1197,-16598,-947,186,78,-321
18,539,1690272,-711,-16370,-1002,190,27,-336
18,540,1690277,-302,-16247,-890,195,-24,-347
18,541,1690282,-668,-16252,-740,202,-86,-358
18,542,1690287,-862,-16193,-1146,213,-168,-372
18,543,1690292,-614,-16159,-1501,221,-228,-382
18,544,1690297,-537,-16092,-1441,224,-253,-394
18,545,1690302,-787,-16221,-1005,228,-265,-410
18,546,1690307,-1333,-16576,-946,234,-292,-429
18,547,1690312,-1610,-16903,-1162,238,-308,-441
18,548,1690317,-1467,-16950,-1395,233,-277,-455
18,549,1690322,-1339,-16853,-1243,222,-203,-481
18,550,1690327,-1621,-16756,-1087,216,-108,-513
18,551,1690332,-1678,-16757,-1414,215,-29,-536
18,552,1690337,-1237,-16628,-1802,211,61,-555
18,553,1690342,-869,-16483,-1411,202,167,-580
18,554,1690347,-942,-16271,-790,194,233,-605
18,555,1690352,-931,-16079,-640,194,253,-628
18,556,1690357,-683,-15958,-1079,198,249,-643
18,557,1690362,-436,-16020,-1207,204,249,-659
18,558,1690367,-332,-16044,-849,203,236,-671
18,559,1690372,-127,-16147,-538,206,188,-683
18,560,1690377,147,-16161,-556,213,131,-693
18,561,1690382,322,-16159,-628,218,76,-702
18,562,1690387,350,-16139,-616,222,29,-714
18,563,1690392,263,-16085,-537,222,-16,-724
18,564,1690397,131,-16106,-705,223,-56,-739
18,565,1690402,62,-16211,-1086,224,-71,-749
18,566,1690407,54,-16364,-1403,223,-58,-758
18,567,1690412,74,-16385,-1253,217,-24,-771
18,568,1690417,167,-16494,-929,210,18,-785
18,569,1690422,165,-16583,-885,208,51,-796
18,570,1690427,423,-16439,-999,200,125,-822
18,571,1690432,415,-16350,-756,195,145,-831
18,572,1690437,428,-16281,-652,194,144,-840
18,573,1690442,633,-16239,-640,195,132,-843
18,574,1690447,780,-16139,-653,196,111,-846
18,575,1690452,805,-16052,-531,193,78,-856
18,576,1690457,807,-15987,-567,195,28,-859
18,577,1690462,1022,-15910,-711,196,-24,-861
18,578,1690467,1206,-15926,-817,195,-61,-861
18,579,1690472,1185,-15996,-660,194,-90,-864
18,580,1690477,1164,-16277,-637,194,-122,-861
18,581,1690482,1191,-16732,-741,189,-141,-856
18,582,1690487,1208,-16928,-969,188,-142,-853
18,583,1690492,1143,-17074,-959,178,-109,-854
18,584,1690497,1118,-17076,-902,168,-66,-856
18,585,1690502,1126,-17090,-874,160,-10,-856
18,586,1690507,1084,-17036,-874,151,40,-854
18,587,1690512,967,-16935,-800,146,92,-853
18,588,1690517,1031,-16823,-598,139,131,-853
18,589,1690522,1051,-16721,-741,129,157,-853
18,590,1690527,954,-16533,-612,118,185,-855
18,591,1690532,1023,-16487,-542,116,188,-849
18,592,1690537,1266,-16449,-461,115,187,-841
18,593,1690542,1522,-16438,-317,110,172,-833
18,594,1690547,1602,-16509,-169,107,136,-827
18,595,1690552,1616,-16618,-278,104,89,-816
18,596,1690557,1667,-16725,-362,103,39,-800
18,597,1690562,1736,-16781,-246,102,-9,-785
18,598,1690567,1635,-16561,-149,96,-55,-771
18,599,1690572,9425,-17957,-6744,84,-97,-771
18,600,1690577,-11034,-19543,9919,59,365,-818
18,601,1690600,-26466,-12796,29655,-78,247,-29
18,602,1690601,-26466,-12796,29655,-78,247,-29
18,603,1690603,-26466,-12796,29655,-78,247,-29
18,604,1690604,-26466,-12796,29655,-78,247,-29
18,605,1690605,-17662,-16070,-17057,289,-3232,602
18,606,1690607,-17662,-16070,-17057,289,-3232,602
18,607,1690612,18210,-20353,-32140,231,-2969,955
18,608,1690617,20881,-16503,-3778,-165,-723,436
18,609,1690622,-10561,-12643,19439,-232,361,44
18,610,1690627,-17846,-14786,3176,-62,-423,305
18,611,1690632,4947,-18660,-20265,127,-644,728
18,612,1690637,15740,-18817,-10298,20,375,563
18,613,1690642,-1020,-14601,11561,-229,999,136
18,614,1690647,-13613,-14442,10717,-231,440,190
18,615,1690652,-489,-18036,-6968,-44,-69,529
18,616,1690657,12501,-19143,-9826,18,303,563
18,617,1690662,4570,-16846,5228,-128,724,274
18,618,1690667,-8994,-15070,12293,-195,280,199
18,619,1690672,-3606,-17044,-1558,-97,-501,427
18,620,1690677,8726,-18338,-9925,-6,-425,540
18,621,1690682,6534,-17263,-2233,-74,154,373
18,622,1690687,-3872,-15467,8047,-149,297,242
18,623,1690692,-4069,-16283,1553,-105,-243,360
18,624,1690697,4809,-17653,-8431,-31,-382,472
18,625,1690702,6432,-17127,-4720,-58,103,385
18,626,1690707,-459,-15802,3385,-131,405,265
18,627,1690712,-2830,-15990,2825,-123,200,302
18,628,1690717,2292,-16793,-4261,-57,4,402
18,629,1690722,5393,-16980,-4141,-42,202,387
18,630,1690727,1785,-15940,1900,-101,387,294
18,631,1690732,-1214,-15696,3593,-114,184,290
18,632,1690737,1258,-16228,-1825,-65,-98,362
18,633,1690742,4130,-16663,-3867,-31,-29,379
18,634,1690747,2749,-16173,-324,-66,168,322
18,635,1690752,76,-15830,2067,-88,108,296
18,636,1690757,466,-16003,-148,-67,-97,331
18,637,1690762,2676,-16330,-3121,-38,-108,359
18,638,1690767,2780,-16170,-2108,-53,89,326
18,639,1690772,741,-15844,945,-68,184,290
18,640,1690777,105,-15854,918,-61,53,300
18,641,1690782,1556,-16197,-1839,-50,-47,324
18,642,1690787,2231,-16301,-2087,-51,51,308
18,643,1690792,40,-15907,1132,-57,84,277
18,644,1690797,680,-16219,-629,-37,-40,291
18,645,1690802,1534,-16378,-1852,-40,-34,286
18,646,1690807,1021,-16334,-494,-53,57,261
18,647,1690812,111,-16229,745,-55,58,245
18,648,1690817,415,-16410,-233,-45,-14,252
18,649,1690822,1349,-16658,-1312,-39,-8,249
18,650,1690827,1243,-16698,-994,-47,55,231
18,651,1690832,402,-16522,709,-58,90,209
18,652,1690837,136,-16527,503,-49,18,211
18,653,1690842,704,-16677,-828,-45,-29,214
18,654,1690847,936,-16705,-853,-47,12,200
18,655,1690852,472,-16656,-83,-52,33,182
18,656,1690857,131,-16625,180,-50,-1,175
18,657,1690862,566,-16686,-841,-45,-41,173
18,658,1690867,846,-16802,-1259,-46,-15,163
18,659,1690872,515,-16721,-678,-50,37,147
18,660,1690877,180,-16618,-267,-53,39,139
18,661,1690882,387,-16631,-651,-51,15,131
18,662,1690887,664,-16638,-1168,-48,30,124
18,663,1690892,495,-16556,-863,-50,73,109
18,664,1690897,117,-16461,-260,-57,86,97
18,665,1690902,164,-16396,-545,-58,61,89
18,666,1690907,472,-16394,-1176,-53,67,82
18,667,1690912,569,-16372,-1056,-56,102,70
18,668,1690917,416,-16345,-517,-60,125,57
18,669,1690922,430,-16343,-340,-64,102,50
18,670,1690927,646,-16338,-697,-61,74,47
18,671,1690932,619,-16392,-866,-60,71,37
18,672,1690937,356,-16349,-719,-61,71,27
18,673,1690942,376,-16292,-583,-64,53,22
18,674,1690947,645,-16304,-831,-64,33,21
18,675,1690952,861,-16387,-1059,-63,40,15
18,676,1690957,725,-16400,-1072,-59,49,5
18,677,1690962,646,-16361,-1001,-57,54,-2
18,678,1690967,709,-16304,-955,-61,50,-4
18,679,1690972,815,-16293,-945,-62,46,-7
18,680,1690977,848,-16317,-865,-62,55,-14
18,681,1690982,686,-16310,-836,-59,58,-21
18,682,1690987,517,-16330,-936,-58,51,-24
18,683,1690992,564,-16361,-972,-57,37,-27
18,684,1690997,712,-16384,-957,-60,33,-28
18,685,1691002,698,-16479,-904,-58,47,-36
18,686,1691007,608,-16660,-1021,-58,61,-40
18,687,1691012,603,-16749,-1044,-57,67,-41
18,688,1691017,700,-16777,-878,-59,71,-45
18,689,1691022,713,-16784,-718,-64,78,-47
18,690,1691027,517,-16756,-726,-70,84,-49
18,691,1691032,430,-16785,-917,-66,89,-56
18,692,1691037,570,-16758,-992,-69,94,-57
18,693,1691042,812,-16690,-821,-75,97,-58
18,694,1691047,764,-16645,-605,-76,88,-61
18,695,1691052,594,-16552,-599,-75,66,-64
18,696,1691057,546,-16551,-845,-72,40,-65
18,697,1691062,621,-16503,-916,-71,23,-63
18,698,1691067,700,-16431,-805,-73,10,-63
18,699,1691072,634,-16326,-727,-73,-11,-65
18,700,1691077,498,-16353,-873,-73,-33,-63
18,701,1691082,422,-16401,-1113,-73,-41,-63
18,702,1691087,403,-16394,-1175,-73,-36,-64
18,703,1691092,285,-16393,-1115,-76,-26,-67
18,704,1691097,166,-16380,-1134,-77,-13,-69
18,705,1691102,95,-16380,-1230,-80,7,-73
18,706,1691107,59,-16379,-1250,-81,37,-76
18,707,1691112,77,-16403,-1122,-84,65,-81
18,708,1691117,69,-16401,-887,-86,82,-84
18,709,1691122,132,-16413,-844,-88,90,-86
18,710,1691127,192,-16414,-955,-88,93,-87
18,711,1691132,203,-16427,-926,-87,96,-89
18,712,1691137,243,-16409,-793,-89,90,-94
18,713,1691142,399,-16373,-768,-94,74,-91
18,714,1691147,552,-16404,-717,-94,54,-88
18,715,1691152,513,-16415,-794,-91,33,-88
18,716,1691157,532,-16367,-923,-89,12,-88
18,717,1691162,572,-16247,-1049,-90,-21,-84
18,718,1691167,674,-16244,-1131,-88,-25,-84
18,719,1691172,695,-16365,-1186,-86,-23,-84
18,720,1691177,533,-16505,-1284,-84,-15,-80
18,721,1691182,446,-16560,-1306,-84,-10,-79
18,722,1691187,608,-16492,-1085,-86,-4,-81
18,723,1691192,619,-16395,-862,-91,-6,-78
18,724,1691197,481,-16338,-824,-87,-16,-75
18,725,1691202,465,-16271,-1025,-80,-31,-78
18,726,1691207,559,-16169,-1318,-81,-38,-74
18,727,1691212,574,-16123,-1270,-81,-38,-73
18,728,1691217,621,-16228,-1027,-82,-37,-71
18,729,1691222,668,-16369,-1008,-81,-38,-70
18,730,1691227,500,-16622,-1037,-78,-35,-66
18,731,1691232,301,-16730,-1100,-77,-32,-63
18,732,1691237,283,-16690,-1135,-84,-31,-62
18,733,1691242,385,-16586,-1233,-83,-19,-58
18,734,1691247,358,-16476,-1146,-87,7,-64
18,735,1691252,304,-16369,-993,-88,24,-64
18,736,1691257,344,-16271,-1122,-87,26,-63
18,737,1691262,336,-16229,-1232,-83,29,-61
18,738,1691267,425,-16093,-1184,-84,35,-62
18,739,1691272,448,-16074,-1110,-85,38,-62
18,740,1691277,478,-16174,-1140,-85,40,-58
18,741,1691282,674,-16378,-1208,-83,38,-56
18,742,1691287,752,-16535,-1110,-82,35,-52
18,743,1691292,556,-16538,-925,-84,25,-52
18,744,1691297,381,-16456,-986,-84,5,-49
18,745,1691302,382,-16435,-1204,-79,-13,-44
18,746,1691307,551,-16354,-1208,-75,-21,-45
18,747,1691312,564,-16276,-1081,-74,-26,-43
18,748,1691317,511,-16279,-1097,-73,-42,-41
18,749,1691322,576,-16322,-1231,-73,-56,-38
18,750,1691327,637,-16419,-1408,-69,-58,-31
18,751,1691332,620,-16417,-1335,-67,-52,-31
18,752,1691337,626,-16316,-1209,-70,-44,-29
18,753,1691342,559,-16333,-1316,-67,-40,-28
18,754,1691347,495,-16330,-1443,-63,-33,-28
18,755,1691352,477,-16282,-1379,-64,-20,-25
18,756,1691357,455,-16349,-1236,-62,-13,-22
18,757,1691362,425,-16388,-1172,-62,-10,-22
18,758,1691367,432,-16430,-1179,-61,-10,-22
18,759,1691372,375,-16414,-1232,-58,-13,-20
18,760,1691377,406,-16423,-1233,-57,-19,-20
18,761,1691382,484,-16366,-1171,-56,-25,-17
18,762,1691387,541,-16337,-1202,-54,-32,-17
18,763,1691392,512,-16387,-1278,-51,-34,-12
18,764,1691397,519,-16386,-1307,-50,-29,-10
18,765,1691402,541,-16374,-1331,-48,-31,-8
18,766,1691407,514,-16405,-1374,-45,-29,-6
18,767,1691412,518,-16354,-1262,-45,-27,-4
18,768,1691417,469,-16357,-1193,-44,-33,-4
18,769,1691422,447,-16325,-1262,-40,-45,-3
18,770,1691427,499,-16346,-1265,-34,-50,-1
18,771,1691432,617,-16353,-1290,-34,-54,3
18,772,1691437,637,-16378,-1332,-32,-54,4
18,773,1691442,625,-16397,-1242,-31,-55,7
18,774,1691447,597,-16443,-1329,-30,-57,11
18,775,1691452,576,-16448,-1404,-26,-54,11
18,776,1691457,556,-16449,-1417,-25,-44,13
18,777,1691462,554,-16447,-1405,-23,-30,14
18,778,1691467,554,-16413,-1396,-24,-15,17
18,779,1691472,506,-16440,-1382,-23,-3,19
18,780,1691477,600,-16420,-1436,-18,4,17
18,781,1691482,627,-16336,-1298,-20,11,21
18,782,1691487,605,-16324,-1220,-17,9,23
18,783,1691492,568,-16323,-1286,-14,0,27
18,784,1691497,503,-16329,-1405,-11,-8,29
18,785,1691502,539,-16295,-1344,-10,-16,30
18,786,1691507,498,-16274,-1209,-8,-25,33
18,787,1691512,560,-16287,-1142,-6,-34,33
18,788,1691517,595,-16302,-1176,-3,-45,37
18,789,1691522,501,-16338,-1285,3,-53,39
18,790,1691527,487,-16313,-1307,5,-58,41
18,791,1691532,507,-16286,-1309,6,-51,42
18,792,1691537,466,-16318,-1300,8,-43,44
18,793,1691542,387,-16381,-1361,11,-29,43
18,794,1691547,329,-16425,-1416,10,-14,46
18,795,1691552,363,-16412,-1348,9,-2,46
18,796,1691557,413,-16362,-1270,7,9,44
18,797,1691562,400,-16339,-1275,11,20,44
18,798,1691567,325,-16247,-1279,14,24,47
18,799,1691572,281,-16327,-1316,16,24,48
18,800,1691577,355,-16376,-1378,13,24,48
18,801,1691582,386,-16368,-1321,16,27,50
18,802,1691587,334,-16299,-1191,16,29,47
18,803,1691592,235,-16270,-1170,17,25,49
18,804,1691597,236,-16241,-1244,20,18,50
18,805,1691602,300,-16186,-1254,20,13,48
18,806,1691607,404,-16170,-1196,25,9,52
18,807,1691612,401,-16214,-1126,23,9,48
18,808,1691617,383,-16245,-1231,27,3,47
18,809,1691622,355,-16271,-1318,30,0,50
18,810,1691627,391,-16315,-1346,30,-1,52
18,811,1691632,465,-16340,-1315,32,4,52
18,812,1691637,488,-16387,-1323,35,6,52
18,813,1691642,532,-16384,-1337,35,9,53
18,814,1691647,583,-16345,-1287,34,10,55
18,815,1691652,588,-16333,-1161,35,3,59
18,816,1691657,508,-16358,-1148,39,-10,59
18,817,1691662,393,-16337,-1251,40,-21,59
18,818,1691667,413,-16314,-1464,42,-25,60
18,819,1691672,437,-16266,-1605,45,-20,58
18,820,1691677,527,-16263,-1456,45,-8,59
18,821,1691682,623,-16310,-1396,45,3,60
18,822,1691687,596,-16358,-1416,46,12,60
18,823,1691692,473,-16345,-1369,49,17,61
18,824,1691697,412,-16389,-1276,51,13,63
18,825,1691702,474,-16432,-1192,53,9,65
18,826,1691707,439,-16409,-1115,55,0,62
18,827,1691712,464,-16496,-1114,55,-9,61
18,828,1691717,456,-16551,-1196,60,-17,65
18,829,1691722,460,-16611,-1248,62,-26,67
18,830,1691727,480,-16580,-1297,61,-28,69
18,831,1691732,466,-16530,-1282,60,-19,67
18,832,1691737,378,-16499,-1316,60,-11,69
18,833,1691742,314,-16537,-1329,61,-10,64
18,834,1691747,341,-16507,-1264,61,-10,63
18,835,1691752,383,-16484,-1146,62,-8,65
18,836,1691757,366,-16465,-1075,63,-11,61
18,837,1691762,366,-16475,-1085,65,-17,62
18,838,1691767,336,-16472,-1152,67,-21,64
18,839,1691772,364,-16428,-1154,66,-21,65
18,840,1691777,398,-16429,-1138,66,-24,62
18,841,1691782,286,-16405,-1203,65,-27,60
18,842,1691787,261,-16374,-1230,67,-27,63
18,843,1691792,271,-16403,-1238,69,-24,63
18,844,1691797,295,-16383,-1215,70,-17,59
18,845,1691802,301,-16335,-1175,66,-13,59
18,846,1691807,345,-16356,-1268,66,-9,59
18,847,1691812,353,-16344,-1348,68,0,58
18,848,1691817,349,-16356,-1223,68,6,58
18,849,1691822,274,-16344,-1156,67,2,58
18,850,1691827,217,-16354,-1191,67,-5,57
18,851,1691832,197,-16359,-1179,66,-8,55
18,852,1691837,176,-16385,-1141,68,-10,54
18,853,1691842,126,-16397,-1157,67,-13,54
18,854,1691847,51,-16389,-1188,65,-12,53
18,855,1691852,17,-16432,-1258,69,-8,52
18,856,1691857,82,-16423,-1298,65,6,47
18,857,1691862,48,-16476,-1179,60,24,43
18,858,1691867,28,-16506,-1119,59,41,40
18,859,1691872,78,-16551,-1148,57,47,38
18,860,1691877,62,-16609,-1065,58,56,38
18,861,1691882,82,-16611,-1017,57,64,35
18,862,1691887,141,-16595,-989,52,66,33
18,863,1691892,108,-16601,-999,52,63,31
18,864,1691897,158,-16523,-1005,54,54,31
18,865,1691902,332,-16504,-1019,52,38,31
18,866,1691907,315,-16499,-902,51,26,32
18,867,1691912,257,-16479,-945,53,7,28
18,868,1691917,225,-16452,-1186,51,0,31
18,869,1691922,252,-16413,-1350,51,6,31
18,870,1691927,302,-16426,-1249,50,19,26
18,871,1691932,287,-16373,-1174,48,25,24
18,872,1691937,265,-16372,-1229,46,31,23
18,873,1691942,312,-16365,-1293,46,37,22
18,874,1691947,289,-16322,-1257,44,46,18
18,875,1691952,192,-16357,-1099,43,49,22
18,876,1691957,233,-16367,-1124,42,42,23
18,877,1691962,373,-16444,-1140,39,45,20
18,878,1691967,386,-16456,-1076,41,50,22
18,879,1691972,397,-16452,-928,39,45,19
18,880,1691977,345,-16460,-903,38,25,18
18,881,1691982,317,-16477,-963,35,8,23
18,882,1691987,323,-16503,-1083,34,-3,23
18,883,1691992,346,-16500,-1028,34,-6,21
18,884,1691997,293,-16485,-992,33,-9,20
18,885,1692002,209,-16471,-980,30,-12,20
18,886,1692007,126,-16550,-1102,28,-15,19
18,887,1692012,169,-16539,-1192,26,-11,17
18,888,1692017,152,-16555,-1205,26,0,17
18,889,1692022,144,-16589,-1200,25,14,16
18,890,1692027,159,-16521,-1215,22,29,14
18,891,1692032,152,-16539,-1159,17,40,11
18,892,1692037,123,-16514,-1137,17,46,11
18,893,1692042,87,-16453,-1083,13,48,6
18,894,1692047,79,-16427,-1074,11,45,5
18,895,1692052,133,-16433,-1042,11,41,4
18,896,1692057,262,-16434,-965,8,34,5
18,897,1692062,287,-16438,-1030,5,29,4
18,898,1692067,234,-16436,-1094,7,23,1
18,899,1692072,176,-16362,-1153,6,13,1
18,900,1692077,161,-16349,-1122,3,4,0
18,901,1692082,200,-16348,-1084,-1,-1,1
18,902,1692087,244,-16364,-1034,-2,-5,2
18,903,1692092,249,-16356,-1037,-2,-11,1
18,904,1692097,227,-16312,-1084,-3,-13,0
18,905,1692102,232,-16337,-1096,-4,-23,0
18,906,1692107,237,-16345,-1080,-6,-23,0
18,907,1692112,300,-16318,-1071,-7,-23,0
18,908,1692117,286,-16334,-1079,-8,-23,-3
18,909,1692122,200,-16332,-1078,-10,-26,-3
18,910,1692127,195,-16315,-1083,-9,-28,-5
18,911,1692132,138,-16353,-1096,-12,-30,-6
18,912,1692137,188,-16422,-1113,-13,-29,-6
18,913,1692142,230,-16457,-1057,-12,-30,-7
18,914,1692147,199,-16513,-1074,-16,-25,-8
18,915,1692152,130,-16522,-1099,-17,-22,-9
18,916,1692157,163,-16530,-1122,-20,-18,-11
18,917,1692162,189,-16545,-1114,-22,-12,-13
18,918,1692167,201,-16546,-1051,-24,-6,-15
18,919,1692172,207,-16516,-1035,-23,-5,-15
18,920,1692177,196,-16466,-1079,-26,-5,-15
18,921,1692182,243,-16515,-1037,-28,-6,-17
18,922,1692187,248,-16542,-989,-29,-5,-20
18,923,1692192,157,-16500,-966,-29,-9,-22
18,924,1692197,140,-16546,-1063,-28,-20,-19
18,925,1692202,147,-16572,-1205,-30,-22,-19
18,926,1692207,123,-16533,-1153,-32,-15,-20
18,927,1692212,118,-16540,-1017,-33,-15,-22
18,928,1692217,43,-16504,-1006,-32,-20,-25
18,929,1692222,75,-16459,-1036,-33,-28,-25
18,930,1692227,137,-16472,-1151,-35,-23,-26
18,931,1692232,162,-16455,-1175,-36,-10,-29
18,932,1692237,114,-16412,-1143,-38,-1,-31
18,933,1692242,157,-16419,-1087,-39,0,-33
18,934,1692247,226,-16395,-1042,-40,1,-34
18,935,1692252,170,-16375,-990,-40,2,-32
18,936,1692257,48,-16379,-1006,-40,0,-33
18,937,1692262,70,-16335,-1027,-39,-10,-35
18,938,1692267,210,-16307,-1134,-45,-9,-38
18,939,1692272,192,-16327,-1107,-44,-2,-42
18,940,1692277,166,-16396,-1154,-42,-2,-40
18,941,1692282,281,-16394,-1193,-43,4,-40
18,942,1692287,360,-16429,-1161,-47,14,-42
18,943,1692292,275,-16513,-1096,-47,22,-44
18,944,1692297,184,-16513,-1053,-47,15,-44
18,945,1692302,219,-16466,-1021,-47,2,-44
18,946,1692307,268,-16397,-964,-46,-13,-40
18,947,1692312,302,-16385,-991,-45,-23,-42
18,948,1692317,256,-16429,-1061,-44,-33,-43
18,949,1692322,247,-16436,-1136,-43,-47,-41
18,950,1692327,320,-16500,-1232,-41,-47,-40
18,951,1692332,334,-16533,-1252,-44,-39,-43
18,952,1692337,273,-16457,-1172,-46,-31,-45
18,953,1692342,152,-16429,-1242,-40,-27,-42
18,954,1692347,139,-16401,-1236,-43,-25,-45
18,955,1692352,222,-16371,-1235,-45,-17,-46
18,956,1692357,300,-16388,-1204,-45,-10,-43
18,957,1692362,293,-16406,-1070,-42,-12,-44
18,958,1692367,256,-16420,-1059,-44,-18,-44
18,959,1692372,262,-16421,-1164,-41,-29,-43
18,960,1692377,286,-16390,-1169,-42,-33,-42
18,961,1692382,283,-16387,-1229,-41,-36,-41
18,962,1692387,334,-16396,-1217,-42,-37,-43
18,963,1692392,326,-16327,-1238,-41,-37,-41
18,964,1692397,423,-16352,-1232,-42,-36,-41
18,965,1692402,464,-16386,-1168,-41,-34,-39
18,966,1692407,381,-16375,-1120,-37,-34,-39
18,967,1692412,309,-16378,-1146,-38,-41,-39
18,968,1692417,260,-16362,-1191,-37,-52,-38
18,969,1692422,244,-16338,-1220,-37,-56,-36
18,970,1692427,209,-16344,-1255,-38,-57,-36
18,971,1692432,238,-16411,-1249,-37,-55,-35
18,972,1692437,235,-16442,-1238,-37,-48,-35
18,973,1692442,221,-16439,-1274,-36,-39,-34
18,974,1692447,219,-16415,-1309,-35,-25,-37
18,975,1692452,145,-16410,-1281,-35,-15,-38
18,976,1692457,155,-16454,-1231,-39,-6,-38
18,977,1692462,243,-16482,-1158,-38,0,-37
18,978,1692467,222,-16481,-1101,-36,3,-39
18,979,1692472,243,-16530,-1066,-35,-4,-39
18,980,1692477,297,-16544,-1094,-35,-12,-36
18,981,1692482,317,-16558,-1149,-35,-14,-36
18,982,1692487,317,-16504,-1122,-36,-17,-36
18,983,1692492,259,-16466,-1151,-34,-24,-36
18,984,1692497,288,-16429,-1248,-32,-32,-33
18,985,1692502,285,-16377,-1252,-31,-33,-33
18,986,1692507,278,-16299,-1186,-34,-39,-32
18,987,1692512,238,-16344,-1114,-31,-49,-28
18,988,1692517,273,-16267,-1159,-24,-56,-29
18,989,1692522,300,-16219,-1258,-24,-60,-27
18,990,1692527,315,-16247,-1273,-23,-60,-26
18,991,1692532,338,-16267,-1315,-23,-52,-27
18,992,1692537,324,-16277,-1374,-22,-46,-24
18,993,1692542,346,-16349,-1424,-21,-34,-22
18,994,1692547,345,-16347,-1408,-19,-16,-22
18,995,1692552,294,-16285,-1373,-20,-4,-24
18,996,1692557,250,-16355,-1329,-21,1,-20
18,997,1692562,246,-16387,-1248,-20,6,-21
18,998,1692567,273,-16411,-1074,-18,5,-21
18,999,1692572,259,-16401,-1048,-19,-2,-20
19,0,1718297,1118,-16475,-436,-11,-8,-11
19,1,1718302,1066,-16473,-500,-12,-20,-11
19,2,1718307,1133,-16501,-648,-12,-22,-12
19,3,1718312,1164,-16461,-688,-13,-17,-10
19,4,1718317,1049,-16457,-592,-15,-10,-12
19,5,1718322,967,-16469,-509,-15,-4,-12
19,6,1718327,1010,-16403,-582,-12,-3,-11
19,7,1718332,1070,-16414,-610,-15,0,-12
19,8,1718337,1063,-16397,-499,-17,0,-13
19,9,1718342,1025,-16400,-380,-14,-8,-13
19,10,1718347,1054,-16423,-502,-15,-19,-14
19,11,1718352,1083,-16424,-603,-13,-25,-12
19,12,1718357,1031,-16412,-642,-14,-26,-14
19,13,1718362,1048,-16418,-613,-15,-25,-10
19,14,1718367,1105,-16389,-628,-13,-25,-11
19,15,1718372,1111,-16464,-722,-14,-19,-11
19,16,1718377,1173,-16453,-715,-16,-9,-14
19,17,1718382,1103,-16430,-672,-14,1,-15
19,18,1718387,1093,-16508,-642,-16,8,-15
19,19,1718392,1047,-16464,-614,-18,18,-16
19,20,1718397,1059,-16399,-541,-17,23,-15
19,21,1718402,1068,-16378,-468,-15,24,-16
19,22,1718407,1039,-16417,-509,-17,18,-17
19,23,1718412,1077,-16423,-458,-18,10,-17
19,24,1718417,1132,-16394,-491,-17,1,-15
19,25,1718422,1064,-16394,-574,-14,-5,-15
19,26,1718427,1046,-16427,-554,-15,-8,-17
19,27,1718432,1069,-16479,-585,-16,-11,-15
19,28,1718437,1051,-16459,-538,-17,-12,-15
19,29,1718442,1085,-16485,-573,-15,-10,-19
19,30,1718447,1141,-16443,-689,-16,-4,-18
19,31,1718452,1106,-16432,-658,-15,0,-20
19,32,1718457,1094,-16433,-663,-12,2,-17
19,33,1718462,1154,-16400,-632,-14,3,-18
19,34,1718467,1161,-16414,-654,-12,10,-18
19,35,1718472,1100,-16415,-601,-15,19,-19
19,36,1718477,974,-16369,-488,-18,15,-20
19,37,1718482,954,-16380,-471,-15,6,-20
19,38,1718487,979,-16420,-608,-10,3,-17
19,39,1718492,1067,-16419,-568,-11,3,-17
19,40,1718497,1132,-16463,-525,-9,-8,-18
19,41,1718502,1181,-16461,-510,-11,-11,-22
19,42,1718507,1214,-16487,-579,-11,-17,-19
19,43,1718512,1192,-16472,-652,-12,-15,-19
19,44,1718517,1068,-16471,-667,-11,-6,-21
19,45,1718522,1038,-16445,-705,-9,-1,-19
19,46,1718527,1066,-16448,-685,-10,7,-18
19,47,1718532,1166,-16462,-721,-12,19,-21
19,48,1718537,1173,-16492,-576,-12,26,-22
19,49,1718542,1127,-16446,-564,-12,29,-26
19,50,1718547,1089,-16441,-539,-9,22,-23
19,51,1718552,1081,-16489,-518,-8,18,-21
19,52,1718557,1049,-16460,-533,-7,15,-22
19,53,1718562,1067,-16444,-509,-7,10,-21
19,54,1718567,1114,-16468,-545,-8,8,-21
19,55,1718572,1177,-16439,-553,-8,3,-23
19,56,1718577,1199,-16415,-488,-8,-2,-24
19,57,1718582,1120,-16400,-522,-7,-10,-22
19,58,1718587,1046,-16382,-637,-4,-15,-22
19,59,1718592,1017,-16386,-738,-5,-13,-24
19,60,1718597,1091,-16399,-694,-2,-1,-23
19,61,1718602,1144,-16430,-622,-2,8,-25
19,62,1718607,1132,-16446,-518,-4,5,-23
19,63,1718612,1060,-16455,-557,-3,2,-24
19,64,1718617,1026,-16405,-596,-3,-1,-24
19,65,1718622,1060,-16449,-641,0,-1,-22
19,66,1718627,1099,-16435,-629,-2,3,-25
19,67,1718632,1121,-16421,-614,-2,2,-23
19,68,1718637,1168,-16427,-604,0,-1,-23
19,69,1718642,1107,-16419,-606,1,-4,-23
19,70,1718647,1116,-16426,-590,-1,-9,-26
19,71,1718652,1137,-16452,-649,3,-6,-23
19,72,1718657,1138,-16480,-658,3,-4,-21
19,73,1718662,1143,-16494,-596,1,0,-24
19,74,1718667,1154,-16496,-568,2,1,-25
19,75,1718672,1184,-16511,-620,3,1,-22
19,76,1718677,1166,-16498,-627,2,1,-22
19,77,1718682,1151,-16514,-608,4,2,-21
19,78,1718687,1154,-16459,-563,4,0,-21
19,79,1718692,1158,-16424,-529,0,2,-21
19,80,1718697,1113,-16415,-582,2,-2,-19
19,81,1718702,1073,-16420,-571,6,-6,-20
19,82,1718707,1071,-16383,-616,4,-7,-21
19,83,1718712,1102,-16383,-600,2,-11,-20
19,84,1718717,1149,-16413,-642,5,-14,-18
19,85,1718722,1138,-16391,-613,5,-10,-18
19,86,1718727,1143,-16366,-599,4,-12,-17
19,87,1718732,1118,-16350,-626,5,-11,-15
19,88,1718737,1143,-16383,-649,7,-7,-18
19,89,1718742,1196,-16421,-614,8,-4,-15
19,90,1718747,1210,-16387,-541,5,2,-16
19,91,1718752,1187,-16392,-589,10,3,-19
19,92,1718757,1133,-16417,-612,9,4,-15
19,93,1718762,1129,-16394,-619,6,2,-11
19,94,1718767,1137,-16411,-586,6,0,-12
19,95,1718772,1130,-16427,-589,8,2,-11
19,96,1718777,1173,-16420,-567,10,1,-12
19,97,1718782,1177,-16437,-593,12,0,-9
19,98,1718787,1181,-16493,-618,7,2,-9
19,99,1718792,1088,-16441,-643,7,-6,-7
19,100,1718797,1121,-16451,-651,9,-10,-9
19,101,1718802,1129,-16486,-621,10,-6,-9
19,102,1718807,1112,-16454,-644,7,-2,-7
19,103,1718812,1063,-16388,-570,7,-6,-4
19,104,1718817,1093,-16358,-582,6,-10,-5
19,105,1718822,1126,-16365,-599,11,-15,-3
19,106,1718827,1183,-16375,-591,10,-15,-2
19,107,1718832,1199,-16386,-584,10,-17,-3
19,108,1718837,1157,-16409,-613,9,-21,-1
19,109,1718842,1131,-16445,-651,8,-22,-1
19,110,1718847,1119,-16448,-690,10,-17,-1
19,111,1718852,1106,-16396,-650,10,-11,3
19,112,1718857,1103,-16365,-651,10,-8,2
19,113,1718862,1135,-16357,-640,9,-6,0
19,114,1718867,1102,-16414,-622,8,-9,0
19,115,1718872,1115,-16425,-557,9,-11,3
19,116,1718877,1105,-16450,-627,8,-15,3
19,117,1718882,1140,-16457,-658,8,-12,4
19,118,1718887,1130,-16474,-645,12,-8,4
19,119,1718892,1154,-16472,-639,10,-9,4
19,120,1718897,1176,-16492,-578,8,-6,5
19,121,1718902,1172,-16410,-568,7,-4,6
19,122,1718907,1158,-16406,-576,8,-2,6
19,123,1718912,1126,-16411,-659,8,0,7
19,124,1718917,1059,-16422,-613,9,0,6
19,125,1718922,1040,-16422,-527,10,-2,10
19,126,1718927,1124,-16431,-582,9,-8,11
19,127,1718932,1091,-16448,-601,7,-12,7
19,128,1718937,1087,-16432,-636,8,-18,8
19,129,1718942,1101,-16383,-594,10,-22,11
19,130,1718947,1137,-16397,-601,7,-23,12
19,131,1718952,1093,-16376,-690,7,-26,11
19,132,1718957,1106,-16400,-636,7,-24,13
19,133,1718962,1127,-16392,-576,4,-17,12
19,134,1718967,1150,-16414,-628,5,-14,12
19,135,1718972,1232,-16487,-670,8,-14,14
19,136,1718977,1158,-16415,-652,7,-14,17
19,137,1718982,1059,-16427,-586,4,-15,14
19,138,1718987,1092,-16409,-612,4,-15,16
19,139,1718992,1098,-16397,-655,4,-12,14
19,140,1718997,1111,-16387,-663,4,-11,18
19,141,1719002,1100,-16341,-549,3,-7,17
19,142,1719007,1146,-16388,-534,5,-9,18
19,143,1719012,1118,-16400,-572,3,-17,20
19,144,1719017,1091,-16434,-663,4,-23,16
19,145,1719022,1098,-16464,-642,2,-19,16
19,146,1719027,1132,-16448,-637,0,-19,15
19,147,1719032,1079,-16476,-622,4,-20,18
19,148,1719037,1091,-16450,-619,5,-16,21
19,149,1719042,1070,-16500,-616,-1,-13,19
19,150,1719047,1060,-16463,-560,1,-15,15
19,151,1719052,1133,-16411,-577,2,-12,22
19,152,1719057,1151,-16472,-557,-1,-11,22
19,153,1719062,1138,-16476,-579,-1,-11,20
19,154,1719067,1104,-16391,-591,-1,-15,21
19,155,1719072,1070,-16366,-669,-1,-18,20
19,156,1719077,1051,-16376,-672,-2,-13,22
19,157,1719082,1095,-16342,-684,0,-7,20
19,158,1719087,1059,-16344,-621,-1,-4,20
19,159,1719092,1010,-16412,-563,-2,-8,21
19,160,1719097,1015,-16425,-531,-1,-14,23
19,161,1719102,1035,-16443,-522,-3,-17,22
19,162,1719107,1070,-16448,-547,-1,-21,20
19,163,1719112,1071,-16476,-526,1,-29,19
19,164,1719117,1076,-16448,-551,0,-39,19
19,165,1719122,1114,-16490,-605,-1,-45,20
19,166,1719127,1143,-16500,-639,-3,-42,21
19,167,1719132,1183,-16484,-719,-3,-33,20
19,168,1719137,1124,-16460,-666,-2,-22,16
19,169,1719142,1161,-16411,-648,-4,-12,17
19,170,1719147,1125,-16404,-688,-6,-6,18
19,171,1719152,1092,-16421,-602,-3,2,18
19,172,1719157,1118,-16423,-539,-3,6,16
19,173,1719162,1095,-16434,-529,-8,5,15
19,174,1719167,1083,-16460,-566,-6,0,17
19,175,1719172,1100,-16439,-559,-4,-2,17
19,176,1719177,1074,-16419,-530,-5,-6,17
19,177,1719182,1076,-16433,-607,-4,-14,14
19,178,1719187,1055,-16435,-651,-3,-14,17
19,179,1719192,1065,-16397,-636,-3,-10,13
19,180,1719197,1036,-16387,-612,-3,-7,9
19,181,1719202,1081,-16405,-675,0,-9,10
19,182,1719207,1117,-16479,-675,-3,-5,12
19,183,1719212,1104,-16504,-498,-4,-4,13
19,184,1719217,1082,-16487,-393,-6,-6,9
19,185,1719222,1036,-16493,-477,-3,-17,9
19,186,1719227,1071,-16484,-574,1,-25,8
19,187,1719232,1053,-16456,-504,0,-29,7
19,188,1719237,1094,-16501,-512,2,-39,9
19,189,1719242,1142,-16442,-542,0,-49,7
19,190,1719247,1066,-16378,-552,0,-63,5
19,191,1719252,1087,-16368,-707,0,-60,7
19,192,1719257,1105,-16372,-779,2,-41,4
19,193,1719262,1054,-16397,-729,0,-23,1
19,194,1719267,1046,-16416,-718,0,-9,2
19,195,1719272,1020,-16435,-647,0,1,-1
19,196,1719277,1015,-16439,-634,1,6,-2
19,197,1719282,1066,-16403,-485,1,7,-1
19,198,1719287,1119,-16398,-455,1,6,-4
19,199,1719292,1056,-16428,-503,1,-7,-3
19,200,1719297,1013,-16465,-543,5,-26,-2
19,201,1719302,1029,-16445,-543,5,-39,-2
19,202,1719307,992,-16455,-609,6,-44,-3
19,203,1719312,1034,-16407,-625,7,-43,-5
19,204,1719317,1071,-16396,-681,4,-39,-5
19,205,1719322,1126,-16391,-660,5,-34,-6
19,206,1719327,1079,-16435,-629,4,-31,-7
19,207,1719332,992,-16423,-598,6,-28,-12
19,208,1719337,987,-16418,-651,9,-24,-10
19,209,1719342,1120,-16451,-641,6,-19,-9
19,210,1719347,1124,-16500,-586,5,-13,-12
19,211,1719352,1131,-16526,-539,3,-13,-14
19,212,1719357,1096,-16532,-534,3,-18,-13
19,213,1719362,1063,-16518,-597,6,-20,-11
19,214,1719367,1011,-16490,-617,8,-19,-15
19,215,1719372,989,-16461,-613,6,-16,-16
19,216,1719377,1063,-16455,-551,6,-16,-16
19,217,1719382,1117,-16427,-521,9,-21,-14
19,218,1719387,1061,-16408,-495,9,-28,-16
19,219,1719392,1041,-16378,-575,6,-30,-16
19,220,1719397,1062,-16365,-582,7,-33,-18
19,221,1719402,1070,-16349,-574,6,-35,-18
19,222,1719407,1164,-16382,-385,6,-35,-17
19,223,1719412,1036,-16530,-623,7,-44,-18
19,224,1719417,1041,-16565,-732,9,-58,-16
19,225,1719422,971,-16396,-560,7,-65,-17
19,226,1719427,1058,-16423,-647,6,-73,-20
19,227,1719432,1161,-16423,-767,6,-57,-19
19,228,1719437,1125,-16430,-782,9,-32,-19
19,229,1719442,1027,-16433,-795,8,-15,-20
19,230,1719447,1021,-16431,-694,7,-8,-21
19,231,1719452,1076,-16462,-656,4,-3,-23
19,232,1719457,1142,-16504,-608,4,5,-25
19,233,1719462,1075,-16531,-526,6,14,-28
19,234,1719467,1060,-16527,-538,6,10,-22
19,235,1719472,1092,-16459,-567,7,-2,-25
19,236,1719477,1125,-16437,-543,5,-12,-24
19,237,1719482,1053,-16411,-495,4,-16,-24
19,238,1719487,1048,-16400,-619,8,-21,-25
19,239,1719492,1011,-16396,-634,9,-23,-22
19,240,1719497,1029,-16392,-635,7,-24,-23
19,241,1719502,1018,-16427,-608,7,-26,-24
19,242,1719507,993,-16446,-632,6,-26,-29
19,243,1719512,1008,-16375,-621,8,-23,-30
19,244,1719517,1015,-16267,-604,8,-20,-25
19,245,1719522,1056,-16323,-639,7,-22,-25
19,246,1719527,1099,-16437,-603,5,-25,-25
19,247,1719532,1087,-16487,-526,5,-31,-25
19,248,1719537,1090,-16509,-566,9,-37,-24
19,249,1719542,1080,-16523,-598,9,-43,-28
19,250,1719547,1078,-16542,-654,7,-43,-25
19,251,1719552,1091,-16429,-669,6,-33,-29
19,252,1719557,1116,-16415,-627,8,-32,-26
19,253,1719562,1102,-16479,-584,4,-28,-26
19,254,1719567,1117,-16426,-408,5,-27,-29
19,255,1719572,1132,-16423,-331,6,-35,-30
19,256,1719577,1100,-16496,-619,6,-45,-28
19,257,1719582,1134,-16390,-571,5,-55,-28
19,258,1719587,1032,-16349,-466,4,-78,-28
19,259,1719592,1072,-16363,-639,5,-92,-25
19,260,1719597,1208,-16403,-566,4,-82,-25
19,261,1719602,1248,-16419,-705,5,-56,-28
19,262,1719607,1184,-16424,-756,8,-34,-29
19,263,1719612,1124,-16393,-681,3,-27,-30
19,264,1719617,1128,-16385,-647,-2,-29,-33
19,265,1719622,1176,-16412,-575,-1,-25,-31
19,266,1719627,1224,-16449,-604,3,-6,-31
19,267,1719632,1228,-16519,-565,5,7,-30
19,268,1719637,1149,-16553,-515,1,4,-28
19,269,1719642,1190,-16511,-400,-1,-4,-30
19,270,1719647,1230,-16479,-420,2,-14,-29
19,271,1719652,1190,-16436,-516,6,-17,-30
19,272,1719657,1070,-16385,-500,5,-20,-31
19,273,1719662,1030,-16407,-509,6,-34,-29
19,274,1719667,1060,-16381,-464,5,-50,-29
19,275,1719672,1069,-16335,-524,5,-56,-32
19,276,1719677,1070,-16352,-601,6,-58,-33
19,277,1719682,1085,-16376,-636,9,-57,-31
19,278,1719687,1122,-16396,-629,7,-59,-31
19,279,1719692,1159,-16460,-558,11,-63,-31
19,280,1719697,1157,-16426,-583,9,-65,-30
19,281,1719702,1171,-16441,-654,11,-56,-31
19,282,1719707,1154,-16436,-692,12,-44,-34
19,283,1719712,1192,-16441,-582,10,-36,-35
19,284,1719717,1178,-16424,-499,11,-32,-34
19,285,1719722,1104,-16392,-464,10,-37,-34
19,286,1719727,1091,-16297,-547,14,-39,-33
19,287,1719732,1149,-16294,-602,14,-35,-36
19,288,1719737,1267,-16363,-463,11,-34,-36
19,289,1719742,1327,-16432,-363,13,-43,-33
19,290,1719747,1293,-16450,-348,12,-55,-34
19,291,1719752,1197,-16463,-548,18,-63,-34
19,292,1719757,1138,-16503,-732,18,-68,-33
19,293,1719762,1137,-16425,-663,20,-61,-29
19,294,1719767,1183,-16375,-549,19,-55,-31
19,295,1719772,1171,-16406,-578,18,-54,-33
19,296,1719777,1236,-16385,-609,18,-50,-36
19,297,1719782,1220,-16393,-665,19,-45,-36
19,298,1719787,1192,-16397,-614,21,-42,-33
19,299,1719792,1133,-16438,-524,22,-40,-34
19,300,1719797,1188,-16449,-593,21,-44,-35
19,301,1719802,1219,-16433,-650,21,-40,-30
19,302,1719807,1174,-16425,-547,24,-34,-33
19,303,1719812,1101,-16364,-502,23,-34,-33
19,304,1719817,1137,-16408,-534,24,-38,-36
19,305,1719822,1174,-16426,-580,23,-39,-33
19,306,1719827,1251,-16423,-599,26,-36,-33
19,307,1719832,1187,-16441,-551,26,-36,-32
19,308,1719837,1123,-16451,-483,25,-41,-35
19,309,1719842,1142,-16472,-495,27,-49,-32
19,310,1719847,1187,-16442,-561,27,-51,-33
19,311,1719852,1249,-16402,-577,24,-45,-36
19,312,1719857,1238,-16418,-586,27,-42,-32
19,313,1719862,1250,-16373,-580,28,-43,-31
19,314,1719867,1223,-16408,-628,27,-44,-32
19,315,1719872,1179,-16392,-613,28,-41,-30
19,316,1719877,1222,-16359,-666,29,-28,-33
19,317,1719882,1181,-16350,-717,28,-21,-32
19,318,1719887,1213,-16419,-651,26,-13,-32
19,319,1719892,1271,-16479,-573,25,-8,-32
19,320,1719897,1330,-16475,-575,27,-6,-30
19,321,1719902,1371,-16492,-556,27,5,-29
19,322,1719907,1318,-16521,-586,24,12,-29
19,323,1719912,1253,-16456,-538,25,8,-29
19,324,1719917,1197,-16413,-530,27,7,-26
19,325,1719922,1328,-16383,-496,21,14,-26
19,326,1719927,1251,-16348,-442,21,11,-28
19,327,1719932,1144,-16327,-421,21,1,-26
19,328,1719937,1160,-16333,-438,20,-11,-27
19,329,1719942,1178,-16398,-556,21,-22,-25
19,330,1719947,1245,-16401,-531,20,-23,-24
19,331,1719952,1292,-16465,-542,19,-21,-23
19,332,1719957,1273,-16500,-544,19,-23,-25
19,333,1719962,1247,-16508,-621,18,-24,-23
19,334,1719967,1304,-16529,-700,19,-20,-21
19,335,1719972,1295,-16548,-751,17,-5,-21
19,336,1719977,1216,-16474,-634,14,8,-22
19,337,1719982,1235,-16461,-602,12,16,-20
19,338,1719987,1258,-16432,-554,14,23,-20
19,339,1719992,1301,-16408,-547,11,26,-20
19,340,1719997,1279,-16409,-475,11,26,-18
19,341,1720002,1184,-16418,-380,7,21,-19
19,342,1720007,1196,-16373,-424,7,9,-17
19,343,1720012,1271,-16332,-494,8,2,-15
19,344,1720017,1334,-16367,-438,4,-1,-16
19,345,1720022,1320,-16403,-456,5,-5,-14
19,346,1720027,1259,-16393,-482,2,-12,-11
19,347,1720032,1215,-16434,-538,2,-22,-9
19,348,1720037,1222,-16447,-580,4,-18,-9
19,349,1720042,1236,-16420,-596,1,-9,-9
19,350,1720047,1269,-16440,-559,-2,-2,-11
19,351,1720052,1232,-16468,-521,-4,-1,-8
19,352,1720057,1231,-16412,-564,-4,-6,-7
19,353,1720062,1229,-16425,-626,-6,-10,-7
19,354,1720067,1243,-16418,-592,-5,-8,-7
19,355,1720072,1303,-16418,-579,-7,-7,-6
19,356,1720077,1272,-16426,-543,-9,-8,-4
19,357,1720082,1179,-16366,-538,-9,-10,-3
19,358,1720087,1246,-16372,-603,-13,-11,-1
19,359,1720092,1292,-16385,-601,-13,-6,0
19,360,1720097,1279,-16405,-545,-12,-5,4
19,361,1720102,1301,-16432,-552,-14,-4,2
19,362,1720107,1280,-16509,-551,-14,-7,2
19,363,1720112,1257,-16502,-543,-16,-5,2
19,364,1720117,1263,-16508,-541,-18,-1,4
19,365,1720122,1271,-16475,-449,-18,0,5
19,366,1720127,1231,-16442,-430,-18,-7,6
19,367,1720132,1251,-16433,-484,-22,-18,6
19,368,1720137,1273,-16458,-529,-20,-19,9
19,369,1720142,1324,-16461,-488,-21,-23,9
19,370,1720147,1329,-16416,-503,-25,-24,7
19,371,1720152,1250,-16403,-562,-23,-25,8
19,372,1720157,1208,-16424,-651,-24,-25,9
19,373,1720162,1211,-16422,-653,-23,-22,10
19,374,1720167,1238,-16376,-604,-24,-14,11
19,375,1720172,1246,-16380,-589,-26,-7,12
19,376,1720177,1316,-16429,-650,-27,2,12
19,377,1720182,1366,-16454,-613,-30,4,16
19,378,1720187,1338,-16400,-483,-28,3,14
19,379,1720192,1260,-16373,-448,-30,1,9
19,380,1720197,1206,-16374,-477,-32,-4,10
19,381,1720202,1186,-16411,-527,-31,-9,13
19,382,1720207,1238,-16448,-557,-30,-10,15
19,383,1720212,1276,-16462,-499,-28,-14,14
19,384,1720217,1285,-16434,-500,-31,-20,14
19,385,1720222,1251,-16439,-512,-31,-26,14
19,386,1720227,1214,-16420,-588,-27,-27,18
19,387,1720232,1189,-16391,-657,-27,-20,15
19,388,1720237,1232,-16386,-632,-31,-15,14
19,389,1720242,1235,-16421,-620,-30,-9,14
19,390,1720247,1218,-16413,-636,-28,-4,13
19,391,1720252,1250,-16372,-629,-27,-1,14
19,392,1720257,1252,-16372,-605,-26,3,14
19,393,1720262,1264,-16391,-560,-30,6,10
19,394,1720267,1279,-16397,-594,-29,4,16
19,395,1720272,1271,-16407,-574,-26,7,13
19,396,1720277,1266,-16386,-600,-26,4,11
19,397,1720282,1300,-16367,-527,-26,6,15
19,398,1720287,1138,-16432,-385,-25,0,11
19,399,1720292,1158,-16371,-357,-23,-12,13
19,400,1720297,1132,-16470,-472,-22,-22,13
19,401,1720302,1155,-16513,-550,-22,-25,13
19,402,1720307,1179,-16513,-510,-21,-33,13
19,403,1720312,1281,-16469,-550,-20,-44,12
19,404,1720317,1174,-16405,-588,-17,-55,12
19,405,1720322,1085,-16529,-510,-13,-65,11
19,406,1720327,1118,-16483,-524,-12,-68,10
19,407,1720332,1204,-16422,-614,-11,-65,14
19,408,1720337,1240,-16457,-758,-10,-53,13
19,409,1720342,1255,-16488,-694,-11,-37,10
19,410,1720347,1164,-16501,-564,-12,-37,12
19,411,1720352,1100,-16513,-500,-10,-37,15
19,412,1720357,1209,-16404,-564,-9,-32,13
19,413,1720362,1246,-16371,-629,-8,-26,11
19,414,1720367,1079,-16405,-734,-6,-25,17
19,415,1720372,1084,-16462,-334,-9,-35,18
19,416,1720377,1126,-16417,-218,-11,-52,18
19,417,1720382,1006,-16474,-348,-3,-68,23
19,418,1720387,1042,-16469,-793,2,-73,24
19,419,1720392,1083,-16542,-778,-1,-68,26
19,420,1720397,1093,-16519,-437,-6,-78,28
19,421,1720402,1021,-16429,-435,-5,-95,28
19,422,1720407,910,-16436,-825,5,-101,33
19,423,1720412,880,-16503,-952,4,-87,36
19,424,1720417,841,-16557,-800,-1,-76,39
19,425,1720422,828,-16538,-592,-1,-79,47
19,426,1720427,911,-16548,-711,1,-81,48
19,427,1720432,888,-16498,-1027,1,-73,50
19,428,1720437,821,-16487,-929,3,-54,59
19,429,1720442,921,-16437,-826,1,-52,66
19,430,1720447,1050,-16396,-815,-2,-50,71
19,431,1720452,1077,-16381,-847,-3,-44,78
19,432,1720457,1091,-16446,-778,-4,-36,83
19,433,1720462,1056,-16517,-688,-8,-23,91
19,434,1720467,1024,-16611,-626,-11,-24,99
19,435,1720472,951,-16675,-560,-16,-22,109
19,436,1720477,969,-16672,-681,-21,-15,116
19,437,1720482,954,-16718,-816,-20,-11,126
19,438,1720487,810,-16719,-798,-24,-7,140
19,439,1720492,710,-16743,-737,-28,-12,147
19,440,1720497,691,-16702,-751,-30,-18,157
19,441,1720502,681,-16704,-839,-37,-14,167
19,442,1720507,630,-16649,-851,-38,-1,176
19,443,1720512,608,-16499,-880,-43,1,183
19,444,1720517,595,-16399,-781,-50,-8,197
19,445,1720522,611,-16341,-579,-57,-25,210
19,446,1720527,446,-16413,-558,-59,-53,218
19,447,1720532,294,-16493,-522,-57,-77,230
19,448,1720537,397,-16570,-707,-62,-98,245
19,449,1720542,563,-16708,-717,-69,-111,259
19,450,1720547,680,-16658,-593,-75,-117,263
19,451,1720552,463,-16567,-302,-83,-134,273
19,452,1720557,166,-16509,-784,-86,-166,288
19,453,1720562,443,-16627,-1348,-83,-172,302
19,454,1720567,560,-16737,-1472,-89,-148,312
19,455,1720572,672,-16819,-1257,-104,-124,322
19,456,1720577,426,-16760,-770,-110,-118,329
19,457,1720582,260,-16794,-1081,-112,-125,340
19,458,1720587,114,-16657,-1459,-116,-101,353
19,459,1720592,21,-16440,-1374,-124,-60,358
19,460,1720597,-55,-16326,-1237,-133,-37,366
19,461,1720602,-43,-16232,-972,-140,-31,378
19,462,1720607,98,-16122,-1073,-145,-41,388
19,463,1720612,154,-16180,-1156,-144,-36,397
19,464,1720617,-6,-16271,-867,-148,-40,403
19,465,1720622,-79,-16355,-856,-154,-64,413
19,466,1720627,12,-16291,-1016,-159,-78,421
19,467,1720632,39,-16267,-989,-163,-74,431
19,468,1720637,-8,-16267,-1041,-168,-61,438
19,469,1720642,-219,-16243,-902,-171,-49,441
19,470,1720647,-187,-16134,-999,-172,-64,452
19,471,1720652,-98,-16005,-1068,-177,-73,459
19,472,1720657,-334,-15941,-1120,-179,-71,465
19,473,1720662,-526,-15990,-1177,-180,-87,471
19,474,1720667,-458,-15954,-1305,-184,-94,478
19,475,1720672,-73,-16145,-1373,-183,-84,487
19,476,1720677,-32,-16099,-1377,-188,-53,486
19,477,1720682,-239,-16179,-1148,-188,-37,483
19,478,1720687,-412,-16259,-1204,-187,-41,486
19,479,1720692,-150,-16421,-1288,-191,-33,492
19,480,1720697,43,-16500,-1226,-194,-11,495
19,481,1720702,33,-16559,-876,-192,17,490
19,482,1720707,-230,-16708,-800,-191,18,492
19,483,1720712,-201,-16712,-776,-196,5,496
19,484,1720717,-68,-16619,-788,-197,1,503
19,485,1720722,-266,-16525,-919,-191,-2,500
19,486,1720727,-610,-16351,-868,-188,-9,498
19,487,1720732,-827,-16279,-1067,-186,-33,499
19,488,1720737,-572,-16359,-1327,-182,-53,503
19,489,1720742,-279,-16445,-1106,-182,-48,502
19,490,1720747,-472,-16470,-1061,-180,-48,494
19,491,1720752,-900,-16509,-1146,-173,-58,490
19,492,1720757,-752,-16332,-1399,-170,-69,491
19,493,1720762,-486,-16206,-1532,-169,-46,486
19,494,1720767,-682,-16105,-1349,-166,-8,476
19,495,1720772,-824,-15982,-1251,-165,3,468
19,496,1720777,-978,-15923,-1370,-160,2,466
19,497,1720782,-841,-15899,-1458,-153,-7,466
19,498,1720787,-737,-15968,-1292,-150,3,458
19,499,1720792,-814,-16058,-1107,-142,10,445
19,500,1720797,-856,-16129,-1146,-139,4,436
19,501,1720802,-786,-16219,-1249,-134,-8,434
19,502,1720807,-663,-16295,-1375,-126,-8,434
19,503,1720812,-495,-16299,-1094,-120,7,422
19,504,1720817,-823,-16409,-1015,-119,12,414
19,505,1720822,-869,-16530,-1278,-113,5,405
19,506,1720827,-796,-16474,-1309,-110,11,396
19,507,1720832,-822,-16509,-1204,-107,19,390
19,508,1720837,-819,-16434,-1022,-102,28,378
19,509,1720842,-941,-16420,-927,-94,29,367
19,510,1720847,-939,-16456,-1392,-84,20,359
19,511,1720852,-854,-16497,-1396,-76,28,350
19,512,1720857,-972,-16509,-1251,-74,28,336
19,513,1720862,-990,-16471,-1087,-70,22,324
19,514,1720867,-966,-16459,-1134,-63,19,316
19,515,1720872,-900,-16508,-1330,-51,20,302
19,516,1720877,-1066,-16547,-1123,-44,23,287
19,517,1720882,-1114,-16374,-1285,-35,9,273
19,518,1720887,-903,-16330,-1288,-30,6,258
19,519,1720892,-1063,-16372,-1219,-23,8,243
19,520,1720897,-1144,-16339,-1022,-15,5,233
19,521,1720902,-1299,-16393,-1332,-4,-7,219
19,522,1720907,-1157,-16484,-1387,7,-17,202
19,523,1720912,-1154,-16430,-1243,11,-25,187
19,524,1720917,-1152,-16373,-998,16,-39,170
19,525,1720922,-1077,-16320,-1173,31,-58,152
19,526,1720927,-1044,-16334,-1227,44,-65,135
19,527,1720932,-1020,-16386,-961,46,-67,117
19,528,1720937,-1090,-16466,-995,55,-79,100
19,529,1720942,-944,-16457,-1034,66,-89,86
19,530,1720947,-745,-16500,-1068,76,-85,67
19,531,1720952,-706,-16522,-1023,81,-79,49
19,532,1720957,-771,-16506,-748,85,-88,31
19,533,1720962,-884,-16461,-878,96,-111,12
19,534,1720967,-985,-16450,-1236,105,-124,-7
19,535,1720972,-1165,-16462,-1403,114,-116,-24
19,536,1720977,-1227,-16398,-1324,118,-108,-45
19,537,1720982,-967,-16248,-1304,125,-99,-61
19,538,1720987,-827,-16171,-1193,132,-88,-82
19,539,1720992,-835,-16124,-1158,142,-80,-101
19,540,1720997,-926,-16080,-1158,149,-70,-124
19,541,1721002,-989,-16086,-1292,159,-72,-140
19,542,1721007,-994,-16062,-1344,164,-64,-159
19,543,1721012,-855,-16105,-1304,171,-45,-179
19,544,1721017,-717,-16174,-1233,174,-18,-204
19,545,1721022,-738,-16284,-1121,182,6,-221
19,546,1721027,-625,-16492,-1270,194,31,-259
19,547,1721032,-488,-16538,-1059,199,49,-279
19,548,1721037,-441,-16584,-876,200,70,-295
19,549,1721042,-549,-16594,-1056,209,84,-315
19,550,1721047,-630,-16561,-1019,214,97,-332
19,551,1721052,-664,-16483,-932,217,106,-351
19,552,1721057,-601,-16386,-888,222,115,-370
19,553,1721062,-732,-16431,-1127,231,125,-386
19,554,1721067,-787,-16415,-1455,237,146,-405
19,555,1721072,-864,-16428,-1393,239,172,-427
19,556,1721077,-603,-16421,-1106,242,191,-443
19,557,1721082,-299,-16493,-640,245,211,-462
19,558,1721087,-107,-16792,-416,253,222,-479
19,559,1721092,-106,-16992,-234,260,211,-497
19,560,1721097,-255,-16992,99,263,175,-512
19,561,1721102,-244,-16958,-39,267,118,-521
19,562,1721107,-358,-16965,-377,274,68,-536
19,563,1721112,-526,-16911,-550,285,30,-555
19,564,1721117,-800,-16758,-725,290,-10,-570
19,565,1721122,-546,-16696,-700,292,-41,-584
19,566,1721127,-329,-16758,-787,293,-58,-600
19,567,1721132,-281,-16785,-730,306,-60,-621
19,568,1721137,-284,-16667,-921,313,-56,-640
19,569,1721142,-173,-16638,-1067,311,-46,-653
19,570,1721147,-16,-16656,-1126,313,-36,-665
19,571,1721152,93,-16692,-772,314,-10,-685
19,572,1721157,31,-16686,-443,315,15,-704
19,573,1721162,160,-16743,-664,323,24,-716
19,574,1721167,380,-16751,-855,326,40,-730
19,575,1721172,667,-16731,-624,324,61,-745
19,576,1721177,578,-16783,-149,321,65,-760
19,577,1721182,550,-16870,-24,324,48,-774
19,578,1721187,461,-17072,-183,330,27,-784
19,579,1721192,478,-17162,-357,335,17,-794
19,580,1721197,537,-17150,-314,332,9,-802
19,581,1721202,523,-17103,-250,332,-8,-816
19,582,1721207,448,-17100,-196,333,-32,-827
19,583,1721212,532,-17043,-279,338,-57,-834
19,584,1721217,576,-17032,-526,346,-70,-843
19,585,1721222,445,-16950,-509,345,-74,-857
19,586,1721227,379,-16863,-587,345,-85,-867
19,587,1721232,606,-16832,-551,341,-89,-878
19,588,1721237,834,-16832,-488,336,-78,-891
19,589,1721242,854,-16770,-192,335,-61,-901
19,590,1721247,856,-16734,-136,335,-63,-910
19,591,1721252,846,-16649,-244,337,-78,-914
19,592,1721257,840,-16674,-398,335,-98,-921
19,593,1721262,974,-16604,-250,328,-105,-930
19,594,1721267,1026,-16529,301,325,-118,-938
19,595,1721272,1058,-16475,153,326,-144,-942
19,596,1721277,1153,-16478,-139,330,-168,-942
19,597,1721282,1103,-16515,-198,328,-184,-946
19,598,1721287,970,-16447,-563,321,-200,-950
19,599,1721292,2511,-20060,-707,317,-193,-956
19,600,1721297,9201,-32768,3417,383,-65,-969
19,601,1721320,-2621,-7397,32767,-364,3684,-650
19,602,1721321,-2621,-7397,32767,-364,3684,-650
19,603,1721323,-2621,-7397,32767,-364,3684,-650
19,604,1721324,-32768,-10593,-6962,306,-1129,-46
19,605,1721325,-32768,-10593,-6962,306,-1129,-46
19,606,1721327,-32768,-10593,-6962,306,-1129,-46
19,607,1721332,-3788,-16170,-32112,132,-2240,1223
19,608,1721337,32767,-17832,-8443,-282,-315,1213
19,609,1721342,18451,-14719,19824,-420,1565,39
19,610,1721347,-32564,-10945,20561,-123,943,-344
19,611,1721352,-23980,-16426,-19406,40,-1196,668
19,612,1721357,23242,-19339,-16269,-84,-513,1176
19,613,1721362,27884,-16533,9416,-302,762,472
19,614,1721367,-11659,-13462,19551,-255,578,-142
19,615,1721372,-22421,-15675,-4384,-60,-722,296
19,616,1721377,8024,-19437,-17227,-18,-693,890
19,617,1721382,21337,-18743,-1242,-145,419,658
19,618,1721387,2413,-15521,11057,-268,754,102
19,619,1721392,-15376,-15502,7292,-197,90,134
19,620,1721397,14976,-18670,-9624,-94,30,650
19,621,1721402,7280,-16097,4690,-199,846,269
19,622,1721407,-8969,-15155,10316,-189,590,129
19,623,1721412,-6633,-16621,-2425,-97,-215,399
19,624,1721417,7409,-17955,-7920,-67,-180,556
19,625,1721422,8237,-16704,-772,-139,365,349
19,626,1721427,-3224,-15334,6573,-176,501,162
19,627,1721432,-5882,-16165,3097,-133,-6,271
19,628,1721437,2820,-17361,-5541,-70,-266,439
19,629,1721442,7093,-17082,-3296,-98,119,362
19,630,1721447,676,-15897,3082,-139,380,197
19,631,1721452,-4514,-15931,3485,-126,127,208
19,632,1721457,-260,-16731,-2207,-94,-153,327
19,633,1721462,4877,-17150,-4341,-89,8,333
19,634,1721467,2455,-16358,975,-116,334,216
19,635,1721472,-2089,-16020,3669,-118,266,174
19,636,1721477,-1257,-16471,-9,-99,-19,240
19,637,1721482,2651,-17054,-3371,-87,-52,274
19,638,1721487,2512,-16753,-677,-104,186,214
19,639,1721492,-523,-16323,3123,-107,236,161
19,640,1721497,-1311,-16546,1588,-87,-3,185
19,641,1721502,909,-16948,-2300,-71,-151,216
19,642,1721507,1917,-16866,-2091,-79,-40,190
19,643,1721512,89,-16334,1058,-88,65,141
19,644,1721517,-1130,-16375,1606,-71,-24,141
19,645,1721522,254,-16896,-1589,-55,-144,165
19,646,1721527,1469,-17013,-2334,-58,-70,153
19,647,1721532,861,-16653,-20,-68,49,117
19,648,1721537,-207,-16440,1288,-69,28,100
19,649,1721542,155,-16604,-440,-50,-60,110
19,650,1721547,1036,-16694,-2004,-41,-41,111
19,651,1721552,742,-16421,-812,-53,60,86
19,652,1721557,53,-16125,932,-54,69,66
19,653,1721562,140,-16185,301,-45,-11,67
19,654,1721567,947,-16396,-1157,-37,-32,64
19,655,1721572,894,-16377,-1020,-39,31,45
19,656,1721577,256,-16280,225,-46,54,29
19,657,1721582,95,-16321,361,-47,-2,27
19,658,1721587,623,-16510,-665,-39,-41,25
19,659,1721592,812,-16551,-945,-38,3,14
19,660,1721597,383,-16374,-77,-35,47,-3
19,661,1721602,83,-16335,102,-33,20,-8
19,662,1721607,311,-16424,-527,-30,-21,-7
19,663,1721612,528,-16440,-859,-26,-18,-18
19,664,1721617,238,-16356,-637,-23,14,-28
19,665,1721622,32,-16325,-135,-16,24,-36
19,666,1721627,274,-16311,-415,-12,-1,-40
19,667,1721632,596,-16347,-801,-12,-3,-47
19,668,1721637,489,-16284,-569,-12,25,-57
19,669,1721642,268,-16283,-460,-12,43,-64
19,670,1721647,329,-16375,-715,-10,42,-66
19,671,1721652,546,-16530,-831,-8,55,-71
19,672,1721657,543,-16601,-486,-13,74,-79
19,673,1721662,369,-16596,-177,-14,80,-85
19,674,1721667,326,-16697,-378,-9,74,-85
19,675,1721672,396,-16750,-660,-8,70,-84
19,676,1721677,410,-16717,-437,-8,73,-88
19,677,1721682,229,-16697,-72,-10,62,-91
19,678,1721687,46,-16607,-97,-10,35,-95
19,679,1721692,18,-16599,-454,-4,18,-95
19,680,1721697,15,-16571,-743,-4,22,-98
19,681,1721702,70,-16536,-551,-6,23,-97
19,682,1721707,-126,-16536,-428,-8,7,-101
19,683,1721712,-34,-16587,-728,-10,-11,-102
19,684,1721717,0,-16711,-954,-8,-5,-101
19,685,1721722,191,-16784,-941,-12,13,-106
19,686,1721727,136,-16725,-596,-18,31,-107
19,687,1721732,165,-16701,-607,-22,34,-109
19,688,1721737,88,-16687,-898,-22,42,-109
19,689,1721742,134,-16603,-987,-26,71,-107
19,690,1721747,176,-16502,-1030,-31,101,-106
19,691,1721752,278,-16395,-927,-40,128,-105
19,692,1721757,325,-16384,-714,-41,140,-103
19,693,1721762,299,-16399,-472,-45,143,-99
19,694,1721767,267,-16423,-416,-46,130,-92
19,695,1721772,323,-16519,-278,-51,117,-89
19,696,1721777,151,-16529,36,-55,87,-86
19,697,1721782,196,-16511,-35,-58,43,-80
19,698,1721787,164,-16482,-256,-60,8,-70
19,699,1721792,239,-16469,-418,-59,-28,-64
19,700,1721797,73,-16496,-265,-60,-62,-62
19,701,1721802,-44,-16475,-366,-65,-100,-58
19,702,1721807,-20,-16516,-726,-65,-120,-52
19,703,1721812,86,-16590,-1243,-59,-112,-45
19,704,1721817,117,-16545,-1295,-63,-81,-44
19,705,1721822,5,-16469,-983,-68,-54,-47
19,706,1721827,-55,-16489,-1016,-73,-46,-45
19,707,1721832,92,-16472,-1288,-72,-22,-41
19,708,1721837,208,-16498,-1219,-74,25,-37
19,709,1721842,242,-16410,-826,-80,56,-33
19,710,1721847,145,-16328,-407,-85,58,-30
19,711,1721852,124,-16235,-452,-87,40,-28
19,712,1721857,260,-16310,-677,-84,26,-24
19,713,1721862,333,-16315,-569,-83,29,-19
19,714,1721867,254,-16324,-198,-91,15,-13
19,715,1721872,111,-16310,-164,-94,-26,-11
19,716,1721877,112,-16323,-543,-93,-66,-7
19,717,1721882,126,-16372,-757,-93,-84,1
19,718,1721887,135,-16405,-622,-93,-89,7
19,719,1721892,83,-16403,-518,-93,-97,8
19,720,1721897,95,-16412,-744,-94,-112,10
19,721,1721902,156,-16409,-1157,-91,-114,10
19,722,1721907,124,-16420,-1190,-90,-94,13
19,723,1721912,60,-16449,-1032,-91,-72,16
19,724,1721917,88,-16506,-949,-91,-62,19
19,725,1721922,237,-16568,-1054,-88,-46,21
19,726,1721927,224,-16580,-971,-86,-23,23
19,727,1721932,200,-16568,-812,-85,-9,24
19,728,1721937,152,-16517,-682,-83,-12,23
19,729,1721942,327,-16377,-835,-85,-18,25
19,730,1721947,427,-16362,-752,-83,-17,28
19,731,1721952,285,-16355,-562,-85,-17,30
19,732,1721957,220,-16375,-566,-82,-28,32
19,733,1721962,248,-16391,-614,-79,-47,35
19,734,1721967,282,-16502,-703,-78,-54,38
19,735,1721972,221,-16519,-725,-78,-57,40
19,736,1721977,160,-16530,-740,-79,-55,39
19,737,1721982,244,-16528,-783,-78,-60,39
19,738,1721987,281,-16499,-910,-75,-60,45
19,739,1721992,192,-16457,-1035,-73,-51,44
19,740,1721997,210,-16454,-1004,-72,-38,42
19,741,1722002,259,-16443,-949,-70,-24,44
19,742,1722007,380,-16603,-892,-68,-7,44
19,743,1722012,413,-16629,-717,-69,6,43
19,744,1722017,268,-16554,-489,-65,4,43
19,745,1722022,162,-16475,-574,-63,-15,42
19,746,1722027,141,-16363,-682,-62,-30,44
19,747,1722032,227,-16303,-691,-57,-47,48
19,748,1722037,213,-16238,-582,-53,-67,48
19,749,1722042,203,-16245,-573,-51,-91,46
19,750,1722047,163,-16230,-803,-47,-112,48
19,751,1722052,194,-16278,-1028,-43,-113,51
19,752,1722057,216,-16272,-1002,-44,-104,49
19,753,1722062,194,-16293,-908,-39,-92,46
19,754,1722067,212,-16345,-999,-38,-80,45
19,755,1722072,280,-16433,-1113,-36,-61,44
19,756,1722077,368,-16519,-1057,-36,-38,43
19,757,1722082,364,-16575,-959,-33,-12,42
19,758,1722087,345,-16619,-872,-29,8,42
19,759,1722092,244,-16658,-880,-26,15,41
19,760,1722097,138,-16650,-858,-25,17,41
19,761,1722102,160,-16582,-883,-19,18,41
19,762,1722107,210,-16462,-831,-18,24,39
19,763,1722112,218,-16465,-823,-13,19,35
19,764,1722117,212,-16396,-846,-7,12,33
19,765,1722122,360,-16441,-834,-9,5,38
19,766,1722127,373,-16450,-737,-7,-2,38
19,767,1722132,66,-16416,-834,3,-5,29
19,768,1722137,51,-16392,-1039,8,-8,32
19,769,1722142,166,-16319,-997,10,0,30
19,770,1722147,195,-16290,-894,9,7,28
19,771,1722152,180,-16385,-836,13,7,23
19,772,1722157,218,-16415,-895,17,5,24
19,773,1722162,280,-16431,-802,18,8,23
19,774,1722167,260,-16441,-719,18,12,20
19,775,1722172,205,-16437,-726,23,12,17
19,776,1722177,161,-16486,-839,28,2,17
19,777,1722182,170,-16513,-917,27,3,16
19,778,1722187,239,-16485,-804,30,5,16
19,779,1722192,236,-16502,-700,33,3,14
19,780,1722197,227,-16508,-730,35,0,14
19,781,1722202,180,-16495,-837,39,-5,12
19,782,1722207,168,-16434,-923,43,-2,10
19,783,1722212,122,-16358,-895,46,-1,10
19,784,1722217,129,-16315,-822,49,1,6
19,785,1722222,235,-16334,-852,49,-2,4
19,786,1722227,234,-16310,-859,53,1,4
19,787,1722232,209,-16302,-845,57,6,-1
19,788,1722237,176,-16301,-810,58,7,-3
19,789,1722242,180,-16366,-794,60,5,-1
19,790,1722247,212,-16416,-827,61,2,-2
19,791,1722252,266,-16469,-855,63,4,-7
19,792,1722257,292,-16485,-753,64,8,-9
19,793,1722262,334,-16447,-675,67,8,-9
19,794,1722267,268,-16573,-751,69,9,-12
19,795,1722272,175,-16660,-782,71,8,-11
19,796,1722277,217,-16634,-830,71,9,-13
19,797,1722282,238,-16583,-792,73,10,-13
19,798,1722287,275,-16560,-724,70,15,-13
19,799,1722292,303,-16565,-741,72,16,-16
19,800,1722297,240,-16570,-781,77,12,-19
19,801,1722302,142,-16517,-829,78,9,-21
19,802,1722307,168,-16507,-866,78,7,-23
19,803,1722312,170,-16455,-854,79,9,-24
19,804,1722317,158,-16411,-826,79,15,-27
19,805,1722322,134,-16343,-836,78,17,-28
19,806,1722327,131,-16358,-896,83,16,-28
19,807,1722332,91,-16318,-949,82,19,-28
19,808,1722337,111,-16368,-895,82,25,-28
19,809,1722342,200,-16388,-863,84,31,-29
19,810,1722347,278,-16421,-759,84,36,-32
19,811,1722352,210,-16373,-696,85,36,-34
19,812,1722357,108,-16351,-734,85,36,-35
