event_id,seq,ts_ms,ax,ay,az,gx,gy,gz
1,0,88868,-3213,-16080,-1329,9,34,-1
1,1,88873,-3215,-16061,-1314,12,45,2
1,2,88878,-3191,-16123,-1276,16,47,4
1,3,88883,-3140,-16180,-1232,12,43,-1
1,4,88888,-3103,-16185,-1182,8,37,1
1,5,88893,-3138,-16167,-1186,9,30,0
1,6,88898,-3191,-16136,-1264,12,18,-4
1,7,88903,-3174,-16117,-1348,11,12,-5
1,8,88908,-3187,-16067,-1362,12,9,-1
1,9,88913,-3199,-16057,-1345,11,6,2
1,10,88918,-3146,-16074,-1319,12,0,1
1,11,88923,-3112,-16064,-1352,14,-1,0
1,12,88928,-3120,-16048,-1378,15,-2,-3
1,13,88933,-3120,-16041,-1349,12,-7,-3
1,14,88938,-3104,-15991,-1320,13,-10,-1
1,15,88943,-3059,-16050,-1353,16,-13,-4
1,16,88948,-3066,-16060,-1358,15,-19,-4
1,17,88953,-3068,-16071,-1273,14,-24,-4
1,18,88958,-3024,-16068,-1340,12,-35,-3
1,19,88963,-2956,-16049,-1407,15,-28,0
1,20,88968,-2950,-16054,-1372,12,-19,0
1,21,88973,-3003,-16040,-1350,14,-16,0
1,22,88978,-2988,-16001,-1353,12,-11,0
1,23,88983,-2947,-15976,-1372,14,-4,-1
1,24,88988,-2992,-16003,-1335,15,3,1
1,25,88993,-2987,-16023,-1271,14,4,2
1,26,88998,-3039,-16000,-1283,13,-1,7
1,27,89003,-3052,-15929,-1343,13,-5,3
1,28,89008,-3076,-15962,-1456,14,-9,2
1,29,89013,-3117,-15974,-1429,14,-10,8
1,30,89018,-3104,-15952,-1397,14,-12,5
1,31,89023,-3126,-15916,-1437,13,-10,3
1,32,89028,-3156,-15887,-1460,16,-10,2
1,33,89033,-3202,-15934,-1464,15,-12,3
1,34,89038,-3224,-16008,-1403,15,-15,4
1,35,89043,-3218,-16047,-1337,14,-21,1
1,36,89048,-3165,-16072,-1381,12,-21,0
1,37,89053,-3177,-16044,-1426,16,-24,2
1,38,89058,-3232,-15996,-1501,17,-26,0
1,39,89063,-3228,-15973,-1476,16,-26,-2
1,40,89068,-3186,-16039,-1437,14,-25,-2
1,41,89073,-3116,-16032,-1420,15,-22,-2
1,42,89078,-3141,-16038,-1350,17,-19,-4
1,43,89083,-3227,-15988,-1322,17,-18,-6
1,44,89088,-3237,-16012,-1396,16,-18,-7
1,45,89093,-3208,-16020,-1404,15,-17,-4
1,46,89098,-3109,-16083,-1358,17,-8,-2
1,47,89103,-3090,-16108,-1383,17,-1,-4
1,48,89108,-3084,-16071,-1385,17,5,-4
1,49,89113,-3131,-16061,-1478,18,13,-5
1,50,89118,-3160,-16071,-1412,18,19,-6
1,51,89123,-3134,-16046,-1403,18,20,-6
1,52,89128,-3084,-16055,-1336,17,20,-6
1,53,89133,-3057,-16060,-1350,17,20,-4
1,54,89138,-3035,-16102,-1417,17,19,-6
1,55,89143,-3107,-16105,-1346,17,17,-5
1,56,89148,-3105,-16072,-1281,14,9,-7
1,57,89153,-3084,-16089,-1250,13,-2,-10
1,58,89158,-3103,-16143,-1253,16,-14,-8
1,59,89163,-3172,-16138,-1290,14,-20,-7
1,60,89168,-3114,-16141,-1382,13,-23,-7
1,61,89173,-3062,-16142,-1390,14,-25,-8
1,62,89178,-3064,-16133,-1403,15,-23,-6
1,63,89183,-3087,-16085,-1383,13,-18,-8
1,64,89188,-3075,-16053,-1378,13,-15,-9
1,65,89193,-3104,-16127,-1347,15,-6,-9
1,66,89198,-3083,-16198,-1250,14,-8,-5
1,67,89203,-3126,-16216,-1166,11,-14,-8
1,68,89208,-3144,-16237,-1126,7,-23,-9
1,69,89213,-3117,-16228,-1245,8,-27,-11
1,70,89218,-3089,-16263,-1371,10,-29,-10
1,71,89223,-3120,-16234,-1466,8,-25,-10
1,72,89228,-3141,-16151,-1410,4,-25,-11
1,73,89233,-3150,-16099,-1416,7,-21,-10
1,74,89238,-3143,-16034,-1503,10,-9,-12
1,75,89243,-3182,-16036,-1564,13,5,-9
1,76,89248,-3165,-16028,-1449,12,14,-11
1,77,89253,-3175,-16073,-1345,11,10,-14
1,78,89258,-3156,-16134,-1267,10,9,-12
1,79,89263,-3119,-16144,-1192,7,5,-11
1,80,89268,-3114,-16119,-1185,4,2,-10
1,81,89273,-3078,-16120,-1267,5,1,-10
1,82,89278,-3008,-16122,-1470,7,-2,-11
1,83,89283,-3004,-16110,-1518,6,1,-10
1,84,89288,-3049,-16111,-1364,5,1,-9
1,85,89293,-3102,-16026,-1261,3,0,-13
1,86,89298,-3138,-15994,-1364,5,1,-11
1,87,89303,-3119,-16030,-1400,6,4,-12
1,88,89308,-3116,-16086,-1325,5,5,-11
1,89,89313,-3107,-16087,-1246,2,-5,-9
1,90,89318,-3071,-16047,-1246,2,-14,-16
1,91,89323,-3160,-16013,-1269,0,-22,-13
1,92,89328,-3091,-16076,-1244,0,-24,-12
1,93,89333,-3062,-16161,-1254,-1,-32,-10
1,94,89338,-3083,-16083,-1360,-4,-37,-10
1,95,89343,-3101,-16045,-1423,-3,-37,-14
1,96,89348,-3153,-16047,-1466,-1,-34,-14
1,97,89353,-3159,-16014,-1453,-1,-31,-14
1,98,89358,-3162,-16057,-1354,-3,-25,-15
1,99,89363,-3139,-16084,-1263,-5,-21,-14
1,100,89368,-3156,-16096,-1331,-4,-17,-12
1,101,89373,-3202,-16089,-1412,-2,-12,-16
1,102,89378,-3199,-16072,-1509,-1,-6,-16
1,103,89383,-3126,-16044,-1474,2,0,-13
1,104,89388,-3101,-16098,-1387,-2,8,-15
1,105,89393,-3078,-16094,-1303,0,11,-15
1,106,89398,-3102,-16110,-1286,-3,15,-17
1,107,89403,-3087,-16089,-1339,-1,16,-14
1,108,89408,-3050,-16106,-1338,-2,17,-12
1,109,89413,-2990,-16122,-1327,-6,16,-10
1,110,89418,-2969,-16125,-1271,-5,9,-13
1,111,89423,-3019,-16080,-1219,-2,1,-15
1,112,89428,-3019,-16080,-1249,-7,-10,-13
1,113,89433,-3064,-16120,-1259,-9,-19,-15
1,114,89438,-3069,-16156,-1245,-5,-25,-12
1,115,89443,-3059,-16141,-1217,-8,-36,-9
1,116,89448,-3048,-16100,-1252,-8,-46,-11
1,117,89453,-3109,-16099,-1309,-7,-49,-14
1,118,89458,-3094,-16106,-1316,-8,-52,-12
1,119,89463,-3122,-16123,-1294,-7,-53,-11
1,120,89468,-3169,-16136,-1264,-9,-54,-14
1,121,89473,-3159,-16106,-1326,-7,-52,-13
1,122,89478,-3113,-16063,-1452,-9,-47,-13
1,123,89483,-3054,-16084,-1539,-8,-34,-15
1,124,89488,-3055,-16055,-1454,-7,-19,-9
1,125,89493,-3096,-16115,-1361,-6,-11,-10
1,126,89498,-3148,-16108,-1304,-5,-1,-12
1,127,89503,-3142,-16066,-1378,-6,8,-10
1,128,89508,-3092,-16076,-1332,-9,11,-10
1,129,89513,-3110,-16118,-1323,-8,8,-10
1,130,89518,-3110,-16059,-1305,-10,2,-9
1,131,89523,-3148,-16037,-1322,-10,-5,-10
1,132,89528,-3154,-16035,-1332,-8,-11,-12
1,133,89533,-3142,-16041,-1363,-7,-14,-13
1,134,89538,-3140,-16052,-1321,-6,-18,-12
1,135,89543,-3095,-16097,-1359,-6,-22,-11
1,136,89548,-3168,-16102,-1380,-8,-30,-11
1,137,89553,-3151,-16108,-1340,-9,-31,-14
1,138,89558,-3165,-16065,-1355,-7,-25,-14
1,139,89563,-3188,-16099,-1343,-6,-19,-14
1,140,89568,-3177,-16086,-1393,-6,-14,-10
1,141,89573,-3143,-16075,-1424,-5,-10,-13
1,142,89578,-3125,-16089,-1380,-5,-2,-13
1,143,89583,-3095,-16013,-1364,-7,3,-15
1,144,89588,-3171,-15978,-1331,-5,2,-15
1,145,89593,-3145,-15994,-1329,-7,6,-14
1,146,89598,-3029,-16045,-1355,-6,11,-16
1,147,89603,-2969,-16056,-1337,-9,13,-14
1,148,89608,-2991,-16032,-1380,-8,16,-15
1,149,89613,-3009,-15986,-1424,-5,17,-14
1,150,89618,-3005,-15964,-1379,-7,17,-12
1,151,89623,-2984,-15939,-1311,-7,14,-11
1,152,89628,-2961,-16020,-1250,-4,8,-10
1,153,89633,-3009,-16089,-1164,-8,-3,-10
1,154,89638,-3038,-16108,-1177,-8,-22,-7
1,155,89643,-3020,-16114,-1275,-8,-31,-8
1,156,89648,-2992,-16109,-1343,-10,-33,-9
1,157,89653,-2962,-16125,-1394,-9,-32,-8
1,158,89658,-2981,-16130,-1367,-7,-30,-8
1,159,89663,-3017,-16129,-1393,-6,-23,-6
1,160,89668,-3017,-16163,-1373,-7,-16,-5
1,161,89673,-3062,-16148,-1339,-8,-13,-5
1,162,89678,-3055,-16169,-1234,-9,-10,-3
1,163,89683,-3061,-16141,-1188,-10,-13,-1
1,164,89688,-3038,-16154,-1267,-11,-16,-5
1,165,89693,-3138,-16134,-1327,-13,-23,-3
1,166,89698,-3188,-16091,-1327,-14,-27,-3
1,167,89703,-3192,-16094,-1303,-12,-29,-4
1,168,89708,-3154,-16105,-1359,-10,-31,-3
1,169,89713,-3136,-16108,-1428,-10,-29,-2
1,170,89718,-3110,-16089,-1459,-10,-24,-6
1,171,89723,-3133,-16100,-1399,-10,-22,-5
1,172,89728,-3179,-16080,-1316,-11,-23,-4
1,173,89733,-3195,-16059,-1365,-7,-21,-5
1,174,89738,-3127,-16079,-1365,-4,-17,-3
1,175,89743,-3069,-16134,-1393,-8,-13,-3
1,176,89748,-3081,-16069,-1400,-9,-12,-6
1,177,89753,-3153,-16028,-1390,-8,-12,-3
1,178,89758,-3106,-16042,-1410,-6,-11,-1
1,179,89763,-3099,-16075,-1383,-6,-1,-2
1,180,89768,-3096,-16082,-1324,-7,5,-4
1,181,89773,-3106,-16057,-1242,-5,2,-3
1,182,89778,-3117,-16055,-1326,-3,0,-2
1,183,89783,-3140,-16036,-1367,-1,-3,-2
1,184,89788,-3104,-16060,-1367,-1,-4,-1
1,185,89793,-3120,-16183,-1322,-2,-5,-2
1,186,89798,-3096,-16206,-1254,-7,-11,-3
1,187,89803,-3061,-16104,-1219,-7,-13,-2
1,188,89808,-3041,-16088,-1278,-3,-13,-1
1,189,89813,-3061,-16075,-1293,-3,-13,-2
1,190,89818,-3035,-16111,-1386,-2,-11,1
1,191,89823,-3043,-16094,-1298,-6,-10,3
1,192,89828,-3051,-16048,-1325,-4,-12,0
1,193,89833,-3078,-16006,-1330,-1,-14,1
1,194,89838,-3088,-15994,-1378,0,-14,2
1,195,89843,-3098,-16005,-1396,0,-16,3
1,196,89848,-3071,-15992,-1405,-1,-18,3
1,197,89853,-3021,-16013,-1379,-2,-19,2
1,198,89858,-3025,-16018,-1391,-4,-16,2
1,199,89863,-3091,-15996,-1396,-2,-15,1
1,200,89868,-3140,-15993,-1403,0,-14,2
1,201,89873,-3162,-15992,-1463,1,-14,4
1,202,89878,-3125,-15982,-1424,2,-14,4
1,203,89883,-3117,-16014,-1418,3,-11,5
1,204,89888,-3058,-16008,-1425,2,-7,2
1,205,89893,-3048,-16066,-1375,4,-2,3
1,206,89898,-3079,-16089,-1341,2,7,3
1,207,89903,-3114,-16120,-1312,2,10,3
1,208,89908,-3088,-16097,-1324,2,9,2
1,209,89913,-3088,-16085,-1288,1,5,2
1,210,89918,-3125,-16101,-1283,1,0,3
1,211,89923,-3101,-16111,-1293,0,-7,3
1,212,89928,-3128,-16090,-1347,1,-10,2
1,213,89933,-3101,-16063,-1360,-2,-12,3
1,214,89938,-3070,-16063,-1372,-2,-13,5
1,215,89943,-3063,-16038,-1351,4,-12,3
1,216,89948,-3088,-16032,-1416,3,-13,4
1,217,89953,-3072,-16009,-1412,3,-17,5
1,218,89958,-3130,-15969,-1390,1,-20,2
1,219,89963,-3148,-15983,-1358,1,-27,3
1,220,89968,-3168,-16027,-1356,-1,-31,3
1,221,89973,-3181,-16049,-1401,2,-33,0
1,222,89978,-3152,-16100,-1439,1,-31,0
1,223,89983,-3123,-16114,-1492,3,-24,1
1,224,89988,-3149,-16113,-1481,6,-13,2
1,225,89993,-3216,-16115,-1426,7,2,2
1,226,89998,-3183,-16095,-1401,6,13,1
1,227,90003,-3133,-16107,-1372,6,21,-1
1,228,90008,-3128,-16186,-1313,4,29,1
1,229,90013,-3161,-16209,-1245,4,30,3
1,230,90018,-3195,-16175,-1249,5,27,2
1,231,90023,-3172,-16110,-1346,1,24,0
1,232,90028,-3140,-16069,-1466,4,25,0
1,233,90033,-3093,-16120,-1478,4,29,-1
1,234,90038,-3076,-16083,-1396,2,29,1
1,235,90043,-3150,-16034,-1399,2,22,-2
1,236,90048,-3134,-16050,-1378,6,14,-3
1,237,90053,-3085,-16047,-1343,5,9,0
1,238,90058,-3071,-16087,-1262,4,-9,-3
1,239,90063,-3087,-16079,-1247,0,-25,-2
1,240,90068,-3159,-16121,-1271,-1,-35,-3
1,241,90073,-3181,-16125,-1329,3,-39,-1
1,242,90078,-3155,-16104,-1360,4,-34,0
1,243,90083,-3056,-16137,-1416,0,-26,0
1,244,90088,-2991,-16154,-1477,2,-17,0
1,245,90093,-3063,-16107,-1420,-1,-4,-1
1,246,90098,-3164,-16103,-1360,-1,7,1
1,247,90103,-3154,-16087,-1364,2,13,0
1,248,90108,-3037,-16080,-1413,1,23,2
1,249,90113,-3001,-16071,-1418,2,30,3
1,250,90118,-2991,-16055,-1315,1,32,1
1,251,90123,-3002,-16075,-1293,0,23,-4
1,252,90128,-3005,-16049,-1322,-1,18,1
1,253,90133,-3029,-16023,-1353,-3,10,2
1,254,90138,-3004,-16012,-1376,-2,5,3
1,255,90143,-2991,-16028,-1352,0,-2,5
1,256,90148,-2964,-16021,-1303,-4,-15,0
1,257,90153,-2977,-16042,-1344,-5,-25,1
1,258,90158,-3000,-16078,-1366,-4,-31,5
1,259,90163,-3084,-16050,-1331,-3,-34,5
1,260,90168,-3127,-16050,-1358,-5,-43,3
1,261,90173,-3159,-16043,-1395,-4,-48,3
1,262,90178,-3150,-16051,-1398,-3,-45,8
1,263,90183,-3112,-16072,-1418,-4,-41,7
1,264,90188,-3077,-16052,-1523,-4,-33,4
1,265,90193,-3100,-16077,-1520,-1,-25,5
1,266,90198,-3162,-16080,-1474,-3,-14,4
1,267,90203,-3140,-16069,-1448,-4,-7,5
1,268,90208,-3106,-16073,-1440,-2,-1,2
1,269,90213,-3094,-16010,-1456,0,3,5
1,270,90218,-3069,-15983,-1418,-2,5,5
1,271,90223,-3117,-15988,-1340,-3,4,3
1,272,90228,-3119,-16004,-1387,0,-1,4
1,273,90233,-3119,-15998,-1415,1,-6,3
1,274,90238,-3117,-16017,-1388,0,-11,4
1,275,90243,-3093,-16035,-1378,0,-14,5
1,276,90248,-3050,-16069,-1432,0,-17,5
1,277,90253,-3023,-16065,-1450,0,-15,5
1,278,90258,-3031,-16074,-1371,2,-17,5
1,279,90263,-3120,-16060,-1342,-1,-19,2
1,280,90268,-3170,-16063,-1347,2,-23,2
1,281,90273,-3182,-16080,-1357,1,-25,3
1,282,90278,-3128,-16097,-1363,1,-20,5
1,283,90283,-3096,-16156,-1384,-2,-17,4
1,284,90288,-3174,-16094,-1380,-3,-21,4
1,285,90293,-3254,-16122,-1427,-4,-23,1
1,286,90298,-3240,-16088,-1448,-3,-21,-1
1,287,90303,-3228,-16087,-1466,-1,-17,1
1,288,90308,-3207,-16109,-1419,2,-12,1
1,289,90313,-3244,-16114,-1392,2,-5,-1
1,290,90318,-3272,-16081,-1369,1,-5,-4
1,291,90323,-3288,-16115,-1444,4,-4,-5
1,292,90328,-3319,-16142,-1466,4,3,-3
1,293,90333,-3187,-16111,-1437,1,11,-4
1,294,90338,-3159,-16125,-1373,0,17,-5
1,295,90343,-3160,-16100,-1392,0,19,-7
1,296,90348,-3146,-16112,-1438,1,24,-5
1,297,90353,-3119,-16127,-1390,5,31,-7
1,298,90358,-3094,-16133,-1369,3,34,-6
1,299,90363,-3044,-16145,-1353,2,29,-8
1,300,90368,-3074,-16073,-1385,2,27,-9
1,301,90373,-3031,-16041,-1379,-1,27,-9
1,302,90378,-2994,-16020,-1370,-1,18,-8
1,303,90383,-2974,-16044,-1321,-1,11,-7
1,304,90388,-2973,-16051,-1422,0,6,-5
1,305,90393,-2970,-16051,-1588,1,1,-6
1,306,90398,-2887,-16021,-1640,2,1,-7
1,307,90403,-2899,-16012,-1521,1,-1,-4
1,308,90408,-2888,-16019,-1354,-1,-4,-3
1,309,90413,-2881,-16010,-1308,-5,-9,-6
1,310,90418,-2874,-16005,-1341,1,-7,-5
1,311,90423,-2930,-16028,-1276,-3,-23,-3
1,312,90428,-3007,-16069,-1210,-6,-37,-5
1,313,90433,-3030,-16091,-1250,-5,-49,-6
1,314,90438,-2970,-16110,-1387,-5,-47,-1
1,315,90443,-2896,-16157,-1481,-4,-40,0
1,316,90448,-2992,-16143,-1476,-8,-37,-2
1,317,90453,-3042,-16073,-1430,-7,-37,-4
1,318,90458,-3005,-16042,-1389,-9,-41,-6
1,319,90463,-3101,-16028,-1418,-10,-39,-3
1,320,90468,-3127,-16037,-1423,-8,-38,-3
1,321,90473,-3144,-16041,-1422,-12,-46,-2
1,322,90478,-3177,-16054,-1414,-14,-54,-3
1,323,90483,-3155,-16055,-1472,-12,-61,-3
1,324,90488,-3162,-15974,-1507,-11,-61,-5
1,325,90493,-3199,-15948,-1558,-14,-52,-7
1,326,90498,-3211,-15944,-1631,-9,-47,-6
1,327,90503,-3229,-15970,-1579,-12,-42,-9
1,328,90508,-3238,-15983,-1543,-12,-39,-10
1,329,90513,-3229,-15993,-1485,-7,-34,-9
1,330,90518,-3169,-16012,-1429,-9,-29,-7
1,331,90523,-3122,-16079,-1400,-9,-28,-10
1,332,90528,-3201,-16078,-1397,-9,-25,-11
1,333,90533,-3224,-16074,-1380,-12,-27,-11
1,334,90538,-3222,-16070,-1395,-9,-29,-12
1,335,90543,-3237,-16082,-1420,-9,-27,-14
1,336,90548,-3225,-16116,-1363,-10,-26,-15
1,337,90553,-3193,-16120,-1397,-10,-25,-14
1,338,90558,-3209,-16094,-1444,-10,-23,-12
1,339,90563,-3175,-16133,-1479,-9,-22,-14
1,340,90568,-3169,-16159,-1465,-12,-22,-16
1,341,90573,-3201,-16133,-1376,-11,-28,-18
1,342,90578,-3229,-16117,-1292,-9,-33,-17
1,343,90583,-3279,-16075,-1297,-9,-39,-17
1,344,90588,-3319,-16090,-1332,-9,-51,-17
1,345,90593,-3348,-16089,-1324,-7,-62,-13
1,346,90598,-3309,-16026,-1299,-8,-73,-15
1,347,90603,-3230,-15982,-1281,-12,-79,-15
1,348,90608,-3176,-16014,-1254,-11,-81,-11
1,349,90613,-3138,-15975,-1237,-13,-79,-9
1,350,90618,-2994,-15963,-1282,-13,-78,-4
1,351,90623,-2801,-15986,-1284,-14,-77,1
1,352,90628,-2673,-16048,-1297,-10,-73,8
1,353,90633,-2825,-16115,-1195,-9,-81,13
1,354,90638,-2797,-16148,-1338,-11,-96,19
1,355,90643,-2636,-16048,-1392,-11,-99,29
1,356,90648,-2371,-16079,-1437,-6,-81,42
1,357,90653,-2443,-16168,-1302,-5,-55,52
1,358,90658,-2684,-16284,-1152,-2,-54,61
1,359,90663,-2976,-16269,-926,-5,-72,67
1,360,90668,-3153,-16217,-866,-10,-104,75
1,361,90673,-3186,-16192,-574,-11,-138,84
1,362,90678,-3264,-16214,-428,-15,-196,96
1,363,90683,-3456,-16244,-327,-21,-268,101
1,364,90688,-3670,-16247,-412,-24,-355,109
1,365,90693,-3857,-16188,-625,-23,-436,116
1,366,90698,-3996,-16130,-685,-27,-504,124
1,367,90703,-4067,-16039,-834,-30,-558,135
1,368,90708,-4277,-15939,-1123,-30,-590,142
1,369,90713,-4487,-15892,-1575,-25,-591,154
1,370,90718,-4539,-15816,-2199,-17,-554,167
1,371,90723,-4545,-15891,-2677,-10,-473,177
1,372,90728,-4502,-15622,-2618,0,-358,189
1,373,90733,-4548,-15450,-2797,10,-222,202
1,374,90738,-4318,-15467,-3088,25,-64,222
1,375,90743,-4233,-15504,-3177,41,100,237
1,376,90748,-4173,-15499,-2476,44,229,247
1,377,90753,-4385,-15351,-1614,39,291,257
1,378,90758,-4455,-15156,-1345,43,307,263
1,379,90763,-4503,-15142,-1263,51,316,282
1,380,90768,-4409,-15051,-1324,51,304,300
1,381,90773,-4380,-15128,-1040,46,264,318
1,382,90778,-4239,-15044,-994,38,201,327
1,383,90783,-4242,-14912,-1148,38,143,337
1,384,90788,-4276,-14921,-1336,45,100,355
1,385,90793,-4484,-15076,-1082,42,1,395
1,386,90798,-4219,-15117,-1013,39,-64,413
1,387,90803,-4197,-15082,-1042,40,-106,426
1,388,90808,-4502,-15093,-1098,45,-127,442
1,389,90813,-4860,-15150,-1412,47,-144,464
1,390,90818,-4965,-15162,-1720,48,-146,483
1,391,90823,-4804,-15317,-1898,49,-120,503
1,392,90828,-4611,-15400,-2044,51,-72,522
1,393,90833,-4685,-15450,-2101,56,-5,538
1,394,90838,-5016,-15448,-2216,57,66,555
1,395,90843,-5157,-15324,-2066,57,139,573
1,396,90848,-5094,-15294,-1941,57,205,595
1,397,90853,-4949,-15310,-1700,58,268,618
1,398,90858,-4991,-15287,-1599,58,313,637
1,399,90863,-4998,-15265,-1518,55,340,657
1,400,90868,-4931,-15162,-1367,51,344,677
1,401,90873,-5023,-15119,-1038,49,329,696
1,402,90878,-5189,-15143,-709,46,290,713
1,403,90883,-5387,-15095,-745,41,229,733
1,404,90888,-5660,-15195,-810,36,168,754
1,405,90893,-5308,-15149,-549,33,100,773
1,406,90898,-5195,-15704,-1166,37,19,789
1,407,90903,-5374,-15065,-1362,39,1,767
1,408,90908,-5674,-14901,-2051,19,19,812
1,409,90913,-5867,-15420,-1645,4,90,864
1,410,90918,-6127,-15348,-853,13,119,869
1,411,90923,-6067,-15430,-1353,17,62,885
1,412,90928,-6055,-15253,-1986,8,31,900
1,413,90933,-6098,-15150,-2289,6,81,920
1,414,90938,-6438,-15127,-2066,6,183,938
1,415,90943,-6588,-15065,-1932,2,257,952
1,416,90948,-6418,-15185,-2066,-7,294,974
1,417,90953,-6388,-15310,-1872,-9,322,990
1,418,90958,-6472,-15344,-1379,-10,334,1000
1,419,90963,-6542,-15335,-1210,-19,307,1015
1,420,90968,-6541,-15329,-1302,-26,265,1031
1,421,90973,-6556,-15320,-1371,-35,231,1047
1,422,90978,-6673,-15395,-1283,-44,210,1063
1,423,90983,-6746,-15460,-1159,-51,177,1083
1,424,90988,-6780,-15546,-1211,-56,132,1093
1,425,90993,-6773,-15642,-1235,-63,87,1103
1,426,90998,-6831,-15617,-1153,-70,45,1117
1,427,91003,-6906,-15598,-1177,-77,11,1131
1,428,91008,-7051,-15526,-1342,-81,-14,1143
1,429,91013,-7247,-15475,-1640,-89,-33,1156
1,430,91018,-7247,-15467,-1667,-90,-46,1173
1,431,91023,-7165,-15399,-1542,-96,-49,1186
1,432,91028,-7269,-15345,-1689,-101,-43,1194
1,433,91033,-7392,-15274,-1925,-101,-31,1200
1,434,91038,-7479,-15252,-2068,-102,-7,1212
1,435,91043,-7428,-15152,-2043,-108,23,1224
1,436,91048,-7377,-15126,-1776,-113,46,1233
1,437,91053,-7511,-15112,-1568,-116,52,1235
1,438,91058,-7644,-15062,-1572,-120,33,1239
1,439,91063,-7730,-14972,-1533,-124,0,1245
1,440,91068,-7741,-14945,-1500,-129,-44,1247
1,441,91073,-7696,-14907,-1333,-136,-98,1249
1,442,91078,-7890,-14819,-1189,-141,-163,1244
1,443,91083,-8306,-14684,-1095,-142,-237,1238
1,444,91088,-8949,-14638,-1248,-143,-318,1237
1,445,91093,-9136,-14570,-1550,-145,-384,1243
1,446,91098,-8662,-14659,-1949,-146,-407,1247
1,447,91103,-8245,-14779,-2254,-140,-378,1245
1,448,91108,-8296,-14856,-2605,-131,-310,1239
1,449,91113,-8625,-14684,-2715,-125,-225,1237
1,450,91118,-8939,-14547,-2657,-120,-138,1229
1,451,91123,-9031,-14427,-2378,-116,-53,1222
1,452,91128,-8876,-14495,-1995,-115,20,1216
1,453,91133,-8743,-14500,-1728,-112,76,1207
1,454,91138,-8763,-14572,-1514,-112,106,1192
1,455,91143,-9018,-14421,-1440,-117,94,1171
1,456,91148,-9228,-14312,-1258,-123,50,1157
1,457,91153,-9234,-14278,-1190,-127,-4,1145
1,458,91158,-9341,-14119,-1014,-129,-105,1119
1,459,91163,-9537,-14072,-1289,-130,-156,1102
1,460,91168,-9421,-14048,-1791,-125,-187,1087
1,461,91173,-8948,-14120,-2209,-120,-167,1073
1,462,91178,-8668,-14164,-2169,-113,-114,1057
1,463,91183,-8872,-14165,-2038,-106,-68,1039
1,464,91188,-9165,-14027,-2058,-102,-33,1018
1,465,91193,-9267,-13891,-2020,-98,-2,1003
1,466,91198,-9203,-13935,-1690,-92,33,990
1,467,91203,-9045,-14019,-1286,-92,56,974
1,468,91208,-8927,-14026,-1041,-94,51,950
1,469,91213,-9056,-13950,-1173,-91,26,926
1,470,91218,-9302,-13886,-1407,-91,0,901
1,471,91223,-9400,-13740,-1382,-91,-25,881
1,472,91228,-9371,-13692,-1236,-89,-48,860
1,473,91233,-9368,-13693,-1176,-93,-74,834
1,474,91238,-9461,-13591,-1347,-87,-96,810
1,475,91243,-9400,-13462,-1707,-81,-97,789
1,476,91248,-9291,-13375,-1819,-78,-71,768
1,477,91253,-9315,-13365,-1747,-73,-42,743
1,478,91258,-9313,-13280,-1743,-64,-20,719
1,479,91263,-9211,-13209,-1822,-60,2,697
1,480,91268,-9172,-13123,-1731,-56,18,671
1,481,91273,-9283,-13013,-1599,-50,26,644
1,482,91278,-9307,-12939,-1532,-46,19,619
1,483,91283,-9224,-12844,-1546,-45,0,592
1,484,91288,-9102,-12804,-1530,-41,-18,565
1,485,91293,-9080,-12732,-1401,-37,-44,540
1,486,91298,-9202,-12584,-1282,-33,-80,511
1,487,91303,-9274,-12443,-1405,-31,-118,480
1,488,91308,-9209,-12256,-1555,-25,-146,450
1,489,91313,-9221,-12258,-1373,-23,-174,422
1,490,91318,-9423,-12223,-1118,-21,-217,393
1,491,91323,-9478,-12239,-974,-18,-265,365
1,492,91328,-9540,-12254,-1153,-15,-289,337
1,493,91333,-9375,-12514,-1721,-5,-273,313
1,494,91338,-8933,-12686,-2151,9,-222,292
1,495,91343,-8591,-12732,-2441,13,-153,266
1,496,91348,-8969,-12699,-1839,21,-73,231
1,497,91353,-9320,-12538,-2048,26,-9,199
1,498,91358,-9332,-12463,-2168,37,71,172
1,499,91363,-9119,-12543,-1803,41,143,152
1,500,91368,-8876,-12704,-1164,44,181,126
1,501,91373,-8885,-12759,-716,39,163,87
1,502,91378,-9052,-12650,-739,42,108,51
1,503,91383,-9216,-12520,-1080,48,46,24
1,504,91388,-9315,-12428,-1066,50,-8,-2
1,505,91393,-9228,-12442,-955,45,-65,-27
1,506,91398,-9053,-12473,-919,42,-128,-64
1,507,91403,-9103,-12408,-1025,49,-187,-101
1,508,91408,-9317,-12323,-1139,52,-235,-132
1,509,91413,-9510,-12291,-1058,58,-278,-161
1,510,91418,-9594,-12253,-917,58,-324,-195
1,511,91423,-9671,-12371,-857,61,-366,-225
1,512,91428,-9629,-12438,-1044,66,-389,-256
1,513,91433,-9523,-12548,-1543,75,-385,-289
1,514,91438,-9451,-12617,-1808,82,-344,-318
1,515,91443,-9463,-12631,-2021,85,-273,-351
1,516,91448,-9397,-12618,-2166,92,-188,-381
1,517,91453,-9325,-12583,-2253,104,-83,-410
1,518,91458,-9333,-12571,-2186,112,34,-442
1,519,91463,-9521,-12645,-1882,116,140,-474
1,520,91468,-9674,-12671,-1555,123,214,-507
1,521,91473,-9593,-12734,-1329,125,266,-539
1,522,91478,-9419,-12794,-1200,132,302,-573
1,523,91483,-9256,-12911,-1202,138,332,-605
1,524,91488,-9166,-13002,-1098,139,345,-633
1,525,91493,-9104,-13015,-1014,138,338,-669
1,526,91498,-9109,-12971,-887,142,312,-704
1,527,91503,-9041,-12933,-785,143,274,-738
1,528,91508,-9052,-12920,-611,147,218,-770
1,529,91513,-9038,-13003,-456,147,143,-804
1,530,91518,-9025,-12994,-515,146,49,-838
1,531,91523,-8872,-13046,-690,148,-132,-901
1,532,91528,-8842,-13101,-825,149,-196,-931
1,533,91533,-8815,-13226,-1145,149,-238,-961
1,534,91538,-8668,-13357,-1582,156,-244,-989
1,535,91543,-8367,-13461,-2076,165,-206,-1015
1,536,91548,-8116,-13565,-2226,171,-133,-1044
1,537,91553,-8097,-13642,-2123,175,-55,-1073
1,538,91558,-8262,-13632,-1970,178,29,-1107
1,539,91563,-8554,-13633,-1790,186,110,-1132
1,540,91568,-8589,-13724,-1742,192,187,-1158
1,541,91573,-8269,-13806,-1702,200,252,-1183
1,542,91578,-7910,-13895,-1571,205,299,-1210
1,543,91583,-7804,-13985,-1248,206,325,-1240
1,544,91588,-7833,-14043,-932,207,313,-1270
1,545,91593,-7902,-14050,-771,211,275,-1300
1,546,91598,-7843,-14115,-523,213,219,-1326
1,547,91603,-7730,-14246,-179,212,140,-1354
1,548,91608,-7602,-14322,70,211,34,-1381
1,549,91613,-7531,-14450,91,206,-83,-1409
1,550,91618,-7408,-14616,-52,201,-196,-1436
1,551,91623,-7324,-14665,-209,199,-286,-1463
1,552,91628,-7260,-14848,-437,191,-354,-1481
1,553,91633,-6988,-15051,-966,190,-403,-1503
1,554,91638,-7006,-15075,-1300,194,-415,-1530
1,555,91643,-7047,-15010,-1520,192,-402,-1554
1,556,91648,-7020,-15020,-1730,194,-349,-1577
1,557,91653,-6929,-15088,-1802,201,-255,-1600
1,558,91658,-6706,-15292,-1922,209,-148,-1619
1,559,91663,-6518,-15404,-1745,210,-44,-1636
1,560,91668,-6336,-15498,-1540,208,45,-1658
1,561,91673,-6199,-15542,-1206,209,117,-1678
1,562,91678,-6101,-15582,-1051,211,175,-1697
1,563,91683,-6012,-15628,-912,210,212,-1716
1,564,91688,-5848,-15695,-803,209,225,-1731
1,565,91693,-5648,-15769,-435,208,207,-1748
1,566,91698,-5542,-15814,-66,202,157,-1763
1,567,91703,-5478,-15910,54,202,89,-1778
1,568,91708,-5354,-15948,-210,200,9,-1794
1,569,91713,-5131,-16033,-408,198,-65,-1805
1,570,91718,-4905,-16112,-391,196,-130,-1818
1,571,91723,-4860,-16210,-185,186,-192,-1832
1,572,91728,-4914,-16263,-198,179,-255,-1847
1,573,91733,-5028,-16241,-446,176,-297,-1859
1,574,91738,-4862,-16331,-796,175,-314,-1866
1,575,91743,-4481,-16528,-952,170,-310,-1871
1,576,91748,-4184,-16690,-808,163,-307,-1881
1,577,91753,-4132,-16756,-612,159,-311,-1893
1,578,91758,-4165,-16723,-720,156,-314,-1904
1,579,91763,-4134,-16700,-874,150,-298,-1908
1,580,91768,-4070,-16798,-947,150,-282,-1911
1,581,91773,-3936,-16932,-661,146,-272,-1918
1,582,91778,-3914,-16992,-224,133,-283,-1922
1,583,91783,-3859,-16960,-249,122,-299,-1924
1,584,91788,-3611,-17035,-662,118,-293,-1920
1,585,91793,-3217,-17168,-1069,118,-252,-1918
1,586,91798,-2991,-17233,-1200,115,-203,-1915
1,587,91803,-3010,-17280,-1133,109,-165,-1912
1,588,91808,-3076,-17206,-957,110,-136,-1911
1,589,91813,-3062,-17153,-809,111,-102,-1910
1,590,91818,-2945,-17179,-766,113,-72,-1904
1,591,91823,-2767,-17206,-531,114,-57,-1894
1,592,91828,-2467,-17252,-478,109,-65,-1891
1,593,91833,-2282,-17356,-208,102,-87,-1884
1,594,91838,-2234,-17449,51,96,-122,-1877
1,595,91843,-2170,-17451,89,97,-179,-1870
1,596,91848,-2115,-17438,81,88,-248,-1863
1,597,91853,-2051,-17468,55,81,-319,-1852
1,598,91858,-1838,-17454,57,72,-387,-1843
1,599,91863,-1543,-17677,302,61,-453,-1830
1,600,91868,20282,-15089,1549,-27,-543,-1839
1,601,91875,-32768,18587,18095,-479,-10504,-2702
1,602,91878,-12006,19075,-32768,102,-21683,459
1,603,91883,-12006,19075,-32768,102,-21683,459
1,604,91888,32767,-16569,-32768,408,-12704,3939
1,605,91893,-28801,-16052,32767,-517,12024,-1459
1,606,91898,-32768,11228,-4833,509,-2266,-1294
1,607,91903,-16483,-4422,-32768,853,-1912,1902
1,608,91908,32767,-32768,-28594,548,3306,2514
1,609,91913,30373,-28894,16215,-414,7213,567
1,610,91918,-23021,-14227,32767,-333,6482,-669
1,611,91923,-32768,-5162,6706,163,2561,-156
1,612,91928,-14568,-10326,-32768,579,2752,872
1,613,91933,28872,-23805,-21889,61,4000,1181
1,614,91938,26857,-27429,20355,-481,4353,482
1,615,91943,-12560,-15422,32767,-345,2408,-249
1,616,91948,-31286,-9223,18152,50,-420,38
1,617,91953,-10503,-12743,-19909,233,-1403,625
1,618,91958,13767,-19798,-20715,-118,-1050,763
1,619,91963,12123,-20461,6359,-585,-887,448
1,620,91968,-6775,-18168,27091,-550,-1445,279
1,621,91973,-13993,-14647,10703,-171,-2450,267
1,622,91978,-4807,-12812,-17348,72,-2578,411
1,623,91983,4636,-18890,-22438,-112,-1714,610
1,624,91988,2171,-19398,-3262,-344,-795,445
1,625,91993,-5097,-17350,12730,-352,-775,320
1,626,91998,-5857,-15398,5233,-119,-1118,332
1,627,92003,-990,-15389,-9392,46,-907,364
1,628,92008,158,-16737,-13360,-23,-284,373
1,629,92013,-3263,-17530,-2900,-179,196,377
1,630,92018,-5267,-17208,6486,-209,156,389
1,631,92023,-2660,-16091,4677,-69,-18,367
1,632,92028,330,-16161,-4405,18,70,332
1,633,92033,-1488,-16759,-6009,-8,437,287
1,634,92038,-5041,-16805,-18,-118,559,287
1,635,92043,-4822,-16834,3283,-197,303,319
1,636,92048,-1382,-16316,1566,-140,109,301
1,637,92053,-111,-16329,-1086,-77,220,255
1,638,92058,-2281,-16540,-1460,-69,349,215
1,639,92063,-4766,-16513,-128,-114,268,221
1,640,92068,-3880,-16581,-234,-146,51,241
1,641,92073,-1785,-16446,-703,-132,-14,233
1,642,92078,-1288,-16363,39,-93,98,199
1,643,92083,-2680,-16231,532,-76,139,173
1,644,92088,-3685,-16264,-274,-94,31,172
1,645,92093,-3203,-16323,-1587,-111,-68,178
1,646,92098,-2304,-16308,-989,-106,-38,172
1,647,92103,-2124,-16181,762,-91,4,147
1,648,92108,-2404,-16029,840,-79,-61,132
1,649,92113,-2625,-16043,-785,-78,-155,123
1,650,92118,-2668,-16099,-1817,-80,-171,119
1,651,92123,-2707,-16027,-990,-87,-130,110
1,652,92128,-2499,-15977,92,-92,-127,99
1,653,92133,-2225,-15846,-175,-92,-160,84
1,654,92138,-2226,-15842,-1183,-83,-149,70
1,655,92143,-2616,-15848,-1508,-80,-87,55
1,656,92148,-2885,-15833,-1054,-86,-37,48
1,657,92153,-2636,-15779,-808,-91,-25,45
1,658,92158,-2284,-15660,-962,-90,-11,37
1,659,92163,-2342,-15702,-1012,-81,36,26
1,660,92168,-2737,-15664,-993,-72,77,14
1,661,92173,-2897,-15655,-1002,-74,85,7
1,662,92178,-2607,-15681,-1172,-75,85,7
1,663,92183,-2326,-15658,-1001,-71,96,0
1,664,92188,-2409,-15630,-780,-63,102,-10
1,665,92193,-2577,-15625,-816,-52,90,-18
1,666,92198,-2674,-15617,-1098,-51,69,-23
1,667,92203,-2643,-15716,-1161,-48,56,-29
1,668,92208,-2515,-15733,-871,-48,47,-33
1,669,92213,-2393,-15707,-540,-46,34,-36
1,670,92218,-2408,-15752,-555,-37,11,-45
1,671,92223,-2559,-15771,-879,-38,-2,-55
1,672,92228,-2688,-15864,-1051,-37,0,-61
1,673,92233,-2632,-15912,-1072,-39,4,-63
1,674,92238,-2423,-16058,-923,-40,13,-64
1,675,92243,-2370,-16043,-883,-39,29,-71
1,676,92248,-2551,-15978,-862,-39,48,-75
1,677,92253,-2748,-15911,-1023,-34,65,-79
1,678,92258,-2693,-15963,-1164,-31,107,-83
1,679,92263,-2584,-16013,-938,-27,127,-85
1,680,92268,-2599,-16046,-788,-25,130,-88
1,681,92273,-2733,-16039,-761,-22,125,-94
1,682,92278,-2821,-16015,-881,-18,122,-97
1,683,92283,-2896,-15978,-872,-18,116,-102
1,684,92288,-2842,-15985,-765,-21,96,-103
1,685,92293,-2749,-16085,-644,-20,67,-104
1,686,92298,-2720,-16129,-721,-17,39,-111
1,687,92303,-2713,-16102,-951,-17,17,-115
1,688,92308,-2705,-16144,-1123,-17,2,-117
1,689,92313,-2668,-16161,-1051,-17,-6,-116
1,690,92318,-2595,-16179,-1018,-20,-16,-116
1,691,92323,-2626,-16167,-1081,-17,-24,-119
1,692,92328,-2621,-16103,-1271,-15,-24,-123
1,693,92333,-2564,-16151,-1320,-11,-14,-121
1,694,92338,-2484,-16162,-1192,-12,-9,-124
1,695,92343,-2490,-16221,-955,-14,-8,-123
1,696,92348,-2619,-16164,-909,-8,-17,-127
1,697,92353,-2773,-16122,-1075,-5,-19,-126
1,698,92358,-2693,-16100,-1251,-5,-9,-125
1,699,92363,-2517,-16138,-1287,-4,6,-117
1,700,92368,-2382,-16105,-1223,-5,19,-122
1,701,92373,-2448,-16081,-1178,-3,28,-127
1,702,92378,-2609,-16087,-1158,0,29,-127
1,703,92383,-2790,-16064,-1104,4,33,-125
1,704,92388,-2852,-16156,-959,-1,35,-125
1,705,92393,-2763,-16204,-758,-3,29,-125
1,706,92398,-2602,-16187,-839,-3,18,-127
1,707,92403,-2539,-16201,-1065,-2,16,-128
1,708,92408,-2509,-16147,-1233,-3,24,-128
1,709,92413,-2538,-16173,-1209,-3,34,-122
1,710,92418,-2573,-16197,-1120,1,38,-120
1,711,92423,-2594,-16246,-1020,1,36,-124
1,712,92428,-2691,-16230,-979,-1,30,-125
1,713,92433,-2693,-16177,-983,-4,21,-123
1,714,92438,-2587,-16205,-1044,-3,16,-120
1,715,92443,-2457,-16153,-1102,-1,18,-119
1,716,92448,-2512,-16133,-1119,0,17,-116
1,717,92453,-2566,-16197,-1100,1,8,-117
1,718,92458,-2593,-16197,-1081,-3,-6,-118
1,719,92463,-2591,-16175,-980,-6,-15,-117
1,720,92468,-2525,-16198,-966,-3,-18,-113
1,721,92473,-2499,-16234,-971,-3,-28,-109
1,722,92478,-2484,-16233,-992,-5,-47,-108
1,723,92483,-2513,-16202,-943,-10,-65,-109
1,724,92488,-2568,-16202,-933,-10,-76,-107
1,725,92493,-2587,-16210,-939,-9,-85,-103
1,726,92498,-2553,-16276,-953,-13,-83,-101
1,727,92503,-2588,-16244,-1055,-12,-84,-98
1,728,92508,-2649,-16238,-1168,-13,-87,-100
1,729,92513,-2634,-16230,-1176,-18,-90,-96
1,730,92518,-2587,-16155,-1240,-16,-85,-93
1,731,92523,-2517,-16129,-1273,-11,-69,-92
1,732,92528,-2536,-16156,-1250,-10,-53,-87
1,733,92533,-2601,-16224,-1226,-11,-38,-86
1,734,92538,-2674,-16215,-1223,-10,-30,-85
1,735,92543,-2640,-16251,-1160,-11,-27,-82
1,736,92548,-2554,-16216,-1107,-14,-23,-79
1,737,92553,-2432,-16163,-1144,-14,-17,-76
1,738,92558,-2444,-16108,-1170,-13,-14,-74
1,739,92563,-2519,-16058,-1208,-10,-14,-72
1,740,92568,-2572,-16085,-1099,-12,-16,-70
1,741,92573,-2581,-16140,-992,-15,-23,-71
1,742,92578,-2549,-16195,-901,-14,-33,-67
1,743,92583,-2533,-16275,-860,-15,-46,-65
1,744,92588,-2498,-16283,-825,-15,-57,-62
1,745,92593,-2565,-16266,-858,-15,-76,-60
1,746,92598,-2613,-16240,-889,-17,-96,-60
1,747,92603,-2621,-16173,-975,-19,-113,-56
1,748,92608,-2582,-16130,-1023,-20,-125,-54
1,749,92613,-2617,-16101,-1126,-22,-130,-52
1,750,92618,-2641,-16079,-1244,-21,-130,-49
1,751,92623,-2747,-16024,-1200,-18,-131,-47
1,752,92628,-2752,-16207,-1264,-17,-118,-44
1,753,92633,-2587,-16320,-1343,-14,-96,-43
1,754,92638,-2546,-16390,-1281,-16,-71,-41
1,755,92643,-2582,-16408,-1193,-18,-53,-39
1,756,92648,-2650,-16325,-1158,-16,-42,-37
1,757,92653,-2662,-16240,-1214,-16,-28,-35
1,758,92658,-2596,-16170,-1234,-13,-13,-33
1,759,92663,-2504,-16100,-1183,-14,-7,-30
1,760,92668,-2500,-16071,-1081,-14,-11,-30
1,761,92673,-2556,-16059,-972,-14,-26,-30
1,762,92678,-2580,-16059,-992,-16,-44,-32
1,763,92683,-2564,-16026,-925,-17,-66,-28
1,764,92688,-2517,-16037,-956,-16,-78,-27
1,765,92693,-2416,-16109,-1095,-15,-88,-22
1,766,92698,-2372,-16184,-1103,-15,-96,-21
1,767,92703,-2337,-16206,-961,-15,-99,-17
1,768,92708,-2367,-16188,-905,-14,-105,-17
1,769,92713,-2464,-16178,-977,-15,-108,-13
1,770,92718,-2445,-16135,-1107,-16,-101,-11
1,771,92723,-2488,-16052,-1197,-15,-98,-10
1,772,92728,-2461,-15977,-1060,-14,-101,-4
1,773,92733,-2463,-15969,-1124,-11,-108,-3
1,774,92738,-2480,-15947,-1235,-10,-111,-6
1,775,92743,-2495,-15932,-1301,-10,-106,-5
1,776,92748,-2535,-15958,-1257,-7,-103,-5
1,777,92753,-2541,-15984,-1122,-8,-99,-3
1,778,92758,-2551,-16037,-1078,-5,-97,-2
1,779,92763,-2651,-16132,-1109,-2,-94,-3
1,780,92768,-2652,-16222,-1058,-3,-89,-1
1,781,92773,-2595,-16272,-1038,-2,-76,2
1,782,92778,-2437,-16332,-1083,-4,-63,3
1,783,92783,-2416,-16316,-1136,1,-44,5
1,784,92788,-2514,-16282,-1140,7,-29,7
1,785,92793,-2539,-16269,-1153,9,-18,3
1,786,92798,-2585,-16220,-1100,10,-11,5
1,787,92803,-2594,-16232,-981,9,-5,4
1,788,92808,-2615,-16302,-885,8,-3,7
1,789,92813,-2582,-16416,-741,6,-8,9
1,790,92818,-2592,-16451,-672,7,-20,9
1,791,92823,-2533,-16438,-723,7,-27,8
1,792,92828,-2461,-16425,-854,8,-33,6
1,793,92833,-2464,-16467,-915,9,-32,7
1,794,92838,-2481,-16481,-939,8,-33,10
1,795,92843,-2518,-16411,-887,9,-34,9
1,796,92848,-2541,-16416,-903,9,-36,9
1,797,92853,-2556,-16362,-974,12,-30,10
1,798,92858,-2556,-16343,-1097,11,-28,12
1,799,92863,-2545,-16305,-1133,10,-23,12
1,800,92868,-2506,-16228,-1111,10,-21,11
1,801,92873,-2484,-16232,-1082,16,-18,9
1,802,92878,-2534,-16221,-1141,17,-12,8
1,803,92883,-2572,-16159,-1216,20,-7,11
1,804,92888,-2528,-16190,-1223,22,-9,11
1,805,92893,-2494,-16222,-1134,20,-11,11
1,806,92898,-2426,-16210,-1092,18,-14,11
1,807,92903,-2476,-16162,-1090,24,-14,11
1,808,92908,-2497,-16096,-1149,23,-15,11
1,809,92913,-2533,-16133,-1134,23,-12,10
1,810,92918,-2515,-16207,-1079,25,3,12
1,811,92923,-2491,-16218,-963,26,12,12
1,812,92928,-2461,-16231,-967,27,19,13
1,813,92933,-2403,-16207,-1078,28,21,16
1,814,92938,-2468,-16169,-1059,29,24,11
1,815,92943,-2494,-16182,-1007,28,25,11
1,816,92948,-2480,-16169,-906,29,18,12
1,817,92953,-2500,-16178,-902,30,13,12
1,818,92958,-2433,-16213,-982,33,12,8
1,819,92963,-2429,-16241,-1092,33,12,13
1,820,92968,-2389,-16216,-1072,30,7,14
1,821,92973,-2385,-16169,-1067,29,-1,14
1,822,92978,-2360,-16135,-1073,28,-1,11
1,823,92983,-2432,-16083,-1018,32,-4,12
1,824,92988,-2563,-16096,-1052,34,-11,11
1,825,92993,-2453,-16255,-961,32,-23,16
1,826,92998,-2379,-16351,-878,33,-30,12
1,827,93003,-2349,-16311,-863,31,-33,12
1,828,93008,-2421,-16231,-1036,32,-32,13
1,829,93013,-2457,-16180,-1235,32,-20,10
1,830,93018,-2501,-16149,-1304,34,-3,15
1,831,93023,-2468,-16124,-1114,35,7,18
1,832,93028,-2467,-16152,-973,35,15,14
1,833,93033,-2488,-16250,-938,37,19,12
1,834,93038,-2553,-16337,-928,40,20,14
1,835,93043,-2494,-16376,-852,35,19,13
1,836,93048,-2408,-16370,-759,31,14,13
1,837,93053,-2327,-16358,-769,29,9,14
1,838,93058,-2317,-16366,-922,28,7,15
1,839,93063,-2363,-16335,-1011,27,7,14
1,840,93068,-2426,-16285,-1060,26,4,14
1,841,93073,-2413,-16174,-1050,27,5,16
1,842,93078,-2332,-16099,-1064,25,8,18
1,843,93083,-2384,-16129,-1029,27,9,15
1,844,93088,-2478,-16126,-980,27,-1,15
1,845,93093,-2505,-16173,-1049,28,-16,18
1,846,93098,-2456,-16179,-987,29,-32,18
1,847,93103,-2444,-16213,-865,26,-44,18
1,848,93108,-2435,-16184,-813,22,-46,17
1,849,93113,-2502,-16163,-971,21,-50,13
1,850,93118,-2541,-16163,-1151,22,-48,18
1,851,93123,-2506,-16172,-1267,24,-31,16
1,852,93128,-2477,-16207,-1248,21,-14,17
1,853,93133,-2476,-16225,-1165,20,0,18
1,854,93138,-2475,-16206,-1064,23,4,17
1,855,93143,-2541,-16151,-1010,23,11,11
1,856,93148,-2604,-16162,-1016,20,21,13
1,857,93153,-2586,-16172,-972,21,26,15
1,858,93158,-2453,-16215,-962,19,25,14
1,859,93163,-2475,-16276,-972,19,24,15
1,860,93168,-2455,-16237,-990,17,20,13
1,861,93173,-2516,-16213,-1047,15,21,11
1,862,93178,-2513,-16200,-1104,17,23,14
1,863,93183,-2541,-16166,-1087,15,22,11
1,864,93188,-2575,-16186,-936,16,19,9
1,865,93193,-2507,-16206,-905,15,19,10
1,866,93198,-2453,-16254,-921,14,13,7
1,867,93203,-2478,-16269,-923,13,7,5
1,868,93208,-2472,-16259,-976,13,2,6
1,869,93213,-2468,-16258,-1020,11,-3,5
1,870,93218,-2465,-16219,-979,11,-13,4
1,871,93223,-2439,-16271,-928,10,-16,4
1,872,93228,-2385,-16346,-882,10,-19,8
1,873,93233,-2404,-16397,-831,5,-15,8
1,874,93238,-2386,-16383,-848,7,-11,8
1,875,93243,-2472,-16299,-856,5,-9,7
1,876,93248,-2596,-16260,-955,4,-6,5
1,877,93253,-2601,-16290,-941,6,-5,5
1,878,93258,-2581,-16317,-941,6,-1,6
1,879,93263,-2488,-16362,-937,3,6,3
1,880,93268,-2494,-16314,-921,3,12,3
1,881,93273,-2511,-16282,-1025,3,18,1
1,882,93278,-2532,-16243,-1038,2,21,6
1,883,93283,-2518,-16183,-1071,0,23,3
1,884,93288,-2467,-16227,-996,0,23,1
1,885,93293,-2467,-16237,-972,-2,22,3
1,886,93298,-2425,-16235,-946,-3,23,3
1,887,93303,-2430,-16215,-983,-2,15,0
1,888,93308,-2426,-16195,-1003,-2,6,0
1,889,93313,-2392,-16179,-998,-2,3,2
1,890,93318,-2359,-16207,-964,-2,-4,3
1,891,93323,-2357,-16224,-921,-2,-8,1
1,892,93328,-2419,-16225,-946,-6,-14,-1
1,893,93333,-2494,-16225,-986,-4,-20,-1
1,894,93338,-2470,-16217,-1047,-6,-24,-6
1,895,93343,-2458,-16182,-1064,-4,-22,1
1,896,93348,-2423,-16162,-1120,-5,-12,-1
1,897,93353,-2432,-16173,-1095,-6,-4,-4
1,898,93358,-2468,-16311,-922,-9,4,-1
1,899,93363,-2489,-16328,-995,-9,9,-3
1,900,93368,-2463,-16302,-965,-7,17,-4
1,901,93373,-2462,-16261,-939,-9,24,-3
1,902,93378,-2458,-16246,-984,-13,23,-5
1,903,93383,-2459,-16188,-1013,-10,24,-5
1,904,93388,-2461,-16163,-995,-8,23,-3
1,905,93393,-2485,-16192,-1017,-9,25,-4
1,906,93398,-2489,-16204,-870,-8,21,-6
1,907,93403,-2474,-16199,-803,-12,9,-4
1,908,93408,-2464,-16221,-913,-13,-5,-6
1,909,93413,-2473,-16219,-1046,-12,-13,-11
1,910,93418,-2461,-16162,-1146,-12,-25,-7
1,911,93423,-2486,-16116,-1050,-13,-37,-10
1,912,93428,-2465,-16137,-1075,-10,-45,-9
1,913,93433,-2492,-16108,-1107,-6,-46,-12
1,914,93438,-2468,-16129,-1111,-6,-43,-14
1,915,93443,-2490,-16241,-1020,-8,-38,-13
1,916,93448,-2511,-16278,-895,-10,-42,-12
1,917,93453,-2474,-16300,-925,-9,-44,-15
1,918,93458,-2438,-16287,-1004,-9,-37,-15
1,919,93463,-2413,-16291,-1080,-9,-28,-14
1,920,93468,-2490,-16300,-1059,-7,-20,-12
1,921,93473,-2475,-16297,-975,-8,-17,-15
1,922,93478,-2526,-16326,-1025,-10,-13,-15
1,923,93483,-2457,-16347,-979,-9,-4,-17
1,924,93488,-2399,-16312,-955,-6,-1,-17
1,925,93493,-2430,-16320,-923,-7,1,-16
1,926,93498,-2458,-16319,-908,-11,2,-18
1,927,93503,-2531,-16301,-938,-10,-1,-19
1,928,93508,-2470,-16302,-947,-7,2,-19
1,929,93513,-2422,-16292,-1013,-4,0,-19
1,930,93518,-2434,-16200,-965,-4,-3,-16
1,931,93523,-2427,-16231,-874,-5,-8,-19
1,932,93528,-2447,-16229,-883,-6,-18,-23
1,933,93533,-2487,-16211,-923,-5,-25,-22
1,934,93538,-2501,-16224,-923,0,-38,-22
1,935,93543,-2530,-16273,-943,-1,-49,-21
1,936,93548,-2443,-16276,-952,-5,-54,-20
1,937,93553,-2382,-16262,-962,-3,-56,-20
1,938,93558,-2440,-16246,-961,-2,-52,-23
1,939,93563,-2547,-16202,-1039,-2,-46,-26
1,940,93568,-2595,-16170,-1070,-2,-40,-27
1,941,93573,-2581,-16254,-1037,1,-30,-26
1,942,93578,-2509,-16284,-1025,3,-21,-25
1,943,93583,-2456,-16248,-1011,2,-8,-27
1,944,93588,-2431,-16246,-934,1,1,-27
1,945,93593,-2451,-16237,-986,1,7,-28
1,946,93598,-2452,-16193,-1021,3,11,-28
1,947,93603,-2465,-16200,-976,6,16,-25
1,948,93608,-2424,-16181,-956,5,17,-24
1,949,93613,-2408,-16182,-923,5,16,-30
1,950,93618,-2418,-16194,-961,6,12,-32
1,951,93623,-2362,-16175,-909,4,9,-30
1,952,93628,-2364,-16187,-895,8,1,-32
1,953,93633,-2349,-16196,-909,7,-2,-27
1,954,93638,-2351,-16186,-967,8,-6,-28
1,955,93643,-2380,-16206,-960,9,-12,-31
1,956,93648,-2377,-16220,-923,7,-23,-32
1,957,93653,-2394,-16229,-919,10,-30,-29
1,958,93658,-2381,-16244,-888,12,-31,-31
1,959,93663,-2389,-16268,-839,12,-34,-33
1,960,93668,-2438,-16239,-837,12,-37,-32
1,961,93673,-2425,-16240,-888,12,-39,-30
1,962,93678,-2371,-16270,-940,12,-36,-30
1,963,93683,-2430,-16285,-1000,14,-34,-30
1,964,93688,-2429,-16248,-989,17,-31,-32
1,965,93693,-2486,-16198,-961,15,-31,-31
1,966,93698,-2542,-16190,-894,13,-32,-34
1,967,93703,-2468,-16214,-930,12,-27,-36
1,968,93708,-2475,-16243,-988,15,-21,-34
1,969,93713,-2489,-16237,-1005,19,-19,-33
1,970,93718,-2465,-16251,-965,18,-20,-36
1,971,93723,-2490,-16205,-912,16,-21,-36
1,972,93728,-2442,-16174,-1013,22,-9,-37
1,973,93733,-2426,-16174,-999,23,-5,-35
1,974,93738,-2475,-16184,-956,23,-4,-36
1,975,93743,-2474,-16193,-899,24,-7,-40
1,976,93748,-2450,-16192,-881,23,-11,-39
1,977,93753,-2384,-16189,-870,25,-10,-38
1,978,93758,-2382,-16240,-916,27,-9,-39
1,979,93763,-2449,-16263,-864,26,-6,-41
1,980,93768,-2455,-16257,-856,29,-8,-39
1,981,93773,-2403,-16304,-851,27,-13,-40
1,982,93778,-2376,-16313,-769,27,-15,-40
1,983,93783,-2398,-16318,-809,25,-14,-40
1,984,93788,-2421,-16291,-943,27,-15,-39
1,985,93793,-2368,-16271,-972,30,-14,-39
1,986,93798,-2360,-16280,-928,28,-12,-38
1,987,93803,-2336,-16297,-861,29,-13,-39
1,988,93808,-2316,-16285,-796,32,-14,-41
1,989,93813,-2374,-16289,-807,30,-11,-39
1,990,93818,-2370,-16259,-873,30,-4,-38
1,991,93823,-2380,-16284,-948,31,-1,-37
1,992,93828,-2357,-16274,-976,34,1,-37
1,993,93833,-2331,-16273,-927,31,-4,-37
1,994,93838,-2308,-16268,-877,30,-4,-38
1,995,93843,-2332,-16245,-863,34,-1,-35
1,996,93848,-2391,-16272,-904,32,6,-34
1,997,93853,-2364,-16261,-939,34,8,-37
1,998,93858,-2389,-16273,-871,36,4,-34
1,999,93863,-2389,-16265,-836,36,-3,-36
2,0,105503,-2835,-16187,-732,-24,-49,1
2,1,105508,-2861,-16165,-672,-25,-47,2
2,2,105513,-2902,-16180,-677,-23,-45,1
2,3,105518,-2864,-16176,-715,-24,-39,4
2,4,105523,-2876,-16143,-767,-20,-30,5
2,5,105528,-2890,-16168,-779,-19,-22,3
2,6,105533,-2897,-16137,-775,-21,-12,2
2,7,105538,-2897,-16150,-725,-22,-7,0
2,8,105543,-2857,-16133,-716,-20,-1,0
2,9,105548,-2889,-16135,-721,-18,6,3
2,10,105553,-2865,-16173,-736,-18,11,3
2,11,105558,-2932,-16148,-676,-17,15,1
2,12,105563,-2997,-16139,-665,-16,6,0
2,13,105568,-2960,-16132,-629,-16,0,-2
2,14,105573,-2912,-16090,-603,-14,-5,-3
2,15,105578,-2824,-16156,-614,-11,-10,0
2,16,105583,-2816,-16162,-615,-13,-13,0
2,17,105588,-2825,-16189,-590,-11,-18,-1
2,18,105593,-2806,-16179,-583,-14,-23,-3
2,19,105598,-2743,-16165,-580,-13,-28,-3
2,20,105603,-2726,-16230,-511,-14,-28,0
2,21,105608,-2705,-16267,-585,-12,-28,0
2,22,105613,-2725,-16209,-646,-9,-31,-1
2,23,105618,-2736,-16165,-665,-11,-35,-1
2,24,105623,-2676,-16149,-644,-13,-31,-1
2,25,105628,-2605,-16196,-685,-10,-23,2
2,26,105633,-2646,-16187,-702,-7,-15,5
2,27,105638,-2689,-16204,-736,-7,-12,6
2,28,105643,-2723,-16226,-741,-8,-9,4
2,29,105648,-2693,-16160,-718,-8,-9,6
2,30,105653,-2602,-16205,-672,-7,-10,8
2,31,105658,-2592,-16179,-633,-3,-5,8
2,32,105663,-2659,-16153,-580,-8,-8,8
2,33,105668,-2817,-16119,-584,-6,-20,9
2,34,105673,-2859,-16143,-654,-6,-38,10
2,35,105678,-2777,-16157,-616,-5,-52,8
2,36,105683,-2712,-16213,-555,-4,-55,9
2,37,105688,-2702,-16218,-553,-8,-60,11
2,38,105693,-2766,-16211,-607,-7,-71,8
2,39,105698,-2839,-16171,-642,-6,-77,6
2,40,105703,-2866,-16143,-671,-4,-78,11
2,41,105708,-2833,-16198,-632,-5,-80,9
2,42,105713,-2824,-16233,-597,-5,-78,11
2,43,105718,-2857,-16237,-621,-3,-77,10
2,44,105723,-2905,-16282,-700,-3,-71,9
2,45,105728,-2945,-16202,-750,-2,-63,9
2,46,105733,-2910,-16177,-785,-3,-57,9
2,47,105738,-2883,-16154,-824,-4,-48,12
2,48,105743,-2827,-16124,-811,-1,-35,10
2,49,105748,-2826,-16079,-789,0,-26,8
2,50,105753,-2865,-16072,-742,2,-20,8
2,51,105758,-2880,-16173,-712,0,-18,8
2,52,105763,-2903,-16248,-662,4,-17,8
2,53,105768,-2899,-16302,-636,4,-15,11
2,54,105773,-2874,-16324,-659,4,-15,8
2,55,105778,-2878,-16310,-648,4,-14,8
2,56,105783,-2859,-16295,-645,0,-15,6
2,57,105788,-2886,-16258,-685,3,-22,8
2,58,105793,-2910,-16239,-632,4,-25,8
2,59,105798,-2953,-16206,-640,6,-32,5
2,60,105803,-2959,-16143,-659,5,-36,5
2,61,105808,-2953,-16162,-700,2,-45,6
2,62,105813,-2978,-16160,-747,3,-50,8
2,63,105818,-2943,-16154,-723,5,-49,7
2,64,105823,-2903,-16206,-681,4,-46,2
2,65,105828,-2920,-16268,-669,6,-43,4
2,66,105833,-2986,-16334,-633,8,-39,5
2,67,105838,-2950,-16280,-612,6,-26,3
2,68,105843,-2966,-16257,-648,7,-22,0
2,69,105848,-2917,-16245,-692,9,-17,3
2,70,105853,-2899,-16242,-760,5,-8,2
2,71,105858,-2911,-16181,-799,7,-4,-2
2,72,105863,-2953,-16133,-754,6,-4,-2
2,73,105868,-2885,-16167,-730,7,-2,1
2,74,105873,-2854,-16173,-704,9,1,2
2,75,105878,-2861,-16150,-665,8,1,2
2,76,105883,-2846,-16157,-643,7,-2,-1
2,77,105888,-2841,-16162,-639,7,-7,-1
2,78,105893,-2826,-16167,-693,6,-14,-1
2,79,105898,-2781,-16183,-696,10,-17,2
2,80,105903,-2731,-16203,-695,9,-19,2
2,81,105908,-2747,-16192,-663,7,-22,-1
2,82,105913,-2794,-16219,-666,7,-28,-1
2,83,105918,-2851,-16192,-670,7,-38,-2
2,84,105923,-2803,-16171,-662,8,-39,3
2,85,105928,-2796,-16169,-659,8,-38,2
2,86,105933,-2790,-16125,-685,9,-35,-2
2,87,105938,-2833,-16119,-718,8,-33,1
2,88,105943,-2847,-16139,-764,7,-30,2
2,89,105948,-2862,-16153,-769,10,-27,3
2,90,105953,-2835,-16090,-694,8,-24,1
2,91,105958,-2834,-16101,-677,8,-21,1
2,92,105963,-2821,-16093,-711,9,-21,2
2,93,105968,-2835,-16107,-707,6,-20,0
2,94,105973,-2896,-16129,-654,7,-26,0
2,95,105978,-2847,-16099,-687,8,-33,2
2,96,105983,-2841,-16106,-652,6,-35,1
2,97,105988,-2894,-16101,-639,6,-40,1
2,98,105993,-2883,-16091,-674,6,-44,0
2,99,105998,-2913,-16083,-649,6,-46,1
2,100,106003,-2951,-16135,-663,9,-46,0
2,101,106008,-2904,-16114,-707,8,-46,-1
2,102,106013,-2967,-16132,-735,6,-44,-1
2,103,106018,-2989,-16160,-717,3,-39,-2
2,104,106023,-2990,-16213,-737,6,-34,1
2,105,106028,-2953,-16187,-692,8,-28,0
2,106,106033,-2986,-16194,-669,6,-28,-1
2,107,106038,-2942,-16182,-706,6,-25,-3
2,108,106043,-2931,-16196,-756,7,-20,-3
2,109,106048,-2916,-16213,-713,9,-9,-2
2,110,106053,-2943,-16242,-664,7,-6,-2
2,111,106058,-2946,-16256,-639,7,-5,0
2,112,106063,-2891,-16214,-688,5,2,-3
2,113,106068,-2839,-16180,-768,6,10,-5
2,114,106073,-2857,-16189,-711,4,12,-5
2,115,106078,-2886,-16190,-721,3,15,-5
2,116,106083,-2865,-16189,-657,6,14,-3
2,117,106088,-2812,-16208,-604,5,9,-1
2,118,106093,-2807,-16160,-583,4,4,-3
2,119,106098,-2840,-16160,-604,2,-5,-1
2,120,106103,-2838,-16176,-592,1,-13,-1
2,121,106108,-2856,-16109,-677,2,-17,-3
2,122,106113,-2871,-16120,-679,2,-27,-1
2,123,106118,-2877,-16162,-649,2,-35,-2
2,124,106123,-2903,-16199,-650,2,-41,-4
2,125,106128,-2871,-16180,-669,2,-38,-2
2,126,106133,-2873,-16163,-690,3,-35,-1
2,127,106138,-2892,-16185,-713,1,-33,-2
2,128,106143,-2907,-16157,-780,-4,-29,-2
2,129,106148,-2929,-16171,-808,0,-21,0
2,130,106153,-2931,-16111,-804,1,-13,-1
2,131,106158,-2907,-16096,-765,2,-3,0
2,132,106163,-2904,-16156,-759,5,4,2
2,133,106168,-2863,-16194,-744,5,9,1
2,134,106173,-2919,-16213,-689,2,11,-3
2,135,106178,-2923,-16165,-681,0,9,-5
2,136,106183,-2930,-16136,-675,1,6,-4
2,137,106188,-2890,-16181,-678,0,2,1
2,138,106193,-2867,-16213,-641,1,-3,1
2,139,106198,-2923,-16229,-556,-2,-7,-3
2,140,106203,-2922,-16291,-611,1,-20,-1
2,141,106208,-2967,-16228,-668,-3,-21,-4
2,142,106213,-2920,-16216,-633,-1,-22,-2
2,143,106218,-2912,-16185,-619,-6,-23,-3
2,144,106223,-2941,-16184,-645,-3,-25,-4
2,145,106228,-2900,-16162,-709,-4,-22,-5
2,146,106233,-2885,-16183,-670,-4,-17,-3
2,147,106238,-2956,-16190,-672,-3,-12,-4
2,148,106243,-2969,-16218,-656,-3,-9,-3
2,149,106248,-2984,-16200,-649,-4,-10,-3
2,150,106253,-2966,-16197,-654,-3,-10,-3
2,151,106258,-2921,-16190,-635,-5,-5,-5
2,152,106263,-2903,-16203,-654,-6,1,-6
2,153,106268,-2910,-16202,-659,-6,3,-4
2,154,106273,-2892,-16192,-659,-4,5,-5
2,155,106278,-2932,-16149,-665,-7,5,-7
2,156,106283,-2893,-16144,-717,-6,5,-7
2,157,106288,-2862,-16147,-678,-5,5,-4
2,158,106293,-2864,-16163,-659,-4,6,-4
2,159,106298,-2851,-16163,-714,-6,7,-5
2,160,106303,-2863,-16173,-663,-4,6,-2
2,161,106308,-2876,-16155,-670,-5,2,-2
2,162,106313,-2907,-16177,-633,-5,1,-4
2,163,106318,-2876,-16187,-568,-5,-1,-3
2,164,106323,-2876,-16224,-605,-6,-4,-3
2,165,106328,-2853,-16251,-599,-8,-7,-2
2,166,106333,-2880,-16278,-618,-10,-8,-2
2,167,106338,-2858,-16265,-664,-9,-14,-3
2,168,106343,-2874,-16218,-726,-11,-13,-3
2,169,106348,-2868,-16194,-709,-10,-14,-2
2,170,106353,-2895,-16210,-700,-10,-13,-5
2,171,106358,-2872,-16192,-762,-8,-10,-2
2,172,106363,-2824,-16154,-788,-3,-8,-1
2,173,106368,-2829,-16168,-731,-7,-1,-1
2,174,106373,-2824,-16134,-741,-9,2,-3
2,175,106378,-2793,-16091,-750,-7,8,0
2,176,106383,-2802,-16100,-666,-9,8,-1
2,177,106388,-2801,-16094,-710,-12,7,0
2,178,106393,-2808,-16063,-690,-9,-1,2
2,179,106398,-2777,-16112,-659,-7,-7,1
2,180,106403,-2781,-16107,-649,-10,-13,1
2,181,106408,-2816,-16115,-660,-10,-21,0
2,182,106413,-2854,-16118,-718,-7,-28,0
2,183,106418,-2838,-16124,-718,-9,-31,3
2,184,106423,-2845,-16177,-685,-9,-37,3
2,185,106428,-2881,-16158,-642,-9,-37,3
2,186,106433,-2897,-16141,-683,-9,-36,0
2,187,106438,-2857,-16100,-772,-7,-34,1
2,188,106443,-2876,-16163,-806,-7,-27,5
2,189,106448,-2861,-16157,-756,-8,-21,4
2,190,106453,-2877,-16193,-717,-9,-16,4
2,191,106458,-2882,-16174,-741,-8,-12,5
2,192,106463,-2818,-16186,-749,-7,-4,3
2,193,106468,-2865,-16177,-750,-5,4,5
2,194,106473,-2914,-16149,-714,-7,4,6
2,195,106478,-2864,-16167,-706,-6,2,3
2,196,106483,-2808,-16191,-681,-6,-4,5
2,197,106488,-2844,-16222,-702,-5,-8,3
2,198,106493,-2854,-16197,-667,-3,-11,4
2,199,106498,-2868,-16236,-591,-5,-19,5
2,200,106503,-2894,-16201,-610,-6,-29,5
2,201,106508,-2902,-16182,-644,-5,-35,3
2,202,106513,-2875,-16202,-666,-6,-37,4
2,203,106518,-2822,-16218,-723,-5,-37,7
2,204,106523,-2834,-16183,-716,0,-36,8
2,205,106528,-2817,-16182,-742,-4,-30,7
2,206,106533,-2838,-16137,-731,-4,-22,7
2,207,106538,-2827,-16132,-724,-2,-18,7
2,208,106543,-2821,-16097,-681,-3,-13,8
2,209,106548,-2793,-16073,-734,-4,-10,6
2,210,106553,-2770,-16074,-734,-1,-3,8
2,211,106558,-2764,-16125,-744,-2,1,7
2,212,106563,-2712,-16103,-673,-2,2,9
2,213,106568,-2721,-16102,-609,-2,2,9
2,214,106573,-2762,-16065,-675,-1,-7,9
2,215,106578,-2750,-16068,-630,-1,-13,8
2,216,106583,-2729,-16039,-591,-1,-20,11
2,217,106588,-2724,-16076,-552,-2,-29,9
2,218,106593,-2769,-16095,-547,-2,-38,8
2,219,106598,-2755,-16133,-561,-1,-50,12
2,220,106603,-2787,-16114,-594,0,-60,12
2,221,106608,-2808,-16099,-628,1,-69,12
2,222,106613,-2841,-16129,-614,0,-71,11
2,223,106618,-2875,-16135,-610,-2,-80,12
2,224,106623,-2901,-16120,-615,-4,-84,10
2,225,106628,-2946,-16113,-619,-3,-86,10
2,226,106633,-2960,-16113,-733,-2,-83,9
2,227,106638,-2960,-16131,-756,-3,-74,9
2,228,106643,-2972,-16137,-786,0,-59,10
2,229,106648,-2951,-16147,-759,-3,-48,9
2,230,106653,-2996,-16163,-730,0,-39,5
2,231,106658,-3032,-16182,-745,-1,-26,5
2,232,106663,-2994,-16201,-717,1,-14,5
2,233,106668,-3021,-16221,-764,3,-5,4
2,234,106673,-3050,-16225,-768,3,-1,2
2,235,106678,-3023,-16211,-651,3,1,3
2,236,106683,-2931,-16185,-634,2,2,3
2,237,106688,-2901,-16213,-630,4,2,0
2,238,106693,-2974,-16210,-683,4,3,-2
2,239,106698,-2958,-16188,-689,3,2,-3
2,240,106703,-3030,-16201,-711,0,-7,-3
2,241,106708,-2927,-16158,-627,2,-17,-6
2,242,106713,-2951,-16173,-640,2,-25,-9
2,243,106718,-2910,-16177,-603,6,-29,-7
2,244,106723,-2958,-16212,-634,6,-36,-6
2,245,106728,-2873,-16293,-669,3,-44,-8
2,246,106733,-2897,-16281,-652,4,-46,-10
2,247,106738,-2907,-16296,-594,3,-48,-9
2,248,106743,-2930,-16261,-576,4,-51,-12
2,249,106748,-2978,-16305,-718,4,-49,-14
2,250,106753,-2944,-16326,-739,7,-41,-11
2,251,106758,-2912,-16306,-748,6,-29,-12
2,252,106763,-2877,-16308,-747,5,-18,-16
2,253,106768,-2893,-16298,-764,5,-14,-14
2,254,106773,-2923,-16239,-786,7,-9,-16
2,255,106778,-2938,-16218,-810,7,0,-19
2,256,106783,-2831,-16303,-730,6,6,-15
2,257,106788,-2900,-16234,-565,5,3,-17
2,258,106793,-2996,-16250,-501,5,-12,-18
2,259,106798,-3039,-16211,-551,6,-27,-21
2,260,106803,-3066,-16214,-634,4,-40,-23
2,261,106808,-3017,-16270,-595,4,-46,-19
2,262,106813,-2914,-16280,-659,4,-46,-19
2,263,106818,-2861,-16285,-741,4,-43,-21
2,264,106823,-2919,-16254,-829,6,-40,-23
2,265,106828,-2972,-16228,-896,7,-33,-24
2,266,106833,-2938,-16245,-831,1,-22,-25
2,267,106838,-2917,-16276,-720,5,-9,-24
2,268,106843,-2897,-16268,-662,9,-5,-23
2,269,106848,-2895,-16281,-679,7,-2,-27
2,270,106853,-2914,-16309,-752,4,-1,-26
2,271,106858,-2958,-16227,-689,4,-3,-28
2,272,106863,-2939,-16228,-673,0,-4,-27
2,273,106868,-2910,-16232,-606,-3,-5,-30
2,274,106873,-2906,-16231,-677,2,-4,-30
2,275,106878,-2903,-16218,-753,3,0,-26
2,276,106883,-2925,-16195,-801,1,0,-28
2,277,106888,-2922,-16149,-753,-1,0,-30
2,278,106893,-2911,-16135,-720,-2,0,-28
2,279,106898,-2887,-16126,-709,1,5,-30
2,280,106903,-2887,-16118,-681,1,8,-27
2,281,106908,-2894,-16123,-698,2,-1,-28
2,282,106913,-2877,-16091,-732,-2,-4,-27
2,283,106918,-2898,-16051,-729,-4,-7,-28
2,284,106923,-2862,-16080,-732,-5,-12,-31
2,285,106928,-2912,-16041,-729,-4,-14,-29
2,286,106933,-2886,-16068,-771,-2,-12,-28
2,287,106938,-2917,-16095,-794,-5,-10,-28
2,288,106943,-2905,-16055,-786,-8,-12,-27
2,289,106948,-2927,-16042,-775,-6,-13,-25
2,290,106953,-2917,-16053,-751,-7,-16,-27
2,291,106958,-2941,-16098,-718,-6,-21,-29
2,292,106963,-2914,-16129,-712,-6,-24,-29
2,293,106968,-2975,-16126,-685,-6,-27,-31
2,294,106973,-2984,-16141,-667,-7,-30,-27
2,295,106978,-2949,-16175,-746,-7,-28,-25
2,296,106983,-2947,-16179,-709,-7,-28,-27
2,297,106988,-2913,-16209,-686,-9,-22,-27
2,298,106993,-2969,-16236,-691,-10,-17,-24
2,299,106998,-2958,-16258,-712,-12,-10,-28
2,300,107003,-2965,-16268,-712,-12,1,-27
2,301,107008,-2935,-16256,-744,-12,12,-26
2,302,107013,-2895,-16240,-792,-11,24,-25
2,303,107018,-2872,-16251,-788,-11,32,-26
2,304,107023,-2795,-16232,-737,-10,40,-26
2,305,107028,-2835,-16207,-807,-13,46,-23
2,306,107033,-2816,-16235,-718,-14,50,-24
2,307,107038,-2817,-16203,-657,-14,52,-25
2,308,107043,-2806,-16206,-682,-13,50,-24
2,309,107048,-2818,-16144,-729,-14,42,-22
2,310,107053,-2764,-16135,-726,-13,31,-24
2,311,107058,-2703,-16171,-674,-13,24,-21
2,312,107063,-2709,-16177,-640,-16,17,-22
2,313,107068,-2755,-16176,-630,-17,7,-21
2,314,107073,-2822,-16130,-627,-18,-7,-19
2,315,107078,-2788,-16149,-681,-18,-13,-17
2,316,107083,-2739,-16152,-726,-17,-17,-18
2,317,107088,-2783,-16119,-709,-18,-21,-14
2,318,107093,-2796,-16135,-743,-17,-26,-14
2,319,107098,-2810,-16135,-786,-20,-29,-15
2,320,107103,-2761,-16134,-737,-18,-30,-13
2,321,107108,-2825,-16104,-765,-17,-27,-11
2,322,107113,-2777,-16118,-773,-19,-19,-12
2,323,107118,-2783,-16135,-756,-18,-20,-12
2,324,107123,-2782,-16139,-798,-20,-22,-14
2,325,107128,-2798,-16106,-819,-22,-19,-13
2,326,107133,-2759,-16131,-771,-22,-22,-11
2,327,107138,-2742,-16178,-746,-19,-18,-10
2,328,107143,-2739,-16182,-773,-19,-11,-8
2,329,107148,-2764,-16159,-780,-16,-11,-10
2,330,107153,-2798,-16136,-829,-17,-9,-9
2,331,107158,-2804,-16112,-807,-19,-7,-6
2,332,107163,-2825,-16131,-745,-18,-4,-3
2,333,107168,-2793,-16115,-763,-17,-1,-4
2,334,107173,-2796,-16110,-851,-18,-2,-5
2,335,107178,-2797,-16092,-896,-17,-2,-2
2,336,107183,-2860,-16082,-764,-16,-5,-3
2,337,107188,-2895,-16090,-766,-15,-14,-2
2,338,107193,-2886,-16050,-793,-16,-15,-1
2,339,107198,-2892,-16062,-869,-14,-11,-1
2,340,107203,-2864,-16027,-863,-13,-8,0
2,341,107208,-2923,-16052,-835,-15,-11,-1
2,342,107213,-3025,-16009,-876,-15,-16,-1
2,343,107218,-2998,-15927,-1057,-11,-10,0
2,344,107223,-2867,-15915,-1159,-6,7,3
2,345,107228,-2766,-15918,-1311,-7,30,8
2,346,107233,-2749,-15913,-1231,-4,55,11
2,347,107238,-2857,-15941,-1075,-2,82,12
2,348,107243,-3025,-15823,-1216,-2,104,12
2,349,107248,-2976,-15758,-1489,3,134,20
2,350,107253,-2773,-15713,-1709,11,184,28
2,351,107258,-2522,-15736,-1698,15,240,38
2,352,107263,-2519,-15818,-1461,16,292,46
2,353,107268,-2682,-15795,-1284,21,333,48
2,354,107273,-2843,-15746,-1488,30,377,54
2,355,107278,-2752,-15785,-1509,37,434,67
2,356,107283,-2485,-15883,-1254,39,485,80
2,357,107288,-2542,-16008,-317,34,502,88
2,358,107293,-2747,-16072,272,28,459,87
2,359,107298,-2975,-16140,159,27,398,93
2,360,107303,-3032,-16158,51,23,303,120
2,361,107308,-3220,-16171,384,6,233,136
2,362,107313,-2925,-16100,21,3,163,144
2,363,107318,-2800,-15926,-621,14,148,150
2,364,107323,-2993,-15840,-1074,25,171,164
2,365,107328,-3179,-15925,-1306,24,188,180
2,366,107333,-3104,-15925,-1155,12,202,196
2,367,107338,-2807,-15984,-1037,13,224,214
2,368,107343,-2899,-15862,-797,24,262,227
2,369,107348,-3043,-15981,-841,34,287,238
2,370,107353,-3306,-15858,-1115,31,295,254
2,371,107358,-3395,-15756,-1054,25,306,276
2,372,107363,-3108,-15888,-845,24,319,295
2,373,107368,-3292,-15739,-276,25,332,305
2,374,107373,-3486,-15918,-419,24,318,317
2,375,107378,-3869,-15808,-817,27,296,327
2,376,107383,-3925,-15852,-846,28,275,349
2,377,107388,-4016,-15676,-511,19,249,365
2,378,107393,-3823,-15688,-376,18,218,380
2,379,107398,-3866,-15607,-742,24,198,391
2,380,107403,-4152,-15671,-1115,31,192,406
2,381,107408,-4589,-15672,-1133,31,188,423
2,382,107413,-4551,-15649,-1063,30,177,442
2,383,107418,-4122,-15536,-1017,34,180,461
2,384,107423,-3838,-15495,-1079,39,200,472
2,385,107428,-3688,-15375,-1011,43,227,485
2,386,107433,-4487,-15693,-1516,48,247,498
2,387,107438,-5019,-15713,-1825,50,276,511
2,388,107443,-4760,-15549,-1772,56,324,540
2,389,107448,-4301,-15484,-1123,57,405,558
2,390,107453,-466,-14053,328,59,484,571
2,391,107458,-1695,-14366,1834,62,686,610
2,392,107463,-10049,-18262,-6145,112,811,555
2,393,107468,-10638,-17106,-9921,155,982,605
2,394,107473,-3940,-17253,-5527,92,1188,738
2,395,107478,-1623,-15121,5046,27,1285,687
2,396,107483,-3535,-15924,8890,24,1030,620
2,397,107488,-7984,-15311,2271,97,690,564
2,398,107493,-8412,-15157,-5159,130,571,613
2,399,107498,-7093,-16074,-3191,77,592,696
2,400,107503,-3437,-16149,3220,4,389,705
2,401,107508,-2302,-16250,4815,-40,19,700
2,402,107513,-4340,-16009,226,15,-181,658
2,403,107518,-7813,-15156,-4396,81,-103,653
2,404,107523,-8329,-15317,-3787,78,29,729
2,405,107528,-5598,-15785,-534,22,23,783
2,406,107533,-3004,-16330,1017,-7,-42,782
2,407,107538,-3459,-16263,-423,33,-11,744
2,408,107543,-6165,-15686,-2347,81,101,725
2,409,107548,-7539,-15309,-2727,76,154,756
2,410,107553,-6543,-15358,-1344,27,145,808
2,411,107558,-4655,-15831,228,3,146,828
2,412,107563,-4467,-15873,456,29,170,809
2,413,107568,-5686,-15710,-779,62,170,797
2,414,107573,-6782,-15380,-2029,58,130,808
2,415,107578,-6653,-15339,-1856,24,111,833
2,416,107583,-5839,-15416,-664,0,139,855
2,417,107588,-5491,-15538,18,10,179,859
2,418,107593,-5779,-15630,-827,36,196,859
2,419,107598,-6266,-15563,-1848,41,194,862
2,420,107603,-6406,-15385,-1776,26,194,876
2,421,107608,-6258,-15665,-637,9,198,899
2,422,107613,-6240,-15308,162,20,189,880
2,423,107618,-6326,-15322,-478,24,171,892
2,424,107623,-6438,-15563,-1446,24,168,917
2,425,107628,-6459,-15420,-1233,10,174,924
2,426,107633,-6374,-15569,-514,-3,148,937
2,427,107638,-6307,-15342,-390,-2,110,927
2,428,107643,-6422,-15226,-1153,2,105,934
2,429,107648,-6592,-15198,-1769,7,151,948
2,430,107653,-6689,-15265,-1486,-2,201,954
2,431,107658,-6661,-15298,-906,-19,204,959
2,432,107663,-6537,-15313,-843,-23,177,964
2,433,107668,-6660,-15194,-1031,-18,171,960
2,434,107673,-7142,-15175,-1058,-23,174,973
2,435,107678,-7134,-15282,-990,-33,150,978
2,436,107683,-7082,-15108,-851,-39,122,982
2,437,107688,-7306,-15430,-942,-35,98,981
2,438,107693,-7352,-14922,-1141,-31,84,968
2,439,107698,-7279,-15189,-1410,-46,87,988
2,440,107703,-7208,-15102,-1368,-48,109,987
2,441,107708,-7324,-15196,-1199,-46,130,990
2,442,107713,-7358,-15290,-1098,-43,130,993
2,443,107718,-7472,-15079,-1129,-44,113,984
2,444,107723,-7553,-15116,-1142,-51,104,983
2,445,107728,-7607,-15014,-1155,-54,104,978
2,446,107733,-7608,-15035,-1175,-58,104,979
2,447,107738,-7545,-15018,-1258,-62,99,974
2,448,107743,-7604,-14986,-1152,-65,80,971
2,449,107748,-7706,-14903,-1077,-66,44,965
2,450,107753,-7799,-14835,-1089,-70,11,957
2,451,107758,-7984,-14760,-1023,-66,-12,951
2,452,107763,-8103,-14682,-772,-68,-50,952
2,453,107768,-8220,-15009,-1096,-72,-101,949
2,454,107773,-8135,-14578,-1350,-67,-118,919
2,455,107778,-7815,-14629,-1806,-70,-92,926
2,456,107783,-7735,-14956,-1869,-70,-24,930
2,457,107788,-7992,-14753,-1571,-62,39,913
2,458,107793,-8067,-14739,-1609,-61,64,905
2,459,107798,-8149,-14592,-1713,-59,88,896
2,460,107803,-8219,-14593,-1464,-60,131,886
2,461,107808,-8299,-14540,-1222,-57,165,874
2,462,107813,-8202,-14511,-1164,-55,178,863
2,463,107818,-8121,-14429,-1230,-60,169,848
2,464,107823,-8198,-14364,-1132,-64,142,830
2,465,107828,-8333,-14229,-854,-67,102,818
2,466,107833,-8372,-14085,-941,-64,59,806
2,467,107838,-8261,-14073,-1311,-61,31,791
2,468,107843,-8183,-14021,-1568,-61,22,774
2,469,107848,-8138,-14049,-1495,-63,10,768
2,470,107853,-8158,-14046,-1352,-68,-5,752
2,471,107858,-8075,-13999,-1311,-66,-15,733
2,472,107863,-8114,-13907,-1492,-55,-16,716
2,473,107868,-8240,-13844,-1562,-51,-13,700
2,474,107873,-8298,-13789,-1597,-49,-11,688
2,475,107878,-8209,-13841,-1553,-50,-13,675
2,476,107883,-8211,-13833,-1363,-49,0,657
2,477,107888,-8269,-13788,-1241,-47,9,642
2,478,107893,-8412,-13783,-1277,-45,16,620
2,479,107898,-8362,-13788,-1604,-36,36,602
2,480,107903,-8303,-13708,-1789,-33,69,586
2,481,107908,-8203,-13698,-1650,-35,102,568
2,482,107913,-8321,-13675,-1251,-33,122,548
2,483,107918,-8381,-13593,-1119,-32,122,525
2,484,107923,-8470,-13525,-1105,-27,123,503
2,485,107928,-8495,-13562,-1132,-23,120,485
2,486,107933,-8638,-13528,-955,-24,102,462
2,487,107938,-8646,-13560,-721,-29,64,439
2,488,107943,-8554,-13610,-721,-29,20,418
2,489,107948,-8469,-13636,-1071,-24,-1,397
2,490,107953,-8366,-13685,-1437,-19,13,376
2,491,107958,-8371,-13724,-1561,-16,39,355
2,492,107963,-8429,-13696,-1553,-12,62,333
2,493,107968,-8590,-13532,-1571,-7,91,307
2,494,107973,-8634,-13428,-1637,-4,127,281
2,495,107978,-8548,-13447,-1723,4,171,261
2,496,107983,-8378,-13457,-1628,8,221,241
2,497,107988,-8348,-13555,-1300,7,253,218
2,498,107993,-8275,-13568,-1116,9,254,188
2,499,107998,-8273,-13512,-1038,11,245,161
2,500,108003,-8238,-13418,-1136,13,225,136
2,501,108008,-8270,-13380,-961,12,199,112
2,502,108013,-8243,-13406,-779,8,155,88
2,503,108018,-8198,-13343,-699,8,97,61
2,504,108023,-8190,-13319,-738,9,33,34
2,505,108028,-8240,-13265,-1040,13,-18,7
2,506,108033,-8272,-13193,-1303,16,-55,-17
2,507,108038,-7881,-13229,-1690,16,-90,-66
2,508,108043,-7965,-13260,-1581,21,-81,-95
2,509,108048,-8225,-13298,-1533,28,-76,-121
2,510,108053,-8313,-13189,-1737,32,-65,-146
2,511,108058,-8183,-13179,-1997,39,-38,-170
2,512,108063,-7993,-13211,-1995,46,11,-192
2,513,108068,-8009,-13280,-1661,48,53,-220
2,514,108073,-8167,-13325,-1569,52,70,-253
2,515,108078,-8239,-13270,-1796,57,82,-281
2,516,108083,-8202,-13191,-1750,63,107,-307
2,517,108088,-8108,-13138,-1476,61,117,-334
2,518,108093,-7989,-13206,-1171,61,100,-364
2,519,108098,-8026,-13225,-1077,63,56,-395
2,520,108103,-8158,-13157,-1055,64,-5,-430
2,521,108108,-8360,-13042,-979,64,-76,-464
2,522,108113,-8402,-13011,-782,64,-161,-492
2,523,108118,-8350,-13006,-818,57,-247,-520
2,524,108123,-8219,-13140,-1095,64,-314,-549
2,525,108128,-8133,-13188,-1510,66,-360,-580
2,526,108133,-8110,-13242,-1868,71,-387,-608
2,527,108138,-8153,-13313,-2114,72,-389,-637
2,528,108143,-7981,-13504,-2374,83,-356,-665
2,529,108148,-7885,-13579,-2582,93,-286,-694
2,530,108153,-7981,-13655,-2569,106,-196,-724
2,531,108158,-8219,-13711,-2455,115,-104,-753
2,532,108163,-8317,-13813,-2434,123,-7,-784
2,533,108168,-8133,-14074,-2299,127,104,-810
2,534,108173,-7801,-14256,-2020,136,223,-838
2,535,108178,-7798,-14466,-1651,141,326,-869
2,536,108183,-7724,-14618,-1510,143,388,-898
2,537,108188,-7567,-14623,-1459,147,419,-928
2,538,108193,-7324,-14733,-1112,154,431,-954
2,539,108198,-7301,-14844,-462,151,412,-982
2,540,108203,-7306,-14897,104,148,346,-1011
2,541,108208,-7255,-14858,47,145,253,-1038
2,542,108213,-7185,-14937,-208,148,165,-1067
2,543,108218,-7148,-14906,-416,148,86,-1091
2,544,108223,-6940,-14932,-681,145,21,-1109
2,545,108228,-6589,-15012,-1056,142,-18,-1128
2,546,108233,-6121,-15196,-1518,147,-13,-1148
2,547,108238,-6002,-15298,-1795,157,34,-1171
2,548,108243,-6116,-15290,-1827,165,86,-1191
2,549,108248,-6254,-15180,-1697,164,125,-1210
2,550,108253,-6272,-15040,-1432,171,154,-1229
2,551,108258,-6222,-15028,-1187,175,177,-1250
2,552,108263,-5989,-15107,-887,175,189,-1267
2,553,108268,-5843,-15168,-652,174,170,-1287
2,554,108273,-5773,-15324,-420,166,122,-1305
2,555,108278,-5825,-15276,-261,160,48,-1326
2,556,108283,-5750,-15313,-296,158,-30,-1344
2,557,108288,-5675,-15358,-394,156,-100,-1362
2,558,108293,-5640,-15476,-317,149,-178,-1377
2,559,108298,-5787,-15608,-95,139,-262,-1390
2,560,108303,-5922,-15697,-105,130,-356,-1408
2,561,108308,-5910,-15691,-285,123,-432,-1429
2,562,108313,-5843,-15688,-736,121,-468,-1435
2,563,108318,-5619,-15664,-1120,120,-462,-1442
2,564,108323,-5259,-15935,-1556,119,-422,-1449
2,565,108328,-5159,-16090,-1649,117,-360,-1464
2,566,108333,-5273,-16137,-1703,122,-297,-1479
2,567,108338,-5343,-16171,-1554,123,-229,-1491
2,568,108343,-5257,-16267,-1288,120,-162,-1502
2,569,108348,-5276,-16118,-837,120,-102,-1522
2,570,108353,-5008,-16147,-382,111,-78,-1513
2,571,108358,-4873,-16738,-29,102,-112,-1511
2,572,108363,-4975,-16500,319,104,-201,-1554
2,573,108368,-4929,-16526,143,95,-321,-1559
2,574,108373,-4738,-16636,58,78,-407,-1565
2,575,108378,-4679,-16672,299,65,-462,-1575
2,576,108383,-4820,-16897,568,53,-542,-1582
2,577,108388,-4963,-16867,404,41,-651,-1591
2,578,108393,-4707,-17003,-279,30,-744,-1588
2,579,108398,-4350,-17005,-1044,29,-771,-1589
2,580,108403,-4240,-16986,-1472,24,-719,-1594
2,581,108408,-4457,-16999,-1873,18,-536,-1594
2,582,108413,-4651,-16967,-2144,24,-423,-1598
2,583,108418,-4593,-16845,-2181,30,-287,-1594
2,584,108423,-4120,-16884,-1966,37,-146,-1589
2,585,108428,-3689,-16947,-1763,46,-25,-1593
2,586,108433,-3547,-17013,-1504,46,73,-1595
2,587,108438,-3585,-16976,-1119,44,128,-1599
2,588,108443,-3567,-16970,-525,43,140,-1599
2,589,108448,-3425,-16967,-92,39,101,-1600
2,590,108453,-3233,-16955,179,36,26,-1595
2,591,108458,-3147,-16987,328,31,-67,-1595
2,592,108463,-3032,-16992,372,23,-184,-1595
2,593,108468,-2911,-17021,183,13,-304,-1591
2,594,108473,-2797,-17034,-9,9,-412,-1582
2,595,108478,-2642,-17107,-220,3,-503,-1573
2,596,108483,-2528,-17220,-459,-1,-580,-1563
2,597,108488,-2513,-17165,-574,-2,-634,-1558
2,598,108493,-2416,-17168,-831,-3,-661,-1551
2,599,108498,2710,-16872,158,-10,-658,-1538
2,600,108503,14746,-17260,15348,-309,-831,-1655
2,601,108510,-32768,-10143,32767,-778,-4680,-2436
2,602,108514,0,0,0,0,0,0
2,603,108518,1940,9383,-32768,498,-18781,944
2,604,108523,24690,-24446,-31575,-535,-7818,2945
2,605,108528,6534,-30298,15548,-896,7176,1644
2,606,108533,-32768,-8347,32767,660,12087,-405
2,607,108538,-26768,-5079,-17819,633,3367,575
2,608,108543,8115,-21387,-32768,483,4912,1376
2,609,108548,20161,-29033,-12179,20,5544,839
2,610,108553,-876,-22872,32767,-505,4582,153
2,611,108558,-20992,-13114,31608,-249,2417,13
2,612,108563,-13488,-9123,-1356,93,1923,238
2,613,108568,2442,-14164,-25811,116,2756,466
2,614,108573,6899,-21906,-5062,-353,3341,379
2,615,108578,-3075,-16382,21755,-457,2127,40
2,616,108583,-10164,-13486,28837,-351,64,287
2,617,108588,-6486,-15540,9740,-93,-1519,600
2,618,108593,2427,-16775,-11829,-23,-1929,500
2,619,108598,762,-16017,-14607,-300,-1537,348
2,620,108603,-6235,-17774,2379,-458,-1193,424
2,621,108608,-7067,-15961,10846,-392,-1607,467
2,622,108613,-338,-15644,1291,-191,-2072,507
2,623,108618,3091,-16626,-10956,-122,-1729,457
2,624,108623,-1264,-16544,-11083,-164,-812,349
2,625,108628,-7269,-17012,-1301,-219,-269,369
2,626,108633,-5140,-16367,1130,-211,-398,407
2,627,108638,545,-16050,-576,-116,-381,420
2,628,108643,2243,-16321,-3607,-83,-90,378
2,629,108648,-2155,-16102,-2554,-85,274,331
2,630,108653,-5992,-16156,154,-117,337,373
2,631,108658,-4161,-16200,32,-112,168,414
2,632,108663,-452,-15900,-672,-96,139,418
2,633,108668,225,-16403,259,-87,279,386
2,634,108673,-2425,-15960,1563,-96,323,323
2,635,108678,-4044,-15992,-56,-125,168,331
2,636,108683,-2935,-16008,-2536,-135,70,352
2,637,108688,-1477,-16099,-1837,-137,169,357
2,638,108693,-1591,-16157,1008,-127,256,336
2,639,108698,-2583,-16025,1238,-112,159,307
2,640,108703,-3118,-15873,-1129,-101,24,298
2,641,108708,-3021,-15914,-2832,-96,23,311
2,642,108713,-2938,-16068,-1575,-95,127,318
2,643,108718,-2881,-15972,500,-91,151,317
2,644,108723,-2638,-16116,309,-84,55,302
2,645,108728,-2662,-15939,-1176,-66,-6,276
2,646,108733,-3038,-15862,-1563,-52,13,269
2,647,108738,-3359,-16029,-569,-55,27,274
2,648,108743,-3185,-15974,250,-56,-35,269
2,649,108748,-2735,-15920,75,-51,-135,261
2,650,108753,-2703,-15869,-579,-41,-189,243
2,651,108758,-3179,-15742,-818,-37,-200,232
2,652,108763,-3407,-15837,-894,-36,-209,228
2,653,108768,-3159,-15832,-1072,-41,-218,222
2,654,108773,-3011,-15773,-1255,-33,-156,194
2,655,108778,-3312,-15685,-1398,-22,-112,184
2,656,108783,-3397,-15630,-1741,-16,-62,178
2,657,108788,-3256,-15677,-1881,-10,8,173
2,658,108793,-3133,-15719,-1600,-7,86,165
2,659,108798,-3190,-15842,-1112,-1,143,159
2,660,108803,-3269,-15863,-921,12,168,149
2,661,108808,-3231,-15880,-1077,19,191,141
2,662,108813,-3164,-16003,-1096,22,221,134
2,663,108818,-3110,-15990,-818,27,240,129
2,664,108823,-3073,-15973,-603,30,237,124
2,665,108828,-2836,-16046,-649,37,215,118
2,666,108833,-2747,-16026,-777,44,196,110
2,667,108838,-2830,-16028,-731,49,177,105
2,668,108843,-2845,-16025,-565,47,147,99
2,669,108848,-2862,-15932,-608,49,115,95
2,670,108853,-2885,-15956,-667,54,91,89
2,671,108858,-2865,-15908,-815,57,76,85
2,672,108863,-2721,-15952,-847,60,68,84
2,673,108868,-2724,-15998,-988,65,64,79
2,674,108873,-2740,-16024,-1116,64,72,75
2,675,108878,-2904,-16011,-1096,64,77,68
2,676,108883,-3134,-16063,-950,67,72,64
2,677,108888,-3208,-15944,-776,70,58,59
2,678,108893,-3220,-15911,-676,69,38,57
2,679,108898,-3227,-15925,-815,72,26,51
2,680,108903,-3309,-15859,-921,80,26,44
2,681,108908,-3282,-15890,-939,78,14,43
2,682,108913,-3325,-15922,-949,76,3,39
2,683,108918,-3324,-15964,-1102,81,2,36
2,684,108923,-3447,-15920,-1162,80,21,29
2,685,108928,-3423,-15914,-1232,86,44,28
2,686,108933,-3351,-15913,-1253,91,67,28
2,687,108938,-3154,-15941,-1220,94,83,24
2,688,108943,-3182,-15914,-1211,95,104,20
2,689,108948,-3265,-15995,-1178,99,124,17
2,690,108953,-3377,-15963,-1109,100,137,11
2,691,108958,-3325,-16029,-1108,96,139,13
2,692,108963,-3284,-16084,-912,97,137,12
2,693,108968,-3241,-16065,-854,98,130,7
2,694,108973,-3194,-16119,-821,98,122,6
2,695,108978,-3339,-16078,-800,95,109,0
2,696,108983,-3446,-16137,-848,95,91,-3
2,697,108988,-3519,-16062,-1061,96,69,-3
2,698,108993,-3361,-16059,-1154,95,60,-1
2,699,108998,-3329,-16013,-1033,94,59,-6
2,700,109003,-3333,-16032,-1023,95,51,-9
2,701,109008,-3401,-16041,-1049,94,39,-11
2,702,109013,-3505,-16046,-1152,94,33,-13
2,703,109018,-3524,-16024,-1094,95,28,-12
2,704,109023,-3452,-16067,-1059,92,22,-9
2,705,109028,-3381,-16077,-940,92,13,-12
2,706,109033,-3340,-16073,-1021,92,7,-15
2,707,109038,-3363,-16078,-1238,94,8,-20
2,708,109043,-3419,-16039,-1293,91,15,-21
2,709,109048,-3386,-16041,-1203,88,22,-18
2,710,109053,-3346,-16029,-1182,89,29,-20
2,711,109058,-3299,-16016,-1182,91,36,-24
2,712,109063,-3306,-16016,-1160,91,42,-23
2,713,109068,-3386,-16020,-1080,88,44,-25
2,714,109073,-3399,-16068,-1028,85,43,-22
2,715,109078,-3413,-16130,-1161,85,41,-23
2,716,109083,-3428,-16173,-1133,85,42,-26
2,717,109088,-3349,-16131,-1032,80,40,-26
2,718,109093,-3268,-16117,-1004,79,38,-27
2,719,109098,-3265,-16056,-1138,83,40,-25
2,720,109103,-3329,-16057,-1235,79,49,-21
2,721,109108,-3386,-16017,-1151,80,48,-23
2,722,109113,-3446,-16018,-951,79,34,-24
2,723,109118,-3421,-16051,-779,73,9,-27
2,724,109123,-3452,-16107,-618,68,-19,-31
2,725,109128,-3437,-16159,-613,65,-38,-30
2,726,109133,-3411,-16170,-856,61,-54,-28
2,727,109138,-3303,-16163,-1132,59,-55,-26
2,728,109143,-3241,-16148,-1284,53,-28,-24
2,729,109148,-3262,-16115,-1193,51,-12,-24
2,730,109153,-3264,-16120,-1142,51,11,-28
2,731,109158,-3364,-16082,-1078,49,29,-26
2,732,109163,-3397,-16068,-1023,47,42,-24
2,733,109168,-3374,-16035,-933,46,37,-24
2,734,109173,-3352,-16055,-852,38,22,-25
2,735,109178,-3382,-16030,-848,37,3,-27
2,736,109183,-3447,-15981,-852,38,-21,-28
2,737,109188,-3527,-16002,-899,35,-44,-26
2,738,109193,-3543,-15981,-865,32,-65,-27
2,739,109198,-3542,-16048,-744,28,-92,-32
2,740,109203,-3562,-16139,-654,25,-117,-32
2,741,109208,-3586,-16216,-715,21,-140,-32
2,742,109213,-3572,-16233,-944,14,-151,-35
2,743,109218,-3607,-16185,-1097,14,-147,-32
2,744,109223,-3591,-16157,-1149,12,-129,-32
2,745,109228,-3583,-16151,-1250,12,-109,-34
2,746,109233,-3515,-16116,-1198,15,-80,-34
2,747,109238,-3463,-16130,-1156,15,-47,-36
2,748,109243,-3474,-16141,-1094,14,-19,-37
2,749,109248,-3537,-16173,-928,9,0,-38
2,750,109253,-3480,-16172,-794,5,6,-40
2,751,109258,-3431,-16163,-767,4,6,-42
2,752,109263,-3444,-16157,-748,2,3,-41
2,753,109268,-3508,-16171,-795,-4,-4,-43
2,754,109273,-3495,-16197,-817,-6,-16,-46
2,755,109278,-3462,-16143,-716,-9,-31,-45
2,756,109283,-3418,-16196,-752,-13,-39,-46
2,757,109288,-3447,-16195,-850,-14,-44,-47
2,758,109293,-3421,-16162,-955,-13,-50,-50
2,759,109298,-3456,-16139,-1022,-12,-55,-51
2,760,109303,-3393,-16122,-924,-17,-58,-52
2,761,109308,-3463,-16112,-814,-16,-66,-51
2,762,109313,-3438,-16123,-806,-16,-75,-52
2,763,109318,-3433,-16114,-900,-18,-81,-54
2,764,109323,-3446,-16084,-967,-19,-86,-54
2,765,109328,-3445,-16070,-948,-20,-88,-56
2,766,109333,-3408,-16028,-958,-20,-88,-56
2,767,109338,-3338,-16047,-950,-21,-85,-58
2,768,109343,-3349,-16080,-907,-23,-79,-61
2,769,109348,-3456,-16132,-818,-27,-75,-64
2,770,109353,-3490,-16096,-898,-29,-77,-64
2,771,109358,-3310,-16076,-1024,-28,-67,-59
2,772,109363,-3218,-16071,-1061,-27,-44,-62
2,773,109368,-3219,-16101,-1041,-27,-21,-63
2,774,109373,-3282,-16031,-958,-27,-10,-64
2,775,109378,-3399,-16060,-926,-28,-6,-68
2,776,109383,-3379,-16050,-800,-27,-1,-72
2,777,109388,-3328,-16043,-643,-31,1,-67
2,778,109393,-3263,-16104,-562,-32,-3,-67
2,779,109398,-3247,-16115,-651,-31,-14,-68
2,780,109403,-3250,-16069,-727,-33,-28,-71
2,781,109408,-3282,-16109,-736,-34,-39,-69
2,782,109413,-3292,-16092,-663,-37,-55,-70
2,783,109418,-3261,-16080,-601,-38,-68,-74
2,784,109423,-3269,-16075,-668,-40,-78,-77
2,785,109428,-3277,-16146,-754,-42,-80,-75
2,786,109433,-3310,-16064,-781,-39,-83,-77
2,787,109438,-3304,-16074,-807,-41,-85,-77
2,788,109443,-3401,-16088,-832,-43,-88,-80
2,789,109448,-3365,-16105,-875,-44,-87,-78
2,790,109453,-3337,-16148,-821,-43,-81,-82
2,791,109458,-3299,-16126,-817,-41,-70,-82
2,792,109463,-3327,-16126,-848,-42,-63,-81
2,793,109468,-3335,-16101,-887,-45,-54,-83
2,794,109473,-3380,-16106,-993,-45,-43,-86
2,795,109478,-3301,-16072,-969,-41,-31,-84
2,796,109483,-3242,-16029,-892,-43,-17,-88
2,797,109488,-3229,-15998,-882,-44,-9,-89
2,798,109493,-3292,-16023,-852,-42,-5,-90
2,799,109498,-3299,-15982,-918,-43,1,-93
2,800,109503,-3206,-15976,-1022,-39,8,-91
2,801,109508,-3196,-16057,-921,-40,14,-89
2,802,109513,-3231,-16077,-846,-40,6,-94
2,803,109518,-3227,-16041,-919,-39,1,-95
2,804,109523,-3175,-16095,-1028,-36,-3,-93
2,805,109528,-3194,-16123,-987,-34,-2,-96
2,806,109533,-3226,-16133,-940,-37,-10,-94
2,807,109538,-3226,-16119,-924,-38,-20,-96
2,808,109543,-3193,-16171,-1015,-33,-25,-96
2,809,109548,-3202,-16158,-1088,-31,-23,-99
2,810,109553,-3231,-16202,-1037,-31,-22,-99
2,811,109558,-3226,-16199,-903,-33,-25,-100
2,812,109563,-3191,-16202,-926,-35,-29,-98
2,813,109568,-3132,-16171,-1036,-33,-28,-97
2,814,109573,-3056,-16124,-1214,-29,-16,-98
2,815,109578,-3017,-16090,-1335,-25,-1,-98
2,816,109583,-2963,-16090,-1367,-26,14,-97
2,817,109588,-2939,-16085,-1315,-22,29,-97
2,818,109593,-2880,-16041,-1232,-18,42,-97
2,819,109598,-2912,-16042,-1198,-13,51,-98
2,820,109603,-2988,-16064,-1085,-15,52,-96
2,821,109608,-2968,-16083,-1084,-14,42,-94
2,822,109613,-2850,-16135,-1175,-13,33,-91
2,823,109618,-2763,-16118,-1157,-10,29,-90
2,824,109623,-2720,-16146,-1115,-8,24,-89
2,825,109628,-2810,-16127,-999,-9,14,-90
2,826,109633,-2925,-16149,-986,-6,-4,-89
2,827,109638,-2930,-16201,-978,-2,-16,-86
2,828,109643,-2849,-16234,-787,-2,-25,-82
2,829,109648,-2852,-16253,-660,-6,-42,-80
2,830,109653,-2908,-16302,-704,-5,-64,-79
2,831,109658,-2928,-16214,-899,-4,-82,-81
2,832,109663,-2920,-16191,-979,-2,-93,-79
2,833,109668,-2958,-16120,-865,-1,-105,-80
2,834,109673,-3030,-16155,-815,-4,-113,-78
2,835,109678,-3003,-16169,-914,-5,-117,-76
2,836,109683,-2956,-16117,-997,-1,-114,-76
2,837,109688,-2892,-16134,-1003,1,-103,-73
2,838,109693,-2896,-16037,-1023,-2,-96,-73
2,839,109698,-2948,-16059,-1005,-1,-92,-70
2,840,109703,-2931,-15996,-1032,-1,-89,-67
2,841,109708,-2908,-15981,-933,2,-78,-66
2,842,109713,-2844,-15983,-942,5,-65,-63
2,843,109718,-2797,-15956,-902,7,-52,-64
2,844,109723,-2885,-15975,-868,7,-52,-62
2,845,109728,-2975,-15996,-872,6,-57,-61
2,846,109733,-2952,-16015,-757,6,-63,-64
2,847,109738,-2926,-16017,-627,4,-71,-61
2,848,109743,-2984,-16071,-511,6,-85,-59
2,849,109748,-3031,-16074,-514,7,-101,-61
2,850,109753,-3042,-16136,-591,3,-116,-57
2,851,109758,-3082,-16134,-661,2,-128,-56
2,852,109763,-3087,-16129,-656,1,-141,-56
2,853,109768,-3087,-16103,-625,0,-155,-58
2,854,109773,-3154,-16097,-667,3,-165,-57
2,855,109778,-3188,-16078,-837,2,-164,-56
2,856,109783,-3214,-16081,-878,4,-161,-56
2,857,109788,-3153,-16101,-904,2,-158,-56
2,858,109793,-3105,-16126,-916,3,-153,-55
2,859,109798,-3077,-16106,-1078,6,-142,-56
2,860,109803,-3139,-16167,-1159,8,-121,-56
2,861,109808,-3069,-16131,-1261,10,-96,-54
2,862,109813,-2960,-16133,-1147,11,-64,-50
2,863,109818,-2934,-16125,-1018,14,-35,-52
2,864,109823,-3015,-16167,-995,11,-14,-50
2,865,109828,-3070,-16134,-1022,14,6,-50
2,866,109833,-3045,-16094,-1051,18,23,-50
2,867,109838,-2875,-16112,-933,17,43,-47
2,868,109843,-2828,-16103,-791,15,54,-45
2,869,109848,-2851,-16118,-722,16,53,-46
2,870,109853,-2935,-16085,-709,18,46,-44
2,871,109858,-2963,-16013,-737,21,39,-43
2,872,109863,-2904,-16017,-732,19,34,-42
2,873,109868,-2808,-16033,-685,18,26,-41
2,874,109873,-2828,-16023,-692,16,-5,-39
2,875,109878,-2915,-15978,-791,15,-20,-40
2,876,109883,-2922,-15935,-874,16,-31,-36
2,877,109888,-2905,-15911,-912,15,-36,-34
2,878,109893,-2842,-15999,-900,17,-39,-31
2,879,109898,-2915,-16011,-921,17,-43,-33
2,880,109903,-2955,-16024,-1021,18,-45,-31
2,881,109908,-2956,-16027,-1074,17,-41,-29
2,882,109913,-2942,-16027,-1044,17,-27,-29
2,883,109918,-2903,-16000,-1089,17,-12,-27
2,884,109923,-2850,-15985,-1158,17,9,-27
2,885,109928,-2764,-15995,-1147,23,36,-23
2,886,109933,-2751,-16010,-1058,24,60,-20
2,887,109938,-2698,-16052,-983,23,78,-21
2,888,109943,-2699,-15993,-922,24,91,-18
2,889,109948,-2684,-15977,-901,22,97,-14
2,890,109953,-2694,-15974,-853,22,102,-12
2,891,109958,-2618,-16016,-802,21,95,-10
2,892,109963,-2599,-16020,-766,21,79,-7
2,893,109968,-2632,-16025,-757,23,55,-7
2,894,109973,-2678,-16065,-694,22,30,-3
2,895,109978,-2728,-16101,-740,18,9,-2
2,896,109983,-2700,-16143,-807,17,-16,2
2,897,109988,-2643,-16194,-839,20,-37,6
2,898,109993,-2637,-16273,-810,18,-56,9
2,899,109998,-2702,-16288,-819,17,-75,9
2,900,110003,-2760,-16292,-851,19,-92,13
2,901,110008,-2837,-16341,-889,21,-100,14
2,902,110013,-2831,-16391,-899,23,-105,16
2,903,110018,-2843,-16413,-862,23,-105,21
2,904,110023,-2897,-16397,-853,19,-107,20
2,905,110028,-2922,-16436,-887,22,-107,23
2,906,110033,-2922,-16513,-946,21,-93,20
2,907,110038,-2951,-16501,-977,23,-81,24
2,908,110043,-3011,-16498,-955,20,-68,29
2,909,110048,-3011,-16459,-893,22,-56,28
2,910,110053,-3009,-16411,-904,21,-46,26
2,911,110058,-3053,-16387,-907,20,-35,27
2,912,110063,-3038,-16356,-894,23,-21,29
2,913,110068,-2971,-16301,-963,24,-7,34
2,914,110073,-2946,-16260,-949,22,1,33
2,915,110078,-2952,-16191,-866,22,5,34
2,916,110083,-2931,-16120,-873,22,7,33
2,917,110088,-2920,-16068,-862,23,9,36
2,918,110093,-2932,-16014,-924,28,6,35
2,919,110098,-2918,-16035,-850,29,3,38
2,920,110103,-2876,-16056,-791,27,-3,39
2,921,110108,-2863,-16064,-722,29,-14,38
2,922,110113,-2909,-16043,-688,27,-34,42
2,923,110118,-2983,-16068,-636,22,-48,40
2,924,110123,-2992,-16127,-694,23,-56,44
2,925,110128,-2938,-16155,-816,25,-60,45
2,926,110133,-2918,-16181,-833,24,-62,44
2,927,110138,-3009,-16177,-742,21,-65,45
2,928,110143,-3064,-16203,-709,20,-71,45
2,929,110148,-3120,-16191,-745,21,-70,46
2,930,110153,-3074,-16218,-814,22,-63,46
2,931,110158,-3067,-16240,-889,23,-51,50
2,932,110163,-3044,-16260,-896,20,-40,49
2,933,110168,-3040,-16191,-936,20,-29,47
2,934,110173,-3031,-16133,-987,20,-16,49
2,935,110178,-3047,-16122,-970,21,-3,51
2,936,110183,-3030,-16115,-875,23,16,48
2,937,110188,-2978,-16173,-784,18,27,48
2,938,110193,-2957,-16192,-780,17,27,48
2,939,110198,-2944,-16181,-878,16,25,50
2,940,110203,-2921,-16128,-959,18,25,52
2,941,110208,-2881,-16071,-993,19,25,51
2,942,110213,-2863,-16065,-937,18,20,50
2,943,110218,-2853,-16116,-906,19,18,52
2,944,110223,-2887,-16104,-882,19,17,50
2,945,110228,-2906,-16134,-880,22,9,54
2,946,110233,-2964,-16185,-735,21,-4,54
2,947,110238,-2973,-16197,-624,17,-21,55
2,948,110243,-2914,-16228,-747,20,-46,57
2,949,110248,-2950,-16211,-908,18,-47,55
2,950,110253,-2995,-16189,-933,17,-46,56
2,951,110258,-3014,-16171,-904,18,-48,56
2,952,110263,-2997,-16155,-842,17,-46,55
2,953,110268,-2999,-16202,-831,18,-36,53
2,954,110273,-3079,-16244,-777,19,-29,56
2,955,110278,-3120,-16269,-741,16,-27,55
2,956,110283,-3079,-16293,-768,14,-24,56
2,957,110288,-3003,-16258,-892,12,-14,55
2,958,110293,-3001,-16275,-1006,12,10,54
2,959,110298,-3104,-16302,-1072,14,33,58
2,960,110303,-3134,-16268,-1071,14,52,57
2,961,110308,-3150,-16245,-1036,15,70,55
2,962,110313,-3119,-16213,-900,17,89,54
2,963,110318,-3160,-16242,-781,16,101,53
2,964,110323,-3185,-16324,-628,17,95,53
2,965,110328,-3151,-16362,-485,13,78,52
2,966,110333,-3141,-16361,-451,10,57,50
2,967,110338,-3194,-16326,-490,8,34,48
2,968,110343,-3203,-16271,-577,7,10,47
2,969,110348,-3202,-16260,-717,5,-3,48
2,970,110353,-3202,-16258,-789,4,-17,46
2,971,110358,-3160,-16216,-702,4,-25,45
2,972,110363,-3199,-16182,-624,2,-28,43
2,973,110368,-3244,-16211,-685,2,-32,43
2,974,110373,-3207,-16215,-741,-1,-23,39
2,975,110378,-3196,-16207,-731,1,-6,44
2,976,110383,-3135,-16222,-682,0,3,42
2,977,110388,-3172,-16200,-734,-3,6,42
2,978,110393,-3226,-16172,-810,-4,14,40
2,979,110398,-3177,-16171,-892,-5,28,38
2,980,110403,-3104,-16152,-861,-6,42,39
2,981,110408,-3034,-16198,-826,-8,51,38
2,982,110413,-3097,-16232,-783,-8,51,38
2,983,110418,-3162,-16184,-764,-10,49,35
2,984,110423,-3194,-16175,-812,-11,45,35
2,985,110428,-3196,-16164,-798,-10,44,34
2,986,110433,-3153,-16176,-823,-11,51,33
2,987,110438,-3094,-16254,-807,-11,55,33
2,988,110443,-3123,-16251,-792,-12,58,31
2,989,110448,-3115,-16274,-736,-14,54,32
2,990,110453,-3092,-16260,-707,-13,47,32
2,991,110458,-3090,-16260,-633,-12,46,29
2,992,110463,-3059,-16256,-629,-14,45,32
2,993,110468,-3069,-16192,-592,-17,41,32
2,994,110473,-3048,-16162,-598,-21,33,30
2,995,110478,-3088,-16148,-628,-22,23,29
2,996,110483,-3074,-16113,-686,-22,20,28
2,997,110488,-3048,-16068,-731,-24,20,29
2,998,110493,-2984,-16061,-793,-25,26,31
2,999,110498,-2902,-16037,-855,-26,35,30
3,0,114713,-3020,-16129,-865,-1,-34,4
3,1,114718,-2945,-16113,-913,-2,-35,6
3,2,114723,-3010,-16135,-855,0,-32,4
3,3,114728,-3090,-16153,-836,0,-30,4
3,4,114733,-3046,-16149,-867,1,-28,8
3,5,114738,-3052,-16168,-903,2,-16,5
3,6,114743,-3022,-16143,-932,3,-2,6
3,7,114748,-2994,-16141,-925,1,8,6
3,8,114753,-3021,-16181,-806,2,12,5
3,9,114758,-3051,-16157,-737,2,13,5
3,10,114763,-3065,-16179,-790,2,19,1
3,11,114768,-3092,-16177,-826,3,19,6
3,12,114773,-3022,-16166,-835,3,19,9
3,13,114778,-3024,-16169,-793,3,15,6
3,14,114783,-3052,-16151,-795,1,6,4
3,15,114788,-3089,-16090,-800,3,-4,3
3,16,114793,-3106,-16056,-808,3,-9,1
3,17,114798,-3050,-16051,-882,3,-14,2
3,18,114803,-3078,-16108,-880,4,-15,3
3,19,114808,-3100,-16100,-831,2,-19,4
3,20,114813,-3072,-16098,-894,3,-25,3
3,21,114818,-3060,-16091,-927,5,-28,-1
3,22,114823,-3070,-16101,-916,6,-25,2
3,23,114828,-3072,-16092,-903,7,-24,3
3,24,114833,-3016,-16105,-873,4,-15,0
3,25,114838,-3054,-16108,-887,5,-14,-1
3,26,114843,-3088,-16118,-860,3,-13,0
3,27,114848,-3085,-16106,-873,5,-11,-2
3,28,114853,-3082,-16111,-872,2,-6,-4
3,29,114858,-3089,-16121,-865,3,-2,-2
3,30,114863,-3101,-16124,-896,4,6,-1
3,31,114868,-3096,-16160,-819,3,11,-1
3,32,114873,-3048,-16171,-831,3,16,-3
3,33,114878,-3041,-16140,-883,5,19,-4
3,34,114883,-3058,-16148,-869,2,27,-5
3,35,114888,-3086,-16146,-827,3,28,-5
3,36,114893,-3048,-16135,-740,3,23,-4
3,37,114898,-3045,-16154,-753,6,17,-4
3,38,114903,-3003,-16131,-771,5,6,-3
3,39,114908,-3011,-16141,-775,5,-2,-5
3,40,114913,-3012,-16103,-774,2,-5,-3
3,41,114918,-2972,-16133,-770,4,-12,-1
3,42,114923,-2978,-16187,-754,0,-19,-6
3,43,114928,-3030,-16135,-763,1,-27,-4
3,44,114933,-3039,-16180,-768,2,-30,-6
3,45,114938,-3063,-16201,-825,0,-28,-5
3,46,114943,-3053,-16198,-797,-1,-23,-6
3,47,114948,-3032,-16191,-841,-3,-19,-8
3,48,114953,-3081,-16164,-899,0,-16,-7
3,49,114958,-3069,-16146,-936,0,-10,-6
3,50,114963,-3026,-16153,-894,-2,1,-7
3,51,114968,-2987,-16173,-868,-1,9,-8
3,52,114973,-3001,-16192,-861,-2,17,-7
3,53,114978,-3047,-16121,-843,0,18,-5
3,54,114983,-3083,-16121,-863,1,18,-7
3,55,114988,-3075,-16104,-859,-4,19,-7
3,56,114993,-3047,-16102,-865,-3,21,-8
3,57,114998,-3067,-16093,-827,-2,18,-7
3,58,115003,-3090,-16120,-840,-2,18,-8
3,59,115008,-3122,-16089,-876,-4,14,-11
3,60,115013,-3028,-16046,-832,-3,6,-10
3,61,115018,-3006,-16082,-861,-3,4,-9
3,62,115023,-3028,-16114,-856,0,2,-10
3,63,115028,-3101,-16134,-901,-2,-5,-11
3,64,115033,-3123,-16079,-855,-4,-8,-10
3,65,115038,-3062,-16127,-780,-4,-17,-9
3,66,115043,-3043,-16122,-796,-5,-25,-11
3,67,115048,-3091,-16085,-794,-3,-27,-12
3,68,115053,-3070,-16113,-836,-3,-28,-10
3,69,115058,-3069,-16106,-880,-3,-27,-11
3,70,115063,-3056,-16116,-868,-8,-25,-13
3,71,115068,-3050,-16153,-880,-5,-20,-11
3,72,115073,-2986,-16153,-899,-2,-11,-11
3,73,115078,-2987,-16111,-907,-4,-2,-11
3,74,115083,-2985,-16134,-977,-5,8,-10
3,75,115088,-2972,-16119,-944,-5,16,-11
3,76,115093,-2940,-16127,-858,-4,18,-10
3,77,115098,-2968,-16124,-789,-4,19,-9
3,78,115103,-3003,-16150,-833,-3,17,-10
3,79,115108,-2978,-16152,-826,-6,12,-12
3,80,115113,-2932,-16126,-765,-5,7,-11
3,81,115118,-2912,-16126,-810,-5,2,-7
3,82,115123,-2896,-16113,-804,-5,-7,-8
3,83,115128,-2863,-16121,-784,-5,-16,-7
3,84,115133,-2916,-16111,-851,-4,-22,-7
3,85,115138,-2987,-16085,-854,-3,-28,-7
3,86,115143,-3006,-16066,-823,-7,-33,-4
3,87,115148,-2957,-16102,-874,-7,-36,-4
3,88,115153,-2983,-16090,-870,-6,-38,-4
3,89,115158,-2972,-16067,-826,-6,-40,-3
3,90,115163,-3017,-16075,-896,-6,-39,-5
3,91,115168,-3027,-16059,-886,-4,-36,-3
3,92,115173,-3075,-16107,-901,-6,-33,-4
3,93,115178,-3064,-16109,-843,-7,-28,-4
3,94,115183,-3030,-16111,-842,-4,-30,-1
3,95,115188,-3062,-16130,-830,-6,-29,-2
3,96,115193,-3033,-16121,-860,-6,-25,-2
3,97,115198,-3073,-16088,-911,-7,-25,-5
3,98,115203,-3060,-16072,-868,-9,-23,-6
3,99,115208,-3045,-16074,-898,-7,-21,-6
3,100,115213,-3060,-16035,-957,-4,-19,-4
3,101,115218,-3047,-16066,-975,-3,-16,-5
3,102,115223,-3052,-16101,-981,-4,-12,-6
3,103,115228,-3004,-16089,-961,-3,-12,0
3,104,115233,-2930,-16102,-923,-2,-13,-4
3,105,115238,-2934,-16102,-921,1,-13,-4
3,106,115243,-2996,-16072,-938,2,-12,0
3,107,115248,-3010,-16083,-905,0,-15,-1
3,108,115253,-2968,-16059,-806,-2,-20,-5
3,109,115258,-2996,-16092,-760,-1,-28,-4
3,110,115263,-3007,-16177,-789,2,-37,-4
3,111,115268,-3030,-16172,-793,0,-43,-4
3,112,115273,-3024,-16188,-764,1,-44,-2
3,113,115278,-3044,-16212,-762,0,-46,-3
3,114,115283,-3083,-16223,-863,-1,-49,-2
3,115,115288,-3114,-16240,-869,-1,-45,-5
3,116,115293,-3093,-16216,-875,0,-43,-2
3,117,115298,-3069,-16214,-921,2,-39,-4
3,118,115303,-3091,-16218,-877,3,-37,-5
3,119,115308,-3079,-16197,-844,2,-31,-3
3,120,115313,-3045,-16190,-896,3,-23,-3
3,121,115318,-3097,-16142,-911,6,-19,-4
3,122,115323,-3111,-16135,-925,5,-15,-2
3,123,115328,-3120,-16143,-970,0,-9,-2
3,124,115333,-3096,-16123,-927,2,-9,-6
3,125,115338,-3077,-16171,-874,3,-9,-6
3,126,115343,-3098,-16171,-790,3,-10,-4
3,127,115348,-3146,-16136,-801,5,-16,-5
3,128,115353,-3151,-16153,-836,5,-23,-7
3,129,115358,-3138,-16162,-816,7,-27,-8
3,130,115363,-3118,-16175,-790,6,-31,-9
3,131,115368,-3087,-16181,-840,3,-33,-9
3,132,115373,-3056,-16199,-828,3,-32,-9
3,133,115378,-3135,-16212,-861,7,-30,-8
3,134,115383,-3122,-16196,-833,5,-31,-8
3,135,115388,-3088,-16207,-862,6,-28,-8
3,136,115393,-3044,-16165,-900,7,-20,-7
3,137,115398,-3028,-16162,-936,6,-13,-10
3,138,115403,-3020,-16120,-941,6,-8,-10
3,139,115408,-3070,-16124,-922,5,-6,-10
3,140,115413,-3127,-16111,-861,7,-6,-10
3,141,115418,-3074,-16126,-857,7,-4,-9
3,142,115423,-3034,-16145,-809,7,-2,-8
3,143,115428,-3040,-16149,-776,6,-5,-8
3,144,115433,-3042,-16165,-805,6,-7,-11
3,145,115438,-3039,-16157,-827,7,-9,-9
3,146,115443,-3072,-16103,-851,4,-11,-7
3,147,115448,-3080,-16092,-864,6,-12,-9
3,148,115453,-3054,-16107,-881,6,-15,-8
3,149,115458,-3029,-16156,-824,8,-17,-8
3,150,115463,-3086,-16120,-813,7,-21,-8
3,151,115468,-3049,-16098,-765,5,-29,-6
3,152,115473,-3033,-16095,-785,5,-37,-8
3,153,115478,-3072,-16115,-801,6,-38,-8
3,154,115483,-3029,-16104,-810,7,-38,-7
3,155,115488,-2995,-16123,-858,4,-33,-7
3,156,115493,-3020,-16093,-962,3,-28,-7
3,157,115498,-3034,-16074,-944,3,-23,-5
3,158,115503,-3033,-16088,-909,4,-18,-5
3,159,115508,-3075,-16068,-870,4,-12,-9
3,160,115513,-3091,-16151,-803,4,-9,-10
3,161,115518,-3089,-16127,-710,2,-9,-7
3,162,115523,-3103,-16185,-736,4,-9,-8
3,163,115528,-3111,-16171,-794,1,-11,-5
3,164,115533,-3103,-16146,-868,2,-10,-5
3,165,115538,-3090,-16092,-973,2,-5,-5
3,166,115543,-3090,-16071,-966,1,3,-6
3,167,115548,-3128,-16112,-937,-1,9,-7
3,168,115553,-3103,-16077,-921,3,13,-7
3,169,115558,-3095,-16082,-932,4,20,-4
3,170,115563,-3059,-16100,-879,3,23,-6
3,171,115568,-3002,-16129,-813,1,18,-6
3,172,115573,-3012,-16153,-731,-1,5,-5
3,173,115578,-3046,-16174,-678,1,-6,-7
3,174,115583,-3059,-16207,-689,1,-15,-8
3,175,115588,-3057,-16173,-723,-2,-25,-9
3,176,115593,-3046,-16236,-742,-6,-33,-4
3,177,115598,-3066,-16223,-804,-5,-37,-7
3,178,115603,-3121,-16193,-874,-3,-41,-7
3,179,115608,-3082,-16171,-989,-3,-37,-6
3,180,115613,-3087,-16140,-1045,-2,-27,-5
3,181,115618,-3034,-16142,-1040,-2,-11,-2
3,182,115623,-3005,-16115,-962,0,3,-3
3,183,115628,-2996,-16144,-898,0,15,-3
3,184,115633,-2963,-16157,-911,0,21,-3
3,185,115638,-2981,-16137,-814,0,22,-2
3,186,115643,-2984,-16155,-794,-1,19,-3
3,187,115648,-2985,-16198,-755,-5,9,0
3,188,115653,-2973,-16184,-761,-3,-1,0
3,189,115658,-3004,-16200,-828,-3,-11,-2
3,190,115663,-3015,-16198,-880,-1,-21,-1
3,191,115668,-3022,-16206,-850,-4,-31,1
3,192,115673,-3024,-16188,-880,-3,-37,2
3,193,115678,-3076,-16175,-922,0,-41,2
3,194,115683,-3110,-16192,-909,-3,-40,1
3,195,115688,-3117,-16123,-960,-1,-43,-1
3,196,115693,-3115,-16129,-974,0,-42,1
3,197,115698,-3083,-16149,-951,-3,-38,3
3,198,115703,-3089,-16137,-910,0,-31,3
3,199,115708,-3084,-16143,-877,3,-24,2
3,200,115713,-3143,-16160,-888,2,-19,1
3,201,115718,-3140,-16169,-899,2,-17,1
3,202,115723,-3145,-16166,-865,1,-14,2
3,203,115728,-3086,-16202,-810,3,-9,0
3,204,115733,-3061,-16206,-843,0,-3,1
3,205,115738,-3042,-16192,-929,1,2,0
3,206,115743,-3020,-16211,-972,0,8,1
3,207,115748,-3072,-16189,-885,-1,17,0
3,208,115753,-3062,-16179,-853,2,19,0
3,209,115758,-3015,-16166,-755,1,19,4
3,210,115763,-3017,-16163,-811,2,19,5
3,211,115768,-2944,-16119,-873,2,22,3
3,212,115773,-2938,-16075,-826,-3,19,1
3,213,115778,-2972,-16109,-773,-2,11,3
3,214,115783,-2996,-16045,-761,-1,2,6
3,215,115788,-3030,-16075,-784,-2,-8,8
3,216,115793,-2977,-16072,-738,-2,-10,6
3,217,115798,-2955,-16087,-726,-4,-16,8
3,218,115803,-2945,-16100,-794,-4,-24,7
3,219,115808,-2969,-16013,-877,-4,-31,7
3,220,115813,-3031,-16025,-907,-7,-38,6
3,221,115818,-3086,-16032,-914,-5,-41,9
3,222,115823,-3113,-15995,-901,-6,-40,7
3,223,115828,-3036,-16015,-949,-6,-36,7
3,224,115833,-3043,-16042,-1010,-6,-29,8
3,225,115838,-3120,-16009,-980,-7,-23,8
3,226,115843,-3143,-15989,-986,-6,-16,7
3,227,115848,-3093,-16024,-948,-4,-11,7
3,228,115853,-3107,-16043,-906,-4,-1,9
3,229,115858,-3077,-16065,-865,-5,11,10
3,230,115863,-3130,-16091,-816,-6,18,4
3,231,115868,-3138,-16081,-796,-8,15,5
3,232,115873,-3106,-16110,-806,-7,9,8
3,233,115878,-3099,-16072,-794,-7,7,5
3,234,115883,-3071,-16084,-811,-8,7,5
3,235,115888,-3118,-16050,-855,-9,4,4
3,236,115893,-3123,-16100,-870,-10,1,4
3,237,115898,-3128,-16127,-855,-10,-3,4
3,238,115903,-3082,-16134,-884,-9,-4,4
3,239,115908,-3069,-16125,-801,-13,-5,5
3,240,115913,-3051,-16133,-793,-15,-8,3
3,241,115918,-3036,-16134,-840,-13,-5,4
3,242,115923,-3000,-16145,-825,-11,-4,7
3,243,115928,-3064,-16165,-785,-13,-7,2
3,244,115933,-3108,-16176,-745,-14,-13,3
3,245,115938,-3072,-16207,-769,-14,-16,4
3,246,115943,-3078,-16165,-771,-15,-18,6
3,247,115948,-3081,-16156,-833,-14,-18,6
3,248,115953,-3069,-16158,-847,-14,-17,3
3,249,115958,-3030,-16147,-873,-14,-17,3
3,250,115963,-3061,-16125,-884,-15,-16,4
3,251,115968,-3061,-16152,-889,-17,-11,3
3,252,115973,-3075,-16170,-902,-16,-4,2
3,253,115978,-3056,-16206,-886,-17,2,2
3,254,115983,-3089,-16186,-841,-16,9,3
3,255,115988,-3063,-16140,-835,-15,10,4
3,256,115993,-3050,-16161,-838,-15,12,3
3,257,115998,-3063,-16165,-881,-15,9,1
3,258,116003,-3056,-16190,-936,-14,10,1
3,259,116008,-3070,-16124,-879,-16,11,2
3,260,116013,-3102,-16132,-843,-17,6,5
3,261,116018,-3072,-16140,-804,-17,-1,2
3,262,116023,-3097,-16190,-869,-14,-3,0
3,263,116028,-3116,-16119,-909,-17,-6,-3
3,264,116033,-3158,-16096,-876,-15,-9,1
3,265,116038,-3153,-16134,-824,-18,-15,1
3,266,116043,-3162,-16110,-836,-18,-17,-1
3,267,116048,-3121,-16139,-925,-18,-10,-4
3,268,116053,-3085,-16105,-965,-17,-2,-1
3,269,116058,-3083,-16135,-929,-15,4,0
3,270,116063,-3086,-16100,-916,-16,10,0
3,271,116068,-3090,-16099,-922,-16,17,-2
3,272,116073,-3061,-16115,-909,-13,24,-2
3,273,116078,-3036,-16138,-896,-12,26,2
3,274,116083,-2998,-16156,-894,-15,33,1
3,275,116088,-2989,-16103,-848,-16,35,-2
3,276,116093,-3058,-16039,-805,-18,30,-2
3,277,116098,-3056,-16051,-837,-17,23,-1
3,278,116103,-3000,-16024,-848,-16,19,-3
3,279,116108,-2984,-16003,-918,-16,18,-3
3,280,116113,-3033,-16004,-858,-18,11,0
3,281,116118,-3037,-15997,-937,-17,-3,-2
3,282,116123,-3062,-15973,-910,-15,-10,-4
3,283,116128,-3037,-15964,-1008,-14,-10,-2
3,284,116133,-2982,-15969,-980,-13,-10,-2
3,285,116138,-2972,-15988,-959,-13,-15,1
3,286,116143,-3046,-16033,-907,-13,-24,-1
3,287,116148,-3067,-15996,-877,-12,-27,-2
3,288,116153,-3132,-16020,-885,-13,-31,-3
3,289,116158,-3174,-15998,-906,-11,-30,-4
3,290,116163,-3147,-16050,-951,-15,-27,-2
3,291,116168,-3140,-16089,-954,-13,-21,0
3,292,116173,-3182,-16092,-957,-13,-17,-5
3,293,116178,-3177,-16076,-975,-10,-12,-3
3,294,116183,-3157,-16058,-988,-9,-4,-3
3,295,116188,-3097,-16058,-993,-7,8,-3
3,296,116193,-3084,-16083,-945,-10,24,-2
3,297,116198,-3149,-16101,-899,-10,29,-8
3,298,116203,-3171,-16139,-898,-9,27,-7
3,299,116208,-3089,-16109,-858,-8,29,-6
3,300,116213,-3045,-16110,-832,-7,31,-8
3,301,116218,-2988,-16140,-871,-6,31,-6
3,302,116223,-3003,-16136,-973,-8,34,-6
3,303,116228,-3024,-16085,-942,-6,30,-8
3,304,116233,-3020,-16084,-879,-5,20,-8
3,305,116238,-3036,-16109,-858,-5,9,-11
3,306,116243,-2990,-16043,-902,-4,2,-10
3,307,116248,-2991,-16036,-944,-4,-4,-8
3,308,116253,-2984,-16063,-939,-2,-11,-8
3,309,116258,-3024,-16042,-885,-2,-22,-9
3,310,116263,-3068,-16075,-841,-4,-35,-9
3,311,116268,-3050,-16124,-875,-2,-46,-9
3,312,116273,-3053,-16133,-926,2,-45,-9
3,313,116278,-3138,-16140,-1007,2,-43,-8
3,314,116283,-3152,-16143,-1010,2,-36,-5
3,315,116288,-3090,-16170,-1043,3,-32,-6
3,316,116293,-3095,-16190,-1051,3,-22,-10
3,317,116298,-3098,-16221,-1050,8,-10,-8
3,318,116303,-3152,-16144,-1020,8,4,-10
3,319,116308,-3178,-16238,-1017,9,18,-9
3,320,116313,-3102,-16215,-994,8,33,-8
3,321,116318,-3078,-16148,-963,8,40,-9
3,322,116323,-3039,-16101,-967,12,39,-11
3,323,116328,-3097,-16081,-935,11,35,-11
3,324,116333,-3140,-16158,-914,11,32,-13
3,325,116338,-3115,-16160,-826,9,25,-11
3,326,116343,-3072,-16170,-783,10,18,-13
3,327,116348,-3013,-16137,-904,14,8,-14
3,328,116353,-2994,-16139,-1040,15,2,-14
3,329,116358,-3037,-16128,-1050,14,-1,-12
3,330,116363,-3039,-16158,-898,14,-4,-10
3,331,116368,-2993,-16148,-809,15,-8,-10
3,332,116373,-2942,-16185,-902,15,-9,-9
3,333,116378,-3013,-16173,-945,18,-1,-10
3,334,116383,-3073,-16157,-920,18,1,-12
3,335,116388,-3099,-16148,-896,15,-6,-9
3,336,116393,-3051,-16154,-862,12,-13,-9
3,337,116398,-3011,-16163,-836,16,-5,-10
3,338,116403,-3073,-16113,-924,21,1,-8
3,339,116408,-3066,-16122,-952,16,3,-10
3,340,116413,-3110,-16140,-924,16,0,-10
3,341,116418,-3121,-16141,-925,15,-2,-9
3,342,116423,-3119,-16090,-934,16,-2,-9
3,343,116428,-3138,-16049,-968,16,-2,-10
3,344,116433,-3141,-16068,-1001,19,0,-12
3,345,116438,-3126,-16031,-1013,17,2,-10
3,346,116443,-3001,-16066,-976,17,6,-9
3,347,116448,-3030,-16112,-912,21,8,-11
3,348,116453,-3050,-16100,-939,19,0,-14
3,349,116458,-3059,-16058,-885,17,-2,-9
3,350,116463,-3095,-16068,-863,16,-2,-10
3,351,116468,-3090,-16144,-811,18,-6,-9
3,352,116473,-3034,-16119,-863,15,-9,-9
3,353,116478,-2988,-16103,-903,16,-14,-9
3,354,116483,-3034,-16114,-934,13,-12,-9
3,355,116488,-3086,-16102,-911,16,-10,-7
3,356,116493,-3045,-16062,-933,17,-9,-10
3,357,116498,-3062,-16090,-972,16,-8,-9
3,358,116503,-3071,-16115,-941,16,-6,-8
3,359,116508,-3060,-16108,-894,18,-7,-9
3,360,116513,-3119,-16118,-836,19,-11,-8
3,361,116518,-3165,-16140,-861,17,-18,-9
3,362,116523,-3149,-16135,-912,16,-22,-7
3,363,116528,-3061,-16099,-993,18,-23,-2
3,364,116533,-3068,-16104,-947,20,-20,-2
3,365,116538,-3128,-16037,-970,18,-18,-1
3,366,116543,-3095,-15979,-1206,17,-16,3
3,367,116548,-3007,-15868,-1320,23,1,8
3,368,116553,-3051,-15893,-1172,23,26,5
3,369,116558,-3418,-15998,-1210,28,47,6
3,370,116563,-3378,-16064,-1501,33,68,14
3,371,116568,-2892,-15995,-1732,34,123,25
3,372,116573,-2663,-15884,-1416,36,209,30
3,373,116578,-2975,-15675,-981,36,280,31
3,374,116583,-3195,-15723,-1613,40,317,36
3,375,116588,-3059,-15551,-1894,52,365,49
3,376,116593,-2702,-15683,-1478,47,408,64
3,377,116598,-2901,-15657,-275,47,413,65
3,378,116603,-2972,-15796,-149,48,361,73
3,379,116608,-3202,-15822,-756,54,311,82
3,380,116613,-3261,-15776,-1049,56,292,93
3,381,116618,-3439,-15851,-453,48,272,109
3,382,116623,-3105,-15792,-246,43,223,123
3,383,116628,-2839,-15834,-746,49,199,139
3,384,116633,-2706,-15945,-1324,61,221,148
3,385,116638,-3094,-15936,-969,60,243,161
3,386,116643,-3179,-15924,-472,58,207,179
3,387,116648,-3183,-15829,-201,55,143,196
3,388,116653,-3549,-15781,-80,54,86,207
3,389,116658,-3889,-15707,-131,58,27,221
3,390,116663,-3814,-15701,-339,58,-42,240
3,391,116668,-3578,-15652,-500,54,-103,259
3,392,116673,-3620,-15610,-874,49,-137,275
3,393,116678,-3982,-15504,-871,57,-147,284
3,394,116683,-4400,-15385,-1113,66,-151,296
3,395,116688,-4626,-15302,-1357,69,-135,317
3,396,116693,-4492,-15269,-1411,74,-100,335
3,397,116698,-4193,-15335,-1120,81,-48,356
3,398,116703,-4169,-15529,-991,86,-4,370
3,399,116708,-4403,-15601,-937,94,21,383
3,400,116713,-4557,-15592,-1006,97,24,399
3,401,116718,-4701,-15499,-917,93,36,418
3,402,116723,-4631,-15587,-645,95,66,442
3,403,116728,-4443,-15634,-767,99,103,457
3,404,116733,-4348,-15613,-975,104,136,476
3,405,116738,-4471,-15572,-1173,107,157,490
3,406,116743,-4570,-15516,-1174,107,184,505
3,407,116748,-4608,-15510,-890,109,216,526
3,408,116753,-4578,-15366,-698,107,244,547
3,409,116758,-4585,-15337,-687,113,261,565
3,410,116763,-4539,-15437,-518,116,257,582
3,411,116768,-4546,-15455,-614,110,228,600
3,412,116773,-4611,-15379,-491,105,198,617
3,413,116778,-4656,-15278,-522,103,163,635
3,414,116783,-4639,-15289,-610,106,140,653
3,415,116788,-4693,-15312,-604,108,117,672
3,416,116793,-4749,-15415,-582,106,87,689
3,417,116798,-5030,-15350,-587,101,51,704
3,418,116803,-5251,-15341,-705,94,17,718
3,419,116808,-5363,-15288,-816,93,4,735
3,420,116813,-5259,-15318,-919,97,22,757
3,421,116818,-5284,-15421,-992,99,59,772
3,422,116823,-5570,-15602,-1055,97,96,783
3,423,116828,-5542,-15416,-1167,92,125,795
3,424,116833,-5858,-15624,-751,95,147,798
3,425,116838,-5902,-15142,-730,100,154,796
3,426,116843,-5884,-15528,-1078,88,175,831
3,427,116848,-6007,-15525,-471,71,225,865
3,428,116853,-6198,-15624,-167,71,212,871
3,429,116858,-6239,-15500,-541,77,178,872
3,430,116863,-6165,-15522,-849,70,174,888
3,431,116868,-6304,-15449,-656,63,180,895
3,432,116873,-6513,-15579,-249,50,163,902
3,433,116878,-6564,-15613,-349,42,113,904
3,434,116883,-6517,-15546,-418,43,73,909
3,435,116888,-6795,-15579,-474,50,40,905
3,436,116893,-6821,-15227,-598,49,0,902
3,437,116898,-6932,-15487,-725,35,-39,929
3,438,116903,-7031,-15334,-946,34,-55,929
3,439,116908,-7304,-15508,-1119,31,-44,947
3,440,116913,-7065,-15523,-1249,42,-10,947
3,441,116918,-6747,-15436,-1609,48,49,945
3,442,116923,-6698,-15589,-1577,45,142,950
3,443,116928,-7145,-15459,-1597,42,242,944
3,444,116933,-7445,-15443,-1322,34,329,946
3,445,116938,-7363,-15377,-1143,34,392,943
3,446,116943,-7119,-15433,-887,36,443,939
3,447,116948,-6807,-15518,-701,33,478,941
3,448,116953,-6865,-15503,-455,25,486,939
3,449,116958,-7120,-15461,-352,16,459,932
3,450,116963,-7371,-15302,-414,12,409,922
3,451,116968,-7297,-15196,-611,11,353,916
3,452,116973,-7165,-15017,-545,5,308,914
3,453,116978,-7143,-15051,-382,-3,255,908
3,454,116983,-7379,-15034,-231,-9,176,895
3,455,116988,-7581,-15009,-444,-10,71,880
3,456,116993,-7564,-14889,-370,-9,-29,870
3,457,116998,-7450,-14934,-272,-13,-100,865
3,458,117003,-7350,-15159,-702,-10,-138,861
3,459,117008,-6860,-15332,-1040,-6,-122,862
3,460,117013,-6833,-15263,-1389,4,-85,832
3,461,117018,-7001,-15065,-1511,5,-45,818
3,462,117023,-7165,-15502,-1610,-5,-1,835
3,463,117028,-6949,-15183,-1140,2,79,809
3,464,117033,-6945,-15320,-740,8,156,802
3,465,117038,-6819,-15381,-728,13,210,785
3,466,117043,-6777,-15346,-900,7,248,770
3,467,117048,-6835,-15462,-885,-1,276,763
3,468,117053,-6928,-15282,-516,-8,294,742
3,469,117058,-6918,-15269,-159,-12,291,727
3,470,117063,-6977,-15154,-277,-8,264,709
3,471,117068,-7042,-15158,-395,-10,235,693
3,472,117073,-7062,-15011,-224,-13,196,684
3,473,117078,-7100,-15022,-166,-19,146,668
3,474,117083,-7070,-14905,-316,-17,103,645
3,475,117088,-7093,-14799,-763,-14,75,628
3,476,117093,-7115,-14756,-1051,-13,70,614
3,477,117098,-6940,-14737,-1167,-12,76,597
3,478,117103,-6817,-14713,-1042,-7,89,580
3,479,117108,-6969,-14623,-1050,-3,100,559
3,480,117113,-7031,-14522,-1138,4,105,537
3,481,117118,-7100,-14452,-1024,9,107,524
3,482,117123,-7070,-14478,-853,7,102,506
3,483,117128,-6974,-14405,-608,7,94,483
3,484,117133,-6960,-14432,-568,8,73,464
3,485,117138,-7043,-14367,-554,6,48,439
3,486,117143,-7108,-14357,-504,4,20,414
3,487,117148,-7247,-14362,-495,1,-13,391
3,488,117153,-7286,-14225,-492,2,-50,367
3,489,117158,-7289,-14218,-625,4,-83,346
3,490,117163,-7366,-14067,-495,4,-115,321
3,491,117168,-7403,-14100,-334,2,-152,300
3,492,117173,-7532,-14093,-405,5,-184,272
3,493,117178,-7407,-14214,-880,13,-197,253
3,494,117183,-7339,-14260,-1246,20,-179,230
3,495,117188,-7207,-14275,-1286,23,-141,208
3,496,117193,-7161,-14382,-1286,27,-99,188
3,497,117198,-7188,-14412,-1243,33,-49,162
3,498,117203,-7298,-14385,-1248,42,7,137
3,499,117208,-7474,-14357,-1177,48,60,114
3,500,117213,-7470,-14327,-1070,48,103,93
3,501,117218,-7241,-14422,-781,52,164,41
3,502,117223,-7159,-14477,-572,53,164,16
3,503,117228,-7277,-14467,-435,54,147,-12
3,504,117233,-7430,-14458,-372,53,110,-41
3,505,117238,-7426,-14370,-286,50,64,-64
3,506,117243,-7291,-14422,-212,47,23,-86
3,507,117248,-7263,-14402,-156,51,-23,-112
3,508,117253,-7360,-14395,-217,51,-76,-136
3,509,117258,-7465,-14399,-418,51,-127,-164
3,510,117263,-7433,-14366,-710,53,-168,-194
3,511,117268,-7348,-14376,-736,52,-187,-213
3,512,117273,-7258,-14391,-746,56,-199,-234
3,513,117278,-7254,-14377,-714,60,-211,-261
3,514,117283,-7322,-14402,-708,62,-231,-292
3,515,117288,-7403,-14332,-702,64,-250,-318
3,516,117293,-7531,-14310,-628,64,-259,-340
3,517,117298,-7565,-14246,-620,63,-267,-365
3,518,117303,-7495,-14293,-749,66,-264,-392
3,519,117308,-7433,-14343,-820,66,-252,-418
3,520,117313,-7390,-14393,-772,67,-230,-448
3,521,117318,-7448,-14474,-863,68,-206,-474
3,522,117323,-7336,-14512,-986,68,-178,-499
3,523,117328,-7309,-14590,-867,69,-147,-525
3,524,117333,-7356,-14602,-558,68,-130,-555
3,525,117338,-7467,-14618,-400,63,-138,-579
3,526,117343,-7413,-14687,-362,68,-151,-609
3,527,117348,-7304,-14694,-289,68,-164,-635
3,528,117353,-7304,-14740,-58,65,-181,-659
3,529,117358,-7293,-14860,-9,66,-214,-686
3,530,117363,-7223,-14939,-234,62,-245,-712
3,531,117368,-7133,-14886,-509,62,-256,-737
3,532,117373,-7050,-14910,-552,59,-252,-759
3,533,117378,-7007,-14953,-525,59,-247,-783
3,534,117383,-6862,-15065,-694,59,-242,-805
3,535,117388,-6795,-15073,-871,63,-215,-831
3,536,117393,-6799,-15092,-851,65,-185,-857
3,537,117398,-6864,-15047,-775,66,-157,-880
3,538,117403,-6850,-15077,-624,62,-141,-899
3,539,117408,-6889,-15069,-446,63,-122,-925
3,540,117413,-6892,-15056,-542,64,-97,-946
3,541,117418,-6826,-15131,-651,65,-71,-967
3,542,117423,-6629,-15155,-849,62,-32,-989
3,543,117428,-6385,-15220,-1016,66,12,-1009
3,544,117433,-6244,-15304,-957,65,61,-1026
3,545,117438,-6129,-15374,-838,68,104,-1050
3,546,117443,-6055,-15376,-649,72,134,-1069
3,547,117448,-6057,-15378,-555,71,153,-1085
3,548,117453,-6186,-15373,-248,71,153,-1103
3,549,117458,-6191,-15417,33,72,129,-1119
3,550,117463,-6092,-15506,212,68,93,-1136
3,551,117468,-5829,-15504,-15,67,55,-1147
3,552,117473,-5603,-15581,-189,66,40,-1160
3,553,117478,-5508,-15696,-482,69,39,-1175
3,554,117483,-5608,-15728,-559,70,54,-1187
3,555,117488,-5529,-15819,-766,68,72,-1196
3,556,117493,-5276,-15879,-869,70,114,-1205
3,557,117498,-5019,-15882,-659,75,163,-1214
3,558,117503,-5026,-15917,-589,77,199,-1221
3,559,117508,-5115,-15949,-492,75,224,-1233
3,560,117513,-4942,-15991,-422,75,227,-1238
3,561,117518,-4827,-15951,-138,76,220,-1245
3,562,117523,-4830,-15929,404,73,194,-1255
3,563,117528,-4893,-15871,474,70,127,-1262
3,564,117533,-4753,-15976,171,66,62,-1265
3,565,117538,-4321,-16256,-586,70,8,-1265
3,566,117543,-4122,-16094,-442,68,-6,-1282
3,567,117548,-3822,-16052,232,50,-47,-1257
3,568,117553,-3990,-16594,596,46,-138,-1239
3,569,117558,-4167,-16166,580,63,-234,-1285
3,570,117563,-4471,-16076,-93,68,-307,-1284
3,571,117568,-4184,-16445,-258,60,-327,-1260
3,572,117573,-3904,-16719,221,44,-328,-1254
3,573,117578,-3787,-16915,715,36,-352,-1257
3,574,117583,-3615,-16970,-14,38,-448,-1243
3,575,117588,-3522,-16739,-428,43,-440,-1247
3,576,117593,-3475,-16696,-387,40,-403,-1230
3,577,117598,-3261,-16835,-246,29,-364,-1215
3,578,117603,-3038,-16839,-84,24,-329,-1208
3,579,117608,-3093,-16841,-105,26,-309,-1205
3,580,117613,-3190,-16746,-22,28,-309,-1202
3,581,117618,-3203,-16580,64,24,-333,-1195
3,582,117623,-3233,-16477,427,20,-370,-1186
3,583,117628,-3285,-16426,624,13,-424,-1180
3,584,117633,-3429,-16363,581,12,-489,-1178
3,585,117638,-3473,-16417,478,12,-561,-1171
3,586,117643,-3622,-16447,346,8,-637,-1168
3,587,117648,-3764,-16564,332,2,-719,-1165
3,588,117653,-3814,-16427,162,-1,-799,-1168
3,589,117658,-3713,-16471,-42,-3,-849,-1157
3,590,117663,-3696,-16565,-309,-1,-867,-1150
3,591,117668,-3637,-16671,-451,2,-858,-1147
3,592,117673,-3559,-16685,-590,2,-844,-1144
3,593,117678,-3387,-16661,-755,-1,-808,-1140
3,594,117683,-3164,-16545,-842,1,-736,-1132
3,595,117688,-3014,-16722,-937,9,-621,-1122
3,596,117693,-2916,-16752,-1546,22,-497,-1122
3,597,117698,-2533,-16622,-1603,26,-360,-1112
3,598,117703,-2283,-16764,-1231,26,-230,-1097
3,599,117708,3252,-9517,-1140,22,-128,-1099
3,600,117713,14767,-10789,6576,-193,-8,-1086
3,601,117720,-32768,2549,30928,-260,-2157,-1205
3,602,117723,-12999,-1231,-26076,245,-10283,457
3,603,117728,32767,-11899,-32768,542,-5872,2314
3,604,117733,32767,-32192,-14120,-231,4800,1699
3,605,117738,-20338,-16742,32767,-142,8101,-771
3,606,117743,-32768,-10146,8760,194,-1058,-673
3,607,117748,-25344,-5050,-32768,536,-2210,715
3,608,117753,25149,-20607,-30218,439,118,1204
3,609,117758,29988,-23975,8509,-168,3279,588
3,610,117763,-830,-21066,32409,-248,3593,-85
3,611,117768,-26528,-12639,20200,132,1248,-46
3,612,117773,-15599,-13161,-11636,504,247,381
3,613,117778,4309,-17313,-21421,273,136,574
3,614,117783,8495,-19720,1251,-161,107,381
3,615,117788,-2790,-17277,22429,-218,-150,201
3,616,117793,-9465,-14971,17125,36,-517,263
3,617,117798,-4704,-14765,-7618,247,-811,358
3,618,117803,-11,-17835,-19183,121,-630,398
3,619,117808,-1776,-18329,-6300,-131,-324,310
3,620,117813,-5007,-17115,12653,-175,-362,306
3,621,117818,-2497,-15770,10478,-7,-611,313
3,622,117823,506,-15281,-5306,171,-397,293
3,623,117828,-1358,-16681,-12096,144,155,294
3,624,117833,-5718,-17482,-3948,-7,368,314
3,625,117838,-4742,-17137,5941,-84,56,339
3,626,117843,-69,-15991,6894,0,-191,326
3,627,117848,1973,-15620,-722,94,-27,269
3,628,117853,-1993,-16137,-4480,119,364,249
3,629,117858,-6077,-16814,-1914,46,399,280
3,630,117863,-4551,-16773,1794,-14,38,299
3,631,117868,-311,-16078,3703,-6,-189,274
3,632,117873,1246,-15694,1519,40,-90,237
3,633,117878,-1960,-15929,-756,79,139,237
3,634,117883,-5196,-16518,-1479,57,122,261
3,635,117888,-4467,-16499,-1138,7,-120,268
3,636,117893,-1515,-16156,261,-26,-244,261
3,637,117898,-298,-15873,1564,-11,-126,244
3,638,117903,-1860,-16120,1182,25,26,242
3,639,117908,-3668,-16418,-875,43,18,244
3,640,117913,-3682,-16406,-2129,21,-93,241
3,641,117918,-2360,-16118,-671,-15,-143,235
3,642,117923,-1591,-15940,1507,-23,-105,233
3,643,117928,-1834,-16032,1536,3,-49,235
3,644,117933,-2687,-16208,-416,27,-24,222
3,645,117938,-3233,-16265,-1774,26,-34,211
3,646,117943,-2978,-16162,-969,1,-46,207
3,647,117948,-2045,-15999,1007,-1,0,195
3,648,117953,-2495,-15956,1,25,53,184
3,649,117958,-3146,-16020,-1022,32,89,179
3,650,117963,-3289,-16146,-845,15,80,178
3,651,117968,-2845,-16126,274,-8,55,177
3,652,117973,-2382,-16044,860,-14,57,170
3,653,117978,-2390,-16002,500,2,84,161
3,654,117983,-2855,-16079,-164,12,99,157
3,655,117988,-3220,-16192,-354,4,72,155
3,656,117993,-3133,-16214,132,-17,12,147
3,657,117998,-2793,-16130,652,-23,-31,137
3,658,118003,-2735,-16073,725,-18,-39,132
3,659,118008,-2894,-16162,346,-13,-39,127
3,660,118013,-3155,-16216,-117,-13,-58,123
3,661,118018,-3199,-16262,-304,-23,-92,112
3,662,118023,-3045,-16248,-148,-31,-110,103
3,663,118028,-2955,-16157,80,-29,-99,96
3,664,118033,-3062,-16183,-3,-22,-73,94
3,665,118038,-3238,-16229,-369,-15,-47,91
3,666,118043,-3301,-16293,-630,-21,-25,85
3,667,118048,-3117,-16313,-542,-29,8,78
3,668,118053,-2924,-16331,-283,-30,54,78
3,669,118058,-2832,-16379,-151,-25,110,73
3,670,118063,-2907,-16410,-204,-17,156,68
3,671,118068,-3153,-16383,-319,-17,180,62
3,672,118073,-3247,-16355,-69,-24,183,53
3,673,118078,-3214,-16358,168,-29,172,51
3,674,118083,-2985,-16391,412,-28,162,50
3,675,118088,-2873,-16409,462,-25,150,45
3,676,118093,-2984,-16494,449,-29,127,39
3,677,118098,-3107,-16449,308,-34,80,27
3,678,118103,-3131,-16409,322,-41,29,25
3,679,118108,-3126,-16342,436,-43,-10,22
3,680,118113,-3061,-16344,623,-46,-45,21
3,681,118118,-3085,-16384,462,-48,-84,18
3,682,118123,-3189,-16309,160,-52,-119,14
3,683,118128,-3209,-16273,-37,-57,-140,12
3,684,118133,-3175,-16281,-160,-59,-141,13
3,685,118138,-3067,-16242,-194,-61,-124,14
3,686,118143,-3065,-16227,-317,-59,-94,11
3,687,118148,-3233,-16230,-540,-56,-52,9
3,688,118153,-3270,-16265,-683,-53,3,7
3,689,118158,-3280,-16273,-705,-50,63,3
3,690,118163,-3251,-16262,-523,-47,120,2
3,691,118168,-3227,-16268,-309,-45,170,0
3,692,118173,-3252,-16260,-235,-41,212,-5
3,693,118178,-3270,-16238,-283,-35,242,-11
3,694,118183,-3357,-16527,-578,-36,257,-17
3,695,118188,-3263,-16060,220,-40,283,-28
3,696,118193,-3314,-16192,555,-37,253,-20
3,697,118198,-3069,-16309,370,-35,184,-16
3,698,118203,-3095,-16249,490,-41,136,-21
3,699,118208,-3202,-16306,353,-40,92,-25
3,700,118213,-3332,-16177,501,-42,43,-29
3,701,118218,-3171,-16152,425,-49,-24,-21
3,702,118223,-2922,-16187,67,-55,-74,-18
3,703,118228,-2862,-16200,15,-56,-82,-20
3,704,118233,-2985,-16215,-167,-53,-85,-22
3,705,118238,-3038,-16126,-251,-52,-89,-18
3,706,118243,-3042,-16090,-282,-56,-88,-17
3,707,118248,-3101,-16091,-256,-53,-74,-18
3,708,118253,-3112,-16059,-187,-48,-47,-16
3,709,118258,-3064,-16041,-321,-44,-14,-18
3,710,118263,-3008,-16140,-441,-40,21,-17
3,711,118268,-3086,-16153,-482,-40,54,-20
3,712,118273,-3075,-16112,-360,-36,82,-21
3,713,118278,-3075,-16073,-145,-34,106,-23
3,714,118283,-3061,-16058,-95,-31,117,-21
3,715,118288,-3105,-16093,-131,-29,122,-17
3,716,118293,-3165,-16109,-13,-32,120,-20
3,717,118298,-3126,-16084,65,-30,103,-23
3,718,118303,-3109,-16085,201,-30,79,-20
3,719,118308,-3099,-16087,232,-32,50,-16
3,720,118313,-3155,-16065,205,-34,18,-20
3,721,118318,-3167,-16114,-17,-37,-41,-17
3,722,118323,-3102,-16174,-69,-36,-58,-15
3,723,118328,-3068,-16159,-53,-36,-67,-15
3,724,118333,-3134,-16124,-1,-37,-74,-17
3,725,118338,-3175,-16089,-70,-36,-77,-18
3,726,118343,-3206,-16095,-246,-34,-67,-18
3,727,118348,-3139,-16113,-293,-35,-53,-13
3,728,118353,-3061,-16117,-223,-33,-36,-14
3,729,118358,-3029,-16096,-150,-28,-26,-13
3,730,118363,-3118,-16028,-121,-29,-21,-17
3,731,118368,-3290,-16017,-278,-22,-17,-19
3,732,118373,-3321,-16002,-369,-21,-4,-15
3,733,118378,-3211,-16031,-308,-23,9,-13
3,734,118383,-3088,-16023,-156,-24,18,-15
3,735,118388,-3129,-16077,25,-21,13,-15
3,736,118393,-3216,-16033,46,-20,1,-17
3,737,118398,-3314,-16001,-96,-21,-4,-18
3,738,118403,-3306,-16020,-181,-21,-4,-15
3,739,118408,-3267,-16062,-44,-21,-12,-14
3,740,118413,-3260,-16136,85,-25,-28,-16
3,741,118418,-3213,-16195,117,-23,-45,-17
3,742,118423,-3172,-16152,-23,-22,-52,-15
3,743,118428,-3155,-16082,-235,-21,-40,-17
3,744,118433,-3188,-16033,-394,-22,-27,-14
3,745,118438,-3137,-16046,-382,-20,-19,-15
3,746,118443,-3195,-16100,-162,-19,-16,-17
3,747,118448,-3212,-16132,-32,-19,-17,-20
3,748,118453,-3335,-16126,49,-17,-18,-21
3,749,118458,-3201,-16120,-168,-14,-10,-19
3,750,118463,-3084,-16152,-308,-14,6,-18
3,751,118468,-3144,-16159,-150,-12,16,-19
3,752,118473,-3160,-16122,-40,-12,10,-21
3,753,118478,-3182,-16020,-84,-14,1,-21
3,754,118483,-3256,-16019,-156,-13,-2,-21
3,755,118488,-3303,-16037,-1,-15,-6,-21
3,756,118493,-3355,-16059,100,-15,-18,-22
3,757,118498,-3256,-16123,17,-13,-36,-22
3,758,118503,-3216,-16210,-89,-15,-48,-25
3,759,118508,-3227,-16211,-129,-17,-46,-26
3,760,118513,-3271,-16179,-214,-19,-46,-25
3,761,118518,-3291,-16202,-278,-18,-42,-27
3,762,118523,-3279,-16143,-293,-18,-32,-28
3,763,118528,-3263,-16121,-180,-17,-23,-27
3,764,118533,-3313,-16084,-88,-12,-21,-30
3,765,118538,-3291,-16118,-206,-14,-20,-32
3,766,118543,-3214,-16162,-322,-12,-7,-31
3,767,118548,-3138,-16137,-331,-10,11,-30
3,768,118553,-3065,-16122,-161,-10,19,-32
3,769,118558,-3216,-16123,-55,-10,18,-36
3,770,118563,-3220,-16135,-11,-10,13,-38
3,771,118568,-3257,-16128,-9,-10,10,-38
3,772,118573,-3216,-16180,-80,-11,8,-35
3,773,118578,-3126,-16227,-146,-14,10,-34
3,774,118583,-3046,-16236,-356,-13,8,-34
3,775,118588,-3100,-16193,-398,-14,15,-37
3,776,118593,-3105,-16061,-301,-15,28,-39
3,777,118598,-3199,-16009,-361,-15,43,-35
3,778,118603,-3145,-16002,-380,-11,58,-37
3,779,118608,-3075,-16026,-294,-8,70,-38
3,780,118613,-3091,-16068,-172,-11,70,-39
3,781,118618,-3183,-16083,-17,-10,55,-40
3,782,118623,-3174,-16065,-138,-6,32,-44
3,783,118628,-3088,-15963,-229,-7,19,-43
3,784,118633,-3122,-15970,-120,-11,6,-42
3,785,118638,-3200,-16043,-55,-13,-15,-44
3,786,118643,-3194,-16093,-102,-13,-34,-42
3,787,118648,-3126,-16117,-240,-16,-48,-42
3,788,118653,-3123,-16149,-321,-16,-44,-41
3,789,118658,-3117,-16064,-380,-19,-27,-42
3,790,118663,-3092,-16068,-511,-18,-10,-40
3,791,118668,-3149,-16071,-581,-15,13,-41
3,792,118673,-3164,-16097,-462,-13,39,-41
3,793,118678,-3198,-16098,-317,-11,52,-39
3,794,118683,-3122,-16086,-210,-9,63,-43
3,795,118688,-3108,-16081,-256,-7,65,-45
3,796,118693,-3133,-16111,-212,-8,62,-45
3,797,118698,-3100,-16108,-107,-7,46,-46
3,798,118703,-3060,-16092,-51,-11,29,-46
3,799,118708,-3040,-16086,-161,-13,16,-46
3,800,118713,-3071,-16127,-257,-9,8,-46
3,801,118718,-3065,-16138,-502,-10,2,-45
3,802,118723,-2920,-16107,-479,-13,-7,-41
3,803,118728,-2877,-16036,-369,-14,-15,-44
3,804,118733,-2935,-16073,-326,-13,-19,-43
3,805,118738,-2994,-16079,-379,-11,-21,-44
3,806,118743,-2966,-16322,-535,-10,-20,-43
3,807,118748,-2719,-15885,-435,-16,-7,-48
3,808,118753,-2891,-16111,131,-15,1,-44
3,809,118758,-2917,-16113,-76,-10,-39,-40
3,810,118763,-2908,-16108,-227,-13,-65,-40
3,811,118768,-2976,-16221,-247,-10,-67,-37
3,812,118773,-3058,-16102,-240,-9,-62,-43
3,813,118778,-2955,-16166,-118,-14,-57,-35
3,814,118783,-2862,-16281,-367,-11,-64,-30
3,815,118788,-2950,-16336,-366,-12,-57,-39
3,816,118793,-3101,-16161,-269,-10,-47,-45
3,817,118798,-3103,-16080,-352,-10,-44,-39
3,818,118803,-2998,-16047,-441,-12,-37,-35
3,819,118808,-2918,-16116,-444,-10,-22,-32
3,820,118813,-3005,-16117,-304,-8,-11,-35
3,821,118818,-3048,-16115,-243,-7,-19,-35
3,822,118823,-2986,-16144,-379,-8,-25,-35
3,823,118828,-2867,-16130,-416,-8,-8,-34
3,824,118833,-2903,-16142,-363,-5,4,-34
3,825,118838,-3024,-16052,-314,-2,2,-35
3,826,118843,-3054,-16021,-458,-2,-10,-36
3,827,118848,-3043,-16004,-514,-3,-14,-34
3,828,118853,-3009,-16010,-317,-3,-9,-32
3,829,118858,-3022,-16051,-221,-1,-11,-33
3,830,118863,-2930,-16113,-191,-1,-18,-34
3,831,118868,-2972,-16123,-223,1,-23,-37
3,832,118873,-3041,-16171,-208,-1,-34,-39
3,833,118878,-3057,-16162,-90,-4,-44,-38
3,834,118883,-3021,-16163,-38,-4,-56,-37
3,835,118888,-2970,-16202,-91,-5,-63,-32
3,836,118893,-2943,-16201,-223,-7,-59,-34
3,837,118898,-2987,-16193,-299,-4,-57,-33
3,838,118903,-3030,-16167,-269,-6,-60,-34
3,839,118908,-2981,-16116,-247,-9,-59,-38
3,840,118913,-2991,-16098,-387,-5,-54,-36
3,841,118918,-2966,-16120,-473,-3,-39,-39
3,842,118923,-2898,-16097,-497,-3,-24,-34
3,843,118928,-2866,-16110,-459,-4,-19,-34
3,844,118933,-2876,-16084,-349,1,-14,-37
3,845,118938,-2893,-16070,-228,3,-7,-36
3,846,118943,-2892,-16081,-218,-2,1,-35
3,847,118948,-2845,-16063,-255,-1,4,-35
3,848,118953,-2815,-16170,-254,4,0,-34
3,849,118958,-2818,-16180,-247,1,-10,-34
3,850,118963,-2834,-16145,-131,-3,-26,-34
3,851,118968,-2863,-16178,-105,-2,-38,-36
3,852,118973,-2850,-16252,-165,-1,-48,-33
3,853,118978,-2924,-16235,-252,0,-54,-34
3,854,118983,-2978,-16230,-284,-4,-62,-35
3,855,118988,-2946,-16226,-256,-6,-69,-36
3,856,118993,-2920,-16176,-323,-5,-74,-35
3,857,118998,-2906,-16186,-348,-2,-68,-32
3,858,119003,-2876,-16197,-328,-2,-57,-32
3,859,119008,-2926,-16197,-334,-4,-50,-33
3,860,119013,-2909,-16257,-276,-2,-46,-32
3,861,119018,-2863,-16241,-298,-2,-39,-32
3,862,119023,-2819,-16193,-319,-1,-30,-35
3,863,119028,-2874,-16160,-340,1,-22,-31
3,864,119033,-2908,-16141,-291,1,-24,-30
3,865,119038,-2890,-16176,-229,0,-30,-33
3,866,119043,-2923,-16200,-250,1,-38,-34
3,867,119048,-2885,-16188,-160,0,-44,-34
3,868,119053,-2884,-16184,-340,4,-53,-32
3,869,119058,-2896,-16122,-358,1,-53,-32
3,870,119063,-2908,-16128,-320,0,-53,-33
3,871,119068,-2927,-16126,-241,-1,-54,-31
3,872,119073,-2901,-16177,-201,1,-59,-33
3,873,119078,-2928,-16251,-178,2,-64,-30
3,874,119083,-2969,-16265,-138,0,-66,-31
3,875,119088,-2913,-16262,-158,0,-64,-33
3,876,119093,-2937,-16320,-264,1,-62,-29
3,877,119098,-2943,-16271,-364,1,-55,-32
3,878,119103,-2940,-16278,-378,1,-45,-32
3,879,119108,-2991,-16297,-313,2,-35,-31
3,880,119113,-2967,-16251,-258,4,-25,-32
3,881,119118,-2943,-16255,-301,5,-18,-30
3,882,119123,-2987,-16265,-266,5,-14,-32
3,883,119128,-3057,-16275,-325,8,-15,-33
3,884,119133,-3006,-16272,-348,6,-19,-34
3,885,119138,-2973,-16232,-367,4,-18,-31
3,886,119143,-2948,-16216,-294,5,-15,-31
3,887,119148,-2908,-16208,-297,5,-13,-35
3,888,119153,-2980,-16195,-346,6,-11,-37
3,889,119158,-3030,-16184,-274,6,-13,-35
3,890,119163,-2958,-16182,-178,5,-18,-33
3,891,119168,-2896,-16253,-199,6,-21,-32
3,892,119173,-2771,-16202,-300,7,-16,-33
3,893,119178,-2755,-16183,-399,9,-6,-30
3,894,119183,-2839,-16120,-425,7,-1,-28
3,895,119188,-2897,-16073,-394,6,-2,-33
3,896,119193,-2843,-16049,-288,8,-5,-31
3,897,119198,-2784,-16117,-195,10,-4,-31
3,898,119203,-2782,-16132,-148,10,-12,-30
3,899,119208,-2782,-16168,-169,10,-22,-27
3,900,119213,-2794,-16150,-217,13,-32,-29
