event_id,seq,ts_ms,ax,ay,az,gx,gy,gz
26,0,2570721,-6103,-15259,767,-1,-16,6
26,1,2570726,-6023,-15165,859,2,-8,5
26,2,2570731,-6056,-15158,957,5,4,4
26,3,2570736,-5992,-15170,879,6,7,7
26,4,2570741,-5911,-15163,871,5,6,5
26,5,2570746,-5881,-15140,964,4,-6,7
26,6,2570751,-5945,-15089,1102,5,-20,6
26,7,2570756,-6045,-15028,1091,4,-24,5
26,8,2570761,-6102,-15051,1001,7,-28,6
26,9,2570766,-6079,-15183,846,9,-34,8
26,10,2570771,-6151,-15264,830,7,-34,5
26,11,2570776,-6196,-15359,1043,10,-34,9
26,12,2570781,-6140,-15331,1055,10,-27,8
26,13,2570786,-6126,-15377,1038,11,-19,2
26,14,2570791,-6124,-15374,977,12,-23,5
26,15,2570796,-6073,-15327,974,11,-32,9
26,16,2570801,-6040,-15342,973,7,-35,5
26,17,2570806,-6112,-15327,981,6,-31,4
26,18,2570811,-6077,-15289,860,9,-30,5
26,19,2570816,-6078,-15136,812,7,-22,2
26,20,2570821,-6216,-15137,897,5,-11,3
26,21,2570826,-6235,-15112,909,9,-6,3
26,22,2570831,-6096,-15115,797,9,4,7
26,23,2570836,-5926,-15152,824,10,19,5
26,24,2570841,-5940,-15177,995,7,39,3
26,25,2570846,-6029,-15130,1082,9,38,4
26,26,2570851,-6147,-15097,984,10,31,4
26,27,2570856,-6126,-15172,934,6,21,6
26,28,2570861,-5927,-15296,1031,3,17,6
26,29,2570866,-5784,-15270,1173,2,23,6
26,30,2570871,-5826,-15174,1135,3,20,4
26,31,2570876,-5870,-15128,1152,3,12,0
26,32,2570881,-5817,-15178,1196,3,-1,4
26,33,2570886,-5699,-15189,1282,1,-20,8
26,34,2570891,-5722,-15185,1282,3,-43,7
26,35,2570896,-5915,-15205,1028,2,-69,7
26,36,2570901,-6029,-15177,677,0,-81,8
26,37,2570906,-6079,-15199,542,0,-70,8
26,38,2570911,-6109,-15220,629,-1,-45,7
26,39,2570916,-6276,-15240,587,0,-29,7
26,40,2570921,-6416,-15308,442,2,-10,5
26,41,2570926,-6405,-15355,527,4,19,5
26,42,2570931,-6279,-15343,739,1,48,5
26,43,2570936,-6055,-15405,1154,2,68,0
26,44,2570941,-5985,-15450,1391,7,67,-5
26,45,2570946,-6010,-15441,1258,7,46,-5
26,46,2570951,-5910,-15411,1144,6,24,-3
26,47,2570956,-5739,-15465,1185,-1,1,-3
26,48,2570961,-5720,-15454,1412,-4,-12,-7
26,49,2570966,-5947,-15300,1200,-1,-31,-6
26,50,2570971,-6151,-15197,708,0,-39,-3
26,51,2570976,-6186,-15253,640,-1,-25,-1
26,52,2570981,-5990,-15321,836,0,-8,-2
26,53,2570986,-5890,-15244,1030,3,1,-6
26,54,2570991,-5899,-15201,1113,3,-3,-4
26,55,2570996,-5928,-15224,1082,3,-17,-6
26,56,2571001,-6027,-15194,1035,0,-33,-6
26,57,2571006,-6038,-15227,1030,-3,-43,-7
26,58,2571011,-5898,-15173,1010,-4,-50,-9
26,59,2571016,-5876,-15099,1009,-2,-48,-10
26,60,2571021,-5961,-15097,990,1,-46,-9
26,61,2571026,-6067,-15136,753,3,-43,-8
26,62,2571031,-6116,-15115,667,3,-30,-8
26,63,2571036,-6094,-15230,637,6,-8,-9
26,64,2571041,-6093,-15256,774,7,13,-14
26,65,2571046,-6121,-15211,868,6,20,-15
26,66,2571051,-6255,-15251,966,8,21,-16
26,67,2571056,-6247,-15261,1026,8,15,-16
26,68,2571061,-6096,-15360,1062,7,3,-16
26,69,2571066,-6070,-15383,1054,9,-5,-18
26,70,2571071,-6173,-15271,846,9,-13,-22
26,71,2571076,-6323,-15246,717,9,-13,-20
26,72,2571081,-6279,-15219,680,7,-6,-18
26,73,2571086,-6063,-15248,744,6,11,-19
26,74,2571091,-5949,-15243,873,9,37,-21
26,75,2571096,-6048,-15210,945,9,55,-23
26,76,2571101,-6143,-15172,986,10,55,-26
26,77,2571106,-6137,-15187,966,9,37,-23
26,78,2571111,-6047,-15192,996,8,25,-21
26,79,2571116,-5988,-15204,1046,10,22,-19
26,80,2571121,-6089,-15210,1034,9,21,-21
26,81,2571126,-6194,-15192,902,12,16,-24
26,82,2571131,-6111,-15184,946,10,18,-19
26,83,2571136,-6004,-15229,1161,10,19,-20
26,84,2571141,-5997,-15284,1179,12,10,-20
26,85,2571146,-6061,-15300,873,9,-16,-17
26,86,2571151,-5938,-15366,772,9,-11,-16
26,87,2571156,-5947,-15368,867,6,11,-17
26,88,2571161,-6019,-15278,970,7,24,-16
26,89,2571166,-5999,-15239,1058,5,25,-14
26,90,2571171,-5963,-15268,1039,3,21,-13
26,91,2571176,-5775,-15287,1043,5,15,-11
26,92,2571181,-5802,-15203,1057,3,17,-10
26,93,2571186,-5950,-15079,1106,5,11,-11
26,94,2571191,-6147,-15017,1110,4,-7,-6
26,95,2571196,-6123,-15024,975,6,-25,-2
26,96,2571201,-6017,-15062,905,5,-27,0
26,97,2571206,-6012,-15052,901,5,-20,-1
26,98,2571211,-6130,-15101,903,5,-17,0
26,99,2571216,-6156,-15106,957,7,-9,1
26,100,2571221,-6147,-15125,935,5,-1,-1
26,101,2571226,-6180,-15089,909,4,2,1
26,102,2571231,-6152,-15144,933,4,3,2
26,103,2571236,-6079,-15188,1024,3,4,2
26,104,2571241,-6002,-15204,1071,4,1,0
26,105,2571246,-6067,-15230,933,4,-1,2
26,106,2571251,-6150,-15269,882,5,-1,4
26,107,2571256,-6065,-15362,923,0,0,3
26,108,2571261,-5985,-15382,997,-3,-4,3
26,109,2571266,-6055,-15360,1031,-1,-13,6
26,110,2571271,-6149,-15253,995,2,-28,5
26,111,2571276,-6172,-15270,891,-1,-45,6
26,112,2571281,-6166,-15217,858,0,-52,4
26,113,2571286,-6286,-15189,774,1,-54,3
26,114,2571291,-6350,-15186,650,4,-45,4
26,115,2571296,-6319,-15231,532,2,-31,5
26,116,2571301,-6220,-15254,660,2,-8,5
26,117,2571306,-6060,-15242,755,5,10,4
26,118,2571311,-6028,-15267,858,8,23,2
26,119,2571316,-6088,-15223,858,2,39,-1
26,120,2571321,-6043,-15269,1003,3,47,2
26,121,2571326,-5944,-15292,1072,3,38,2
26,122,2571331,-5972,-15276,939,2,26,5
26,123,2571336,-6021,-15226,976,5,23,5
26,124,2571341,-6051,-15153,960,1,21,3
26,125,2571346,-5954,-15178,928,-1,16,7
26,126,2571351,-5924,-15226,1014,-2,15,7
26,127,2571356,-5878,-15199,1041,-1,8,6
26,128,2571361,-5823,-15229,1019,0,3,5
26,129,2571366,-5901,-15194,998,-2,1,4
26,130,2571371,-5994,-15225,1079,0,-6,7
26,131,2571376,-6052,-15279,1154,-2,-17,8
26,132,2571381,-6124,-15232,915,-4,-40,11
26,133,2571386,-6278,-15239,845,-4,-55,10
26,134,2571391,-6334,-15172,757,-3,-57,11
26,135,2571396,-6324,-15146,718,-3,-48,10
26,136,2571401,-6389,-15142,694,-5,-29,7
26,137,2571406,-6406,-15172,674,-5,-13,5
26,138,2571411,-6306,-15146,783,-2,3,4
26,139,2571416,-6214,-15155,938,-2,23,2
26,140,2571421,-6080,-15132,1109,-2,27,2
26,141,2571426,-5953,-15199,1111,0,18,2
26,142,2571431,-5953,-15205,1063,-2,8,2
26,143,2571436,-6075,-15208,1089,-3,-10,1
26,144,2571441,-6090,-15198,975,-6,-27,3
26,145,2571446,-5983,-15205,793,-7,-32,7
26,146,2571451,-6034,-15237,849,-4,-22,4
26,147,2571456,-6178,-15240,847,-6,-10,1
26,148,2571461,-6237,-15227,695,-7,-15,2
26,149,2571466,-6290,-15296,697,-7,-13,7
26,150,2571471,-6309,-15288,766,-4,0,3
26,151,2571476,-6283,-15253,893,-5,12,3
26,152,2571481,-6245,-15237,1000,-7,27,0
26,153,2571486,-6161,-15272,1070,-5,32,-1
26,154,2571491,-6073,-15251,1086,-3,25,3
26,155,2571496,-5948,-15222,1122,-4,11,6
26,156,2571501,-5861,-15234,1177,-6,0,3
26,157,2571506,-5830,-15210,1288,-5,-19,4
26,158,2571511,-6018,-15165,839,-5,-51,3
26,159,2571516,-5985,-15158,758,-5,-49,8
26,160,2571521,-5965,-15124,918,-6,-34,7
26,161,2571526,-6053,-15124,883,-6,-25,4
26,162,2571531,-6286,-15178,754,-3,-22,5
26,163,2571536,-6290,-15188,760,-3,-21,7
26,164,2571541,-6179,-15142,788,-8,-17,11
26,165,2571546,-6198,-15177,967,-5,-9,3
26,166,2571551,-6250,-15165,919,-2,-4,2
26,167,2571556,-6255,-15175,694,1,2,5
26,168,2571561,-6174,-15183,656,2,16,4
26,169,2571566,-6075,-15197,783,1,36,3
26,170,2571571,-5873,-15225,1014,0,50,3
26,171,2571576,-5788,-15272,1235,0,53,2
26,172,2571581,-5735,-15310,1308,2,37,4
26,173,2571586,-5823,-15299,1309,2,9,4
26,174,2571591,-5958,-15312,1129,2,-24,7
26,175,2571596,-6050,-15282,982,2,-43,8
26,176,2571601,-6174,-15283,929,0,-40,6
26,177,2571606,-6263,-15252,964,-3,-29,5
26,178,2571611,-6211,-15259,891,1,-12,7
26,179,2571616,-6203,-15288,728,4,5,5
26,180,2571621,-6275,-15239,820,8,19,2
26,181,2571626,-6243,-15232,955,7,21,3
26,182,2571631,-6148,-15193,969,7,15,4
26,183,2571636,-6163,-15246,804,8,7,0
26,184,2571641,-6243,-15305,770,8,8,3
26,185,2571646,-6200,-15290,821,5,17,1
26,186,2571651,-6055,-15219,978,6,25,1
26,187,2571656,-6051,-15219,1071,6,29,-4
26,188,2571661,-5979,-15195,1024,8,22,-1
26,189,2571666,-5922,-15256,955,9,14,-2
26,190,2571671,-5954,-15247,1005,8,8,-4
26,191,2571676,-6011,-15157,1083,9,0,-5
26,192,2571681,-6093,-15101,1129,5,-6,-5
26,193,2571686,-6031,-15126,1024,3,-15,-4
26,194,2571691,-6045,-15098,1020,5,-17,-3
26,195,2571696,-6135,-15103,989,6,-20,-3
26,196,2571701,-6204,-15120,952,6,-29,-4
26,197,2571706,-6241,-15178,948,6,-30,-6
26,198,2571711,-6207,-15288,891,6,-23,-5
26,199,2571716,-6223,-15356,834,6,-15,-7
26,200,2571721,-6328,-15387,839,5,-13,-7
26,201,2571726,-6322,-15429,892,6,-18,-7
26,202,2571731,-6320,-15424,967,6,-19,-9
26,203,2571736,-6255,-15376,824,7,-15,-12
26,204,2571741,-6180,-15349,756,6,-2,-11
26,205,2571746,-6139,-15338,793,2,16,-15
26,206,2571751,-6149,-15302,876,5,28,-16
26,207,2571756,-6127,-15301,942,7,23,-12
26,208,2571761,-6114,-15272,882,6,8,-10
26,209,2571766,-6117,-15250,917,6,10,-15
26,210,2571771,-6212,-15251,853,7,7,-15
26,211,2571776,-6202,-15194,941,5,5,-12
26,212,2571781,-6105,-15203,667,5,7,-11
26,213,2571786,-6212,-15127,708,8,35,-14
26,214,2571791,-6290,-15135,894,6,49,-15
26,215,2571796,-6288,-15177,1200,8,46,-14
26,216,2571801,-6172,-15188,1124,8,29,-13
26,217,2571806,-6021,-15195,1050,7,24,-12
26,218,2571811,-6154,-15187,1159,5,24,-14
26,219,2571816,-6232,-15195,1137,5,6,-9
26,220,2571821,-6135,-15207,978,7,-18,-9
26,221,2571826,-6132,-15196,784,4,-28,-9
26,222,2571831,-6181,-15138,836,1,-12,-8
26,223,2571836,-6132,-15241,805,2,-2,-6
26,224,2571841,-6031,-15263,837,3,3,-8
26,225,2571846,-5939,-15167,884,4,1,-9
26,226,2571851,-5976,-15167,978,3,-4,-3
26,227,2571856,-5986,-15176,917,3,-11,-6
26,228,2571861,-5922,-15150,854,6,-5,-3
26,229,2571866,-5988,-15174,860,5,8,0
26,230,2571871,-6062,-15149,855,6,18,-2
26,231,2571876,-6074,-15180,960,6,-4,4
26,232,2571881,-6039,-15165,970,6,-16,2
26,233,2571886,-6078,-15195,890,5,-13,2
26,234,2571891,-6153,-15179,839,4,-8,4
26,235,2571896,-6119,-15177,871,5,-11,3
26,236,2571901,-6021,-15253,937,6,-20,5
26,237,2571906,-6000,-15343,935,8,-30,7
26,238,2571911,-5997,-15306,924,4,-34,8
26,239,2571916,-6099,-15243,871,2,-35,7
26,240,2571921,-6181,-15232,866,5,-38,5
26,241,2571926,-6247,-15249,726,7,-41,6
26,242,2571931,-6205,-15224,603,2,-34,9
26,243,2571936,-6131,-15236,521,1,-8,8
26,244,2571941,-6048,-15191,781,5,27,7
26,245,2571946,-5975,-15187,1075,8,41,5
26,246,2571951,-6036,-15170,1064,9,28,7
26,247,2571956,-6083,-15134,954,6,6,7
26,248,2571961,-6084,-15137,904,4,-2,7
26,249,2571966,-6139,-15145,1013,1,-9,8
26,250,2571971,-6188,-15134,950,3,-19,7
26,251,2571976,-6285,-15129,684,6,-29,3
26,252,2571981,-6210,-15215,526,3,-25,3
26,253,2571986,-6101,-15251,519,3,-8,4
26,254,2571991,-6101,-15154,716,2,28,1
26,255,2571996,-6073,-15138,979,2,54,-3
26,256,2572001,-6011,-15148,1120,4,53,-3
26,257,2572006,-5977,-15209,1084,5,30,-2
26,258,2572011,-6024,-15229,1113,4,5,1
26,259,2572016,-6012,-15170,1069,-2,-27,-1
26,260,2572021,-6043,-15099,997,0,-50,-1
26,261,2572026,-6067,-15216,820,-1,-65,-1
26,262,2572031,-6076,-15231,609,-1,-60,2
26,263,2572036,-6024,-15312,559,1,-34,3
26,264,2572041,-5937,-15350,802,-2,0,-1
26,265,2572046,-5816,-15314,1055,0,31,-5
26,266,2572051,-5882,-15272,1251,3,40,-6
26,267,2572056,-6100,-15195,1251,-4,22,-4
26,268,2572061,-6205,-15113,1137,-4,-14,-4
26,269,2572066,-6131,-15125,988,-5,-44,-1
26,270,2572071,-6095,-15183,792,-6,-52,3
26,271,2572076,-6100,-15179,577,-7,-39,-1
26,272,2572081,-6159,-15160,616,-6,-12,-5
26,273,2572086,-6207,-15166,639,-5,13,-6
26,274,2572091,-6140,-15049,808,-4,39,-7
26,275,2572096,-5945,-15153,988,-6,46,-5
26,276,2572101,-5885,-15147,1289,-2,35,-6
26,277,2572106,-5865,-15186,1278,-3,-2,-6
26,278,2572111,-5898,-15170,1141,-7,-40,-2
26,279,2572116,-5973,-15169,889,-6,-66,1
26,280,2572121,-6138,-15250,695,-7,-71,-2
26,281,2572126,-6149,-15231,607,-8,-61,-4
26,282,2572131,-6230,-15204,715,-11,-30,-2
26,283,2572136,-6189,-15219,807,-7,5,-3
26,284,2572141,-6104,-15196,893,-6,30,-5
26,285,2572146,-6033,-15232,1084,-4,40,-5
26,286,2572151,-6014,-15319,1335,-5,20,-4
26,287,2572156,-5927,-15336,1306,-6,-22,-2
26,288,2572161,-5815,-15328,1147,-8,-52,-1
26,289,2572166,-5831,-15310,1043,-9,-58,-1
26,290,2572171,-5868,-15333,911,-9,-60,-1
26,291,2572176,-5921,-15309,811,-10,-70,0
26,292,2572181,-5890,-15289,698,-11,-73,-3
26,293,2572186,-6018,-15280,756,-8,-60,2
26,294,2572191,-6109,-15280,695,-8,-44,1
26,295,2572196,-6043,-15234,703,-5,-22,0
26,296,2572201,-6162,-15245,788,-5,-5,-3
26,297,2572206,-6333,-15260,941,-3,-1,-3
26,298,2572211,-6328,-15172,960,-5,-16,0
26,299,2572216,-6237,-15154,874,-7,-16,2
26,300,2572221,-6267,-15192,874,-6,-3,-2
26,301,2572226,-6282,-15159,902,-8,-4,-5
26,302,2572231,-6180,-15192,807,-3,-18,0
26,303,2572236,-6114,-15225,797,-3,-23,-1
26,304,2572241,-5906,-15217,885,2,27,-6
26,305,2572246,-5872,-15264,1114,2,50,-8
26,306,2572251,-5848,-15302,1213,6,32,-5
26,307,2572256,-5772,-15235,1236,5,-6,-7
26,308,2572261,-5826,-15249,1157,5,-40,-7
26,309,2572266,-6131,-15208,978,6,-68,-6
26,310,2572271,-6273,-15092,644,4,-82,-3
26,311,2572276,-6371,-15143,434,4,-88,-2
26,312,2572281,-6364,-15188,457,5,-74,-3
26,313,2572286,-6367,-15266,517,7,-49,-7
26,314,2572291,-6413,-15197,569,7,-15,-8
26,315,2572296,-6354,-15134,747,10,13,-9
26,316,2572301,-6276,-15173,957,11,27,-12
26,317,2572306,-6167,-15214,1115,10,17,-11
26,318,2572311,-6073,-15141,943,10,4,-10
26,319,2572316,-6021,-15140,925,8,7,-13
26,320,2572321,-5950,-15208,1059,10,20,-15
26,321,2572326,-6005,-15194,1138,12,30,-18
26,322,2572331,-6008,-15180,1147,11,23,-17
26,323,2572336,-6075,-15197,1200,11,12,-12
26,324,2572341,-6083,-15198,1126,8,-7,-12
26,325,2572346,-6086,-15197,1111,9,-20,-14
26,326,2572351,-6110,-15224,1065,6,-28,-12
26,327,2572356,-6202,-15280,955,7,-34,-12
26,328,2572361,-6359,-15291,829,6,-36,-9
26,329,2572366,-6307,-15345,818,4,-25,-9
26,330,2572371,-6126,-15361,956,7,-6,-10
26,331,2572376,-6007,-15343,1051,2,7,-15
26,332,2572381,-6049,-15283,1164,2,15,-15
26,333,2572386,-6137,-15229,1149,2,4,-13
26,334,2572391,-6092,-15221,1079,1,-13,-12
26,335,2572396,-5957,-15231,1133,-2,-25,-7
26,336,2572401,-5953,-15221,1174,-1,-29,-6
26,337,2572406,-6035,-15177,1076,-3,-29,-9
26,338,2572411,-6168,-15155,910,-3,-36,-6
26,339,2572416,-6102,-15153,914,-3,-38,-5
26,340,2572421,-6020,-15238,1031,-4,-35,-4
26,341,2572426,-5953,-15301,1010,-4,-26,-4
26,342,2572431,-5923,-15243,946,-4,-13,-4
26,343,2572436,-6064,-15262,912,-5,4,-3
26,344,2572441,-6169,-15162,1013,-7,8,-3
26,345,2572446,-6085,-15171,1159,-9,0,-2
26,346,2572451,-5981,-15224,1234,-5,-17,-1
26,347,2572456,-5997,-15246,1118,-3,-32,-3
26,348,2572461,-6106,-15202,909,-5,-44,-2
26,349,2572466,-6239,-15190,795,-6,-55,0
26,350,2572471,-6282,-15254,818,-7,-60,1
26,351,2572476,-6250,-15245,808,-4,-66,1
26,352,2572481,-6211,-15260,714,-4,-65,0
26,353,2572486,-6192,-15272,700,-4,-49,-1
26,354,2572491,-6203,-15231,844,-6,-31,-4
26,355,2572496,-6134,-15209,1030,-2,-27,-3
26,356,2572501,-6085,-15204,1133,-2,-30,-4
26,357,2572506,-6115,-15231,1128,-1,-41,-5
26,358,2572511,-6061,-15227,943,-2,-58,-4
26,359,2572516,-6106,-15217,812,-2,-62,-3
26,360,2572521,-6141,-15235,801,-2,-51,-3
26,361,2572526,-6203,-15193,661,-1,-31,-3
26,362,2572531,-6249,-15181,535,0,-3,-4
26,363,2572536,-6278,-15275,688,4,39,-7
26,364,2572541,-6215,-15313,1002,7,71,-10
26,365,2572546,-6153,-15210,1091,5,77,-9
26,366,2572551,-6128,-15194,1136,6,72,-9
26,367,2572556,-6098,-15238,1115,7,57,-8
26,368,2572561,-5984,-15242,1127,5,38,-7
26,369,2572566,-5875,-15276,1098,6,19,-5
26,370,2572571,-5870,-15239,1002,6,15,-6
26,371,2572576,-5954,-15174,955,7,14,-3
26,372,2572581,-6006,-15178,993,2,11,-5
26,373,2572586,-5914,-15132,1049,1,1,-6
26,374,2572591,-5916,-15138,1019,6,-8,-2
26,375,2572596,-6000,-15160,1067,5,-21,-2
26,376,2572601,-5971,-15187,977,6,-40,-1
26,377,2572606,-6116,-15216,1049,7,-54,-4
26,378,2572611,-6120,-15189,960,5,-59,-3
26,379,2572616,-6181,-15253,896,4,-48,-2
26,380,2572621,-6270,-15326,851,5,-34,-3
26,381,2572626,-6235,-15345,838,7,-21,-4
26,382,2572631,-6213,-15367,944,7,-8,-2
26,383,2572636,-6237,-15361,1007,4,11,-4
26,384,2572641,-6201,-15322,1022,6,25,-2
26,385,2572646,-6137,-15332,1091,9,36,-3
26,386,2572651,-6120,-15323,1085,9,43,-3
26,387,2572656,-6128,-15280,1059,9,33,-3
26,388,2572661,-6110,-15278,1080,8,15,-3
26,389,2572666,-6088,-15321,1016,7,0,-2
26,390,2572671,-6139,-15277,883,9,-13,-6
26,391,2572676,-6194,-15323,675,9,-20,-5
26,392,2572681,-6065,-15266,568,7,-9,-4
26,393,2572686,-5966,-15245,779,6,11,-7
26,394,2572691,-5972,-15213,1061,8,25,-7
26,395,2572696,-5980,-15165,1128,9,28,-6
26,396,2572701,-5948,-15123,1142,10,17,-4
26,397,2572706,-5916,-15105,1115,10,-14,-2
26,398,2572711,-6031,-15118,1032,8,-40,0
26,399,2572716,-6138,-15052,845,8,-48,0
26,400,2572721,-6158,-14986,729,9,-34,1
26,401,2572726,-6151,-14942,799,11,-21,-1
26,402,2572731,-6203,-14967,731,10,-16,-2
26,403,2572736,-6131,-15022,696,12,-3,2
26,404,2572741,-6078,-15116,764,17,10,1
26,405,2572746,-6140,-15131,907,16,20,-3
26,406,2572751,-6076,-15152,1017,13,20,-5
26,407,2572756,-6058,-15190,1057,12,14,0
26,408,2572761,-6018,-15192,1029,12,7,-2
26,409,2572766,-6156,-15239,913,13,3,-5
26,410,2572771,-6304,-15264,804,13,1,-3
26,411,2572776,-6147,-15286,864,12,3,-2
26,412,2572781,-5995,-15343,940,11,16,-1
26,413,2572786,-6046,-15302,1037,11,27,-5
26,414,2572791,-6217,-15211,1033,15,17,-5
26,415,2572796,-6168,-15226,984,12,-3,-2
26,416,2572801,-6070,-15264,893,9,-20,-1
26,417,2572806,-6087,-15221,830,9,-29,-2
26,418,2572811,-6152,-15220,728,9,-28,-3
26,419,2572816,-6128,-15214,773,10,-11,0
26,420,2572821,-6099,-15217,731,8,13,0
26,421,2572826,-6039,-15241,814,11,46,-3
26,422,2572831,-5992,-15241,1165,11,67,-4
26,423,2572836,-5931,-15196,1259,13,52,1
26,424,2572841,-5901,-15198,1127,10,18,1
26,425,2572846,-5980,-15241,1088,8,1,3
26,426,2572851,-5967,-15178,958,9,-17,4
26,427,2572856,-5957,-15135,851,6,-20,6
26,428,2572861,-5960,-15205,933,3,-20,3
26,429,2572866,-6061,-15213,972,2,-18,3
26,430,2572871,-6161,-15173,850,3,-12,4
26,431,2572876,-6143,-15140,808,2,-3,3
26,432,2572881,-6130,-15180,960,1,9,1
26,433,2572886,-6129,-15177,1123,1,5,0
26,434,2572891,-6199,-15157,1003,3,-12,2
26,435,2572896,-6194,-15134,790,2,-32,1
26,436,2572901,-6148,-15154,681,3,-28,5
26,437,2572906,-6140,-15170,693,-1,-16,4
26,438,2572911,-6112,-15256,738,-1,-1,0
26,439,2572916,-6172,-15280,879,1,10,-2
26,440,2572921,-6200,-15301,958,0,10,0
26,441,2572926,-6179,-15279,913,0,7,-1
26,442,2572931,-6134,-15239,947,0,6,2
26,443,2572936,-6028,-15287,1045,0,10,3
26,444,2572941,-6084,-15259,983,0,3,-1
26,445,2572946,-6158,-15297,960,-1,-2,-1
26,446,2572951,-5990,-15304,914,-2,-5,2
26,447,2572956,-5999,-15304,946,-3,0,1
26,448,2572961,-6125,-15215,944,-2,8,-3
26,449,2572966,-6223,-15194,891,-4,9,-1
26,450,2572971,-6124,-15263,802,-5,-6,5
26,451,2572976,-6045,-15214,808,-8,-5,1
26,452,2572981,-6064,-15144,843,-5,1,2
26,453,2572986,-6103,-15185,981,-4,9,1
26,454,2572991,-6090,-15207,952,-7,5,0
26,455,2572996,-6078,-15160,919,-5,1,1
26,456,2573001,-6160,-15125,1063,-6,-8,-1
26,457,2573006,-6162,-15144,1184,-8,-25,3
26,458,2573011,-6201,-15132,1109,-10,-45,3
26,459,2573016,-6250,-15129,854,-9,-58,3
26,460,2573021,-6320,-15146,675,-5,-48,2
26,461,2573026,-6298,-15152,687,-6,-27,4
26,462,2573031,-6184,-15186,834,-4,-3,2
26,463,2573036,-6186,-15200,971,-3,21,1
26,464,2573041,-6110,-15039,952,-1,24,2
26,465,2573046,-6171,-15099,940,-2,22,-3
26,466,2573051,-6120,-15222,1071,-5,6,-2
26,467,2573056,-6021,-15320,1001,-7,-8,2
26,468,2573061,-6057,-15251,956,-7,-7,0
26,469,2573066,-6258,-15194,897,-5,-4,-2
26,470,2573071,-6237,-15266,824,-4,-5,1
26,471,2573076,-6157,-15318,883,-5,3,2
26,472,2573081,-6165,-15355,937,-4,9,0
26,473,2573086,-6146,-15316,912,-3,18,0
26,474,2573091,-6103,-15274,879,-1,25,2
26,475,2573096,-6088,-15262,908,3,24,2
26,476,2573101,-6107,-15291,969,2,25,2
26,477,2573106,-6138,-15286,931,-1,17,-1
26,478,2573111,-6130,-15287,860,2,12,5
26,479,2573116,-6132,-15312,890,3,12,4
26,480,2573121,-6181,-15303,1056,3,16,1
26,481,2573126,-6114,-15220,1086,1,12,5
26,482,2573131,-6154,-15155,1116,2,4,4
26,483,2573136,-6164,-15149,1212,0,-7,3
26,484,2573141,-6166,-15155,1123,-1,-29,3
26,485,2573146,-6226,-15134,950,0,-43,4
26,486,2573151,-6314,-15069,904,0,-43,4
26,487,2573156,-6296,-15004,887,2,-36,1
26,488,2573161,-6242,-14988,835,2,-33,2
26,489,2573166,-6198,-15054,854,3,-21,2
26,490,2573171,-6179,-15097,878,5,-8,0
26,491,2573176,-6123,-15041,931,4,0,2
26,492,2573181,-6197,-15082,1062,3,5,0
26,493,2573186,-6261,-15087,1043,5,-12,-1
26,494,2573191,-6276,-15108,956,8,-30,4
26,495,2573196,-6248,-15194,813,8,-32,3
26,496,2573201,-6322,-15202,797,6,-17,-2
26,497,2573206,-6343,-15152,757,4,2,-2
26,498,2573211,-6360,-15134,888,4,26,-3
26,499,2573216,-6396,-15114,1004,6,44,-6
26,500,2573221,-6294,-15116,1055,11,47,-4
26,501,2573226,-6186,-15209,1018,9,42,-1
26,502,2573231,-6162,-15251,1081,6,43,-6
26,503,2573236,-6198,-15224,1190,7,40,-9
26,504,2573241,-6239,-15193,1126,5,31,-5
26,505,2573246,-6243,-15218,1072,6,23,-4
26,506,2573251,-6110,-15299,1023,6,15,-3
26,507,2573256,-6007,-15277,996,6,10,1
26,508,2573261,-5987,-15333,977,3,10,-3
26,509,2573266,-6038,-15247,918,3,7,-3
26,510,2573271,-6141,-15206,857,5,-1,-2
26,511,2573276,-6055,-15264,857,2,-3,-1
26,512,2573281,-6009,-15286,938,4,-5,-4
26,513,2573286,-6023,-15236,985,8,-9,1
26,514,2573291,-6091,-15189,893,6,-17,3
26,515,2573296,-6156,-15177,828,5,-31,3
26,516,2573301,-6195,-15220,812,5,-47,2
26,517,2573306,-6180,-15276,785,6,-42,3
26,518,2573311,-6224,-15190,801,8,-27,4
26,519,2573316,-6278,-15204,704,9,-2,3
26,520,2573321,-6197,-15265,820,10,25,3
26,521,2573326,-6116,-15289,922,9,33,4
26,522,2573331,-6085,-15252,1059,7,37,3
26,523,2573336,-6065,-15093,1178,7,45,2
26,524,2573341,-5992,-15063,1254,5,37,4
26,525,2573346,-5943,-15085,1313,6,5,10
26,526,2573351,-5872,-15132,1157,7,-38,9
26,527,2573356,-5813,-15174,912,3,-60,10
26,528,2573361,-5953,-15171,749,3,-49,7
26,529,2573366,-6189,-15102,703,2,-35,4
26,530,2573371,-6261,-15125,705,3,-31,6
26,531,2573376,-6083,-15192,767,4,-28,9
26,532,2573381,-5902,-15260,808,3,-15,10
26,533,2573386,-5932,-15280,841,6,-3,7
26,534,2573391,-6060,-15233,804,8,1,8
26,535,2573396,-6111,-15208,824,5,-5,8
26,536,2573401,-6071,-15181,904,4,-17,8
26,537,2573406,-6013,-15260,877,6,-25,8
26,538,2573411,-6073,-15301,787,6,-17,8
26,539,2573416,-6097,-15305,641,8,0,8
26,540,2573421,-6176,-15309,727,10,18,4
26,541,2573426,-6276,-15346,1034,3,31,3
26,542,2573431,-6162,-15296,1206,3,15,3
26,543,2573436,-6193,-15198,1223,3,-1,1
26,544,2573441,-6261,-15195,1035,5,-13,2
26,545,2573446,-6275,-15221,915,3,-24,0
26,546,2573451,-6134,-15282,767,0,-34,-1
26,547,2573456,-6070,-15317,681,2,-33,0
26,548,2573461,-6134,-15302,554,1,-12,-5
26,549,2573466,-6249,-15228,666,1,20,-8
26,550,2573471,-6160,-15207,919,1,36,-8
26,551,2573476,-5916,-15167,1169,1,38,-8
26,552,2573481,-5841,-15102,1327,3,28,-12
26,553,2573486,-5891,-15078,1340,4,0,-12
26,554,2573491,-5956,-15098,1183,3,-43,-8
26,555,2573496,-5958,-15129,988,-2,-81,-9
26,556,2573501,-5906,-15159,820,-6,-90,-9
26,557,2573506,-5964,-15114,768,-4,-74,-10
26,558,2573511,-6162,-15152,700,-1,-50,-11
26,559,2573516,-6309,-15244,647,-3,-28,-13
26,560,2573521,-6358,-15274,615,-2,-12,-14
26,561,2573526,-6301,-15248,736,-2,7,-13
26,562,2573531,-6293,-15293,872,-1,27,-17
26,563,2573536,-6199,-15360,1012,-1,36,-19
26,564,2573541,-6068,-15418,1114,-1,30,-17
26,565,2573546,-6042,-15351,1165,-1,20,-20
26,566,2573551,-6151,-15307,1154,-4,4,-20
26,567,2573556,-6132,-15259,1171,-3,-18,-19
26,568,2573561,-6034,-15286,1073,-7,-33,-18
26,569,2573566,-6037,-15246,890,-4,-35,-20
26,570,2573571,-6136,-15183,718,-6,-20,-23
26,571,2573576,-6205,-15205,651,-3,-4,-22
26,572,2573581,-6059,-15253,778,-3,19,-23
26,573,2573586,-5999,-15276,1057,0,38,-24
26,574,2573591,-6049,-15216,1265,-1,32,-27
26,575,2573596,-6205,-15181,1208,-3,-2,-26
26,576,2573601,-6237,-15181,1057,-4,-48,-23
26,577,2573606,-6259,-15165,922,-8,-85,-20
26,578,2573611,-6278,-15112,769,-11,-90,-19
26,579,2573616,-6335,-15067,576,-10,-68,-24
26,580,2573621,-6366,-15054,495,-5,-37,-25
26,581,2573626,-6436,-15070,388,-6,8,-25
26,582,2573631,-6319,-14971,563,-2,56,-25
26,583,2573636,-6079,-15087,905,-1,89,-23
26,584,2573641,-6033,-15038,1284,-2,106,-29
26,585,2573646,-6021,-15034,1257,-1,87,-28
26,586,2573651,-5912,-15053,1245,-2,56,-20
26,587,2573656,-5863,-15182,1231,-4,31,-21
26,588,2573661,-5833,-15303,1334,-5,11,-22
26,589,2573666,-5883,-15326,1262,-2,-7,-18
26,590,2573671,-6024,-15368,1020,-2,-23,-16
26,591,2573676,-5986,-15318,782,-5,-33,-15
26,592,2573681,-6108,-15313,866,-9,-38,-12
26,593,2573686,-6287,-15310,894,-9,-44,-12
26,594,2573691,-6385,-15322,786,-10,-45,-10
26,595,2573696,-6350,-15293,711,-11,-30,-6
26,596,2573701,-6029,-15215,1051,-3,12,-9
26,597,2573706,-6096,-15211,1206,-4,6,-8
26,598,2573711,-6121,-15118,1193,0,-19,-2
26,599,2573716,-6012,-15100,1041,-3,-41,1
26,600,2573721,-5990,-15112,1031,-6,-59,0
26,601,2573726,-6026,-15099,967,-4,-66,2
26,602,2573731,-5956,-15089,802,-4,-60,5
26,603,2573736,-5931,-15081,702,-5,-48,9
26,604,2573741,-5922,-15128,655,-4,-26,6
26,605,2573746,-5966,-15189,915,-3,5,5
26,606,2573751,-6037,-15214,1124,0,23,7
26,607,2573756,-6071,-15216,1228,2,17,10
26,608,2573761,-6148,-15163,1076,-1,-1,11
26,609,2573766,-6296,-15176,873,-2,-19,13
26,610,2573771,-6413,-15229,806,1,-25,11
26,611,2573776,-6457,-15270,782,-2,-24,12
26,612,2573781,-6405,-15212,754,0,-14,13
26,613,2573786,-6344,-15143,723,3,5,11
26,614,2573791,-6328,-15160,755,6,25,11
26,615,2573796,-6345,-15216,778,7,31,8
26,616,2573801,-6279,-15256,873,7,27,7
26,617,2573806,-6155,-15256,1021,8,19,8
26,618,2573811,-5947,-15293,1148,6,11,6
26,619,2573816,-5962,-15321,1224,10,7,3
26,620,2573821,-6090,-15311,1127,9,-17,5
26,621,2573826,-6186,-15309,960,7,-42,7
26,622,2573831,-6084,-15253,839,8,-55,10
26,623,2573836,-6133,-15219,866,7,-46,7
26,624,2573841,-6274,-15196,850,5,-31,4
26,625,2573846,-6382,-15231,683,6,-18,5
26,626,2573851,-6355,-15282,659,9,2,3
26,627,2573856,-6328,-15326,815,9,30,2
26,628,2573861,-6380,-15262,1044,9,45,-1
26,629,2573866,-6324,-15163,1009,9,43,-2
26,630,2573871,-6254,-15203,1055,9,36,-2
26,631,2573876,-6114,-15235,1054,5,24,-3
26,632,2573881,-6077,-15204,1069,5,17,-5
26,633,2573886,-6068,-15145,973,9,12,-2
26,634,2573891,-5951,-15132,979,9,9,-6
26,635,2573896,-5863,-15149,1131,7,4,-6
26,636,2573901,-5897,-15125,1171,7,-12,-4
26,637,2573906,-6022,-15139,1018,5,-29,-4
26,638,2573911,-6101,-15195,852,4,-46,-6
26,639,2573916,-6137,-15285,856,2,-56,-3
26,640,2573921,-6187,-15324,771,1,-58,0
26,641,2573926,-6250,-15302,718,1,-43,-3
26,642,2573931,-6330,-15275,647,1,-21,-4
26,643,2573936,-6352,-15277,746,2,3,-3
26,644,2573941,-6208,-15246,776,3,13,-5
26,645,2573946,-6082,-15216,937,3,26,-3
26,646,2573951,-6035,-15211,1156,2,33,-7
26,647,2573956,-6035,-15207,1249,2,24,-5
26,648,2573961,-5931,-15230,1024,3,6,-3
26,649,2573966,-5773,-15169,987,2,3,-5
26,650,2573971,-5760,-15240,1160,0,8,-5
26,651,2573976,-5895,-15231,1143,-2,-5,-6
26,652,2573981,-6002,-15238,958,-1,-30,-4
26,653,2573986,-6101,-15209,865,-5,-46,-2
26,654,2573991,-6135,-15205,823,-4,-56,1
26,655,2573996,-6154,-15128,648,-2,-51,3
26,656,2574001,-6201,-15191,501,-5,-35,-1
26,657,2574006,-6239,-15238,467,-4,-15,0
26,658,2574011,-6235,-15191,710,-3,16,-1
26,659,2574016,-6220,-15107,974,-3,38,-5
26,660,2574021,-6139,-15100,1162,0,53,-5
26,661,2574026,-6061,-15186,1272,4,41,-3
26,662,2574031,-5951,-15324,1272,3,8,-4
26,663,2574036,-5850,-15305,1198,0,-27,-1
26,664,2574041,-5966,-15261,1150,-2,-52,-1
26,665,2574046,-6151,-15149,1020,-1,-64,-2
26,666,2574051,-6284,-15154,760,-2,-67,-3
26,667,2574056,-6225,-15248,619,-4,-57,0
26,668,2574061,-6143,-15245,631,-5,-33,0
26,669,2574066,-6217,-15087,755,1,35,-8
26,670,2574071,-6110,-15143,937,1,44,-7
26,671,2574076,-5950,-15210,1129,0,31,-6
26,672,2574081,-5913,-15224,1142,1,7,-4
26,673,2574086,-5982,-15149,976,-2,-3,-5
26,674,2574091,-6104,-15098,882,-2,3,-7
26,675,2574096,-6179,-15139,877,-1,3,-4
26,676,2574101,-6101,-15292,841,2,-3,-2
26,677,2574106,-6099,-15419,850,1,-11,-4
26,678,2574111,-6196,-15374,865,3,-11,-5
26,679,2574116,-6228,-15246,897,4,-1,-6
26,680,2574121,-6165,-15213,949,4,7,-3
26,681,2574126,-6087,-15181,1004,4,9,-5
26,682,2574131,-5993,-15273,1039,6,-6,-6
26,683,2574136,-5856,-15319,1065,6,-21,-6
26,684,2574141,-5814,-15289,1009,4,-20,-7
26,685,2574146,-5924,-15198,992,4,-9,-8
26,686,2574151,-6113,-15156,1063,2,-12,-8
26,687,2574156,-6129,-15164,1045,1,-31,-2
26,688,2574161,-6099,-15139,991,3,-40,-3
26,689,2574166,-6221,-15097,754,5,-42,-6
26,690,2574171,-6369,-15017,652,6,-28,-4
26,691,2574176,-6299,-15025,738,2,-12,-5
26,692,2574181,-6114,-15096,992,6,-4,-7
26,693,2574186,-6149,-15160,1089,9,-3,-10
26,694,2574191,-6219,-15173,1026,10,-3,-8
26,695,2574196,-6223,-15173,888,9,5,-9
26,696,2574201,-6246,-15145,977,10,18,-12
26,697,2574206,-6213,-15167,1098,9,29,-9
26,698,2574211,-6065,-15222,1152,12,31,-9
26,699,2574216,-5979,-15300,1064,15,38,-13
26,700,2574221,-5989,-15292,999,16,48,-12
26,701,2574226,-6057,-15262,1138,16,57,-13
26,702,2574231,-6039,-15322,1385,14,46,-14
26,703,2574236,-6073,-15335,1461,14,9,-10
26,704,2574241,-6055,-15268,1086,13,-30,-10
26,705,2574246,-6025,-15305,856,15,-37,-6
26,706,2574251,-6026,-15354,900,16,-19,-9
26,707,2574256,-5899,-15289,1086,13,3,-11
26,708,2574261,-5897,-15288,1303,17,19,-10
26,709,2574266,-5910,-15256,1247,20,16,-6
26,710,2574271,-6007,-15196,1251,23,5,-8
26,711,2574276,-6150,-15265,1217,23,-15,-7
26,712,2574281,-6109,-15276,1215,21,-33,-5
26,713,2574286,-6071,-15165,1094,23,-32,-4
26,714,2574291,-6235,-15103,1117,25,-13,-4
26,715,2574296,-6431,-15130,1048,28,8,-6
26,716,2574301,-6339,-15136,926,31,25,-5
26,717,2574306,-6165,-15214,882,34,40,-5
26,718,2574311,-6092,-15369,1164,36,65,-6
26,719,2574316,-6231,-15294,1214,39,84,-8
26,720,2574321,-6382,-15079,1188,42,101,-9
26,721,2574326,-6379,-15195,1295,45,104,-6
26,722,2574331,-6154,-15385,1535,46,85,-3
26,723,2574336,-5930,-15427,1566,50,67,-5
26,724,2574341,-5925,-15417,1546,53,60,-7
26,725,2574346,-6008,-15389,1383,56,59,-8
26,726,2574351,-6025,-15374,1267,57,60,-7
26,727,2574356,-5931,-15431,1382,59,59,-7
26,728,2574361,-5885,-15470,1441,61,50,-4
26,729,2574366,-6103,-15411,1357,62,51,-2
26,730,2574371,-6414,-15342,1342,63,62,-4
26,731,2574376,-6517,-15225,1347,65,62,-2
26,732,2574381,-6471,-15261,1264,66,64,-2
26,733,2574386,-6494,-15246,1215,69,80,-2
26,734,2574391,-6419,-15324,1205,69,96,-3
26,735,2574396,-6186,-15264,1394,74,125,-4
26,736,2574401,-6070,-15125,1690,75,142,-5
26,737,2574406,-6110,-15090,1992,77,130,-6
26,738,2574411,-6079,-15104,1998,80,89,-4
26,739,2574416,-5933,-15100,1871,80,43,2
26,740,2574421,-5890,-15107,1691,81,16,0
26,741,2574426,-6023,-15130,1502,83,12,-3
26,742,2574431,-6285,-15082,1217,89,25,4
26,743,2574436,-6333,-15128,1203,90,52,1
26,744,2574441,-6222,-15158,1346,95,80,1
26,745,2574446,-6036,-15068,1395,95,105,-3
26,746,2574451,-6161,-15084,1515,96,127,-1
26,747,2574456,-6397,-15082,1600,98,126,-2
26,748,2574461,-6398,-15123,1473,100,113,1
26,749,2574466,-6309,-15210,1443,102,112,3
26,750,2574471,-6441,-14986,1497,99,124,1
26,751,2574476,-6765,-15149,1384,101,132,2
26,752,2574481,-6620,-15034,1340,108,145,-4
26,753,2574486,-6464,-15046,1578,106,175,-3
26,754,2574491,-6329,-15024,1813,109,194,-5
26,755,2574496,-6317,-14929,1969,116,186,-8
26,756,2574501,-6203,-14994,1880,114,157,-4
26,757,2574506,-6003,-14991,1938,114,131,-4
26,758,2574511,-5865,-14945,1901,113,117,-6
26,759,2574516,-5742,-14732,1720,115,117,-9
26,760,2574521,-5888,-14830,1697,118,125,-4
26,761,2574526,-6077,-14831,1723,121,116,-3
26,762,2574531,-6113,-14860,1597,122,100,-1
26,763,2574536,-6093,-14846,1586,122,105,0
26,764,2574541,-6184,-14851,1779,125,119,-2
26,765,2574546,-6325,-14774,1878,129,124,3
26,766,2574551,-6402,-14950,1796,133,116,6
26,767,2574556,-6277,-15055,1621,137,108,5
26,768,2574561,-6162,-15196,1640,139,114,9
26,769,2574566,-6170,-15178,1751,142,129,6
26,770,2574571,-6277,-15135,1745,146,141,5
26,771,2574576,-6245,-15243,1764,148,144,5
26,772,2574581,-6211,-15318,1648,151,148,5
26,773,2574586,-6194,-15299,1663,155,157,7
26,774,2574591,-6248,-15286,1731,159,175,1
26,775,2574596,-6229,-15212,1866,164,188,0
26,776,2574601,-6239,-15212,2097,167,187,2
26,777,2574606,-6237,-15285,2188,172,170,2
26,778,2574611,-6240,-15122,2057,176,143,6
26,779,2574616,-6300,-15104,1987,180,118,7
26,780,2574621,-6360,-15162,1887,183,92,7
26,781,2574626,-6414,-15125,1725,188,72,7
26,782,2574631,-6442,-15053,1542,187,71,6
26,783,2574636,-6395,-15002,1542,191,100,4
26,784,2574641,-6266,-15058,1745,196,140,2
26,785,2574646,-6065,-15117,1709,205,171,2
26,786,2574651,-5937,-15128,1878,214,199,3
26,787,2574656,-5895,-15187,2066,215,208,3
26,788,2574661,-5908,-15106,2334,217,203,1
26,789,2574666,-5880,-15086,2278,223,191,3
26,790,2574671,-6062,-15247,2090,225,182,4
26,791,2574676,-6238,-15251,1833,226,174,6
26,792,2574681,-6243,-15360,1792,226,171,10
26,793,2574686,-6279,-15353,2088,230,184,6
26,794,2574691,-6246,-15270,2072,237,205,3
26,795,2574696,-6197,-15261,1947,244,225,3
26,796,2574701,-6194,-15360,1877,247,232,5
26,797,2574706,-6215,-15350,2071,249,227,-1
26,798,2574711,-6256,-15298,2327,250,214,0
26,799,2574716,-6081,-15210,1849,253,193,-8
26,800,2574721,-6057,-15203,1764,267,215,0
26,801,2574726,-6302,-15388,2461,258,258,1
26,802,2574731,-6171,-15022,2032,259,196,-6
26,803,2574736,-6091,-15234,2071,271,157,11
26,804,2574741,-5994,-15168,1645,267,175,-1
26,805,2574746,-6010,-15238,2196,277,205,-2
26,806,2574751,-6144,-15336,2193,274,199,0
26,807,2574756,-6147,-15338,2219,279,166,1
26,808,2574761,-6105,-15195,1922,277,138,1
26,809,2574766,-6357,-15289,1980,279,157,1
26,810,2574771,-6398,-15315,1760,285,165,-4
26,811,2574776,-6534,-15202,1803,286,192,-8
26,812,2574781,-6583,-15236,1518,287,197,-4
26,813,2574786,-6496,-15182,1582,292,229,-8
26,814,2574791,-6401,-15178,1798,294,272,-12
26,815,2574796,-6265,-15217,2114,301,308,-14
26,816,2574801,-6143,-15053,2362,304,283,-17
26,817,2574806,-6141,-15200,2165,302,235,-8
26,818,2574811,-6021,-15152,2021,300,198,-8
26,819,2574816,-6013,-15094,2123,299,192,-12
26,820,2574821,-6222,-15107,2016,300,184,-11
26,821,2574826,-6173,-15013,1877,305,185,-9
26,822,2574831,-6050,-15100,1861,305,198,-6
26,823,2574836,-6033,-15218,2070,305,212,-8
26,824,2574841,-5928,-15188,2255,309,199,-8
26,825,2574846,-5946,-15257,2230,308,182,-5
26,826,2574851,-6019,-15286,2181,308,175,-5
26,827,2574856,-6133,-15249,2096,307,172,-5
26,828,2574861,-6212,-15397,2082,309,172,-2
26,829,2574866,-6203,-15464,2083,309,170,-2
26,830,2574871,-6273,-15422,2137,307,171,-2
26,831,2574876,-6442,-15330,2068,306,179,-6
26,832,2574881,-6617,-15183,1957,306,188,-4
26,833,2574886,-6526,-15228,1824,306,203,-1
26,834,2574891,-6399,-15294,1894,308,226,1
26,835,2574896,-6326,-15206,2116,309,238,-2
26,836,2574901,-6146,-15190,2242,309,231,-1
26,837,2574906,-5874,-15156,2269,310,224,0
26,838,2574911,-5814,-15219,2311,309,229,-2
26,839,2574916,-5934,-15203,2379,307,222,-1
26,840,2574921,-6039,-15122,2371,305,195,0
26,841,2574926,-6029,-15140,2238,306,156,5
26,842,2574931,-6058,-15010,1976,303,135,7
26,843,2574936,-6189,-14947,1788,306,139,5
26,844,2574941,-6291,-15110,1679,308,153,10
26,845,2574946,-6230,-15162,1711,310,164,12
26,846,2574951,-6252,-15149,1806,308,186,12
26,847,2574956,-6324,-15144,1865,310,199,11
26,848,2574961,-6331,-15132,1930,314,204,10
26,849,2574966,-6111,-15152,2094,314,202,12
26,850,2574971,-5979,-15121,2289,314,197,11
26,851,2574976,-6053,-15103,2254,315,187,12
26,852,2574981,-6240,-14984,2053,312,164,11
26,853,2574986,-6214,-14986,1870,314,137,14
26,854,2574991,-6136,-15030,1850,309,124,20
26,855,2574996,-6216,-15023,1866,303,126,19
26,856,2575001,-6450,-14995,1748,311,134,16
26,857,2575006,-6478,-15005,1498,310,153,15
26,858,2575011,-6275,-15046,1456,309,178,15
26,859,2575016,-6101,-15108,1802,309,209,13
26,860,2575021,-6073,-15051,2029,310,208,10
26,861,2575026,-6217,-15044,2024,308,186,8
26,862,2575031,-6274,-15103,2058,302,159,14
26,863,2575036,-6126,-15085,2063,296,138,13
26,864,2575041,-6031,-15047,2119,296,122,8
26,865,2575046,-6130,-15100,2036,294,97,11
26,866,2575051,-6260,-15070,1743,290,68,16
26,867,2575056,-6249,-15119,1506,286,59,15
26,868,2575061,-6178,-15201,1560,283,82,11
26,869,2575066,-6183,-15326,1859,277,116,12
26,870,2575071,-6129,-15317,1972,273,137,9
26,871,2575076,-6125,-15275,1977,268,141,7
26,872,2575081,-6219,-15203,2045,263,131,7
26,873,2575086,-6314,-15130,1959,257,117,6
26,874,2575091,-6292,-15051,1865,246,106,9
26,875,2575096,-6283,-15059,1797,238,111,10
26,876,2575101,-6290,-15019,1695,231,115,7
26,877,2575106,-6267,-15038,1505,227,123,8
26,878,2575111,-6184,-15047,1546,221,138,7
26,879,2575116,-6010,-15044,1737,212,151,6
26,880,2575121,-5879,-15036,1992,204,156,4
26,881,2575126,-5799,-14992,1978,201,130,1
26,882,2575131,-5811,-14957,1929,194,85,4
26,883,2575136,-5943,-15010,1778,184,35,5
26,884,2575141,-6066,-14993,1514,174,-18,3
26,885,2575146,-6155,-14959,1287,166,-35,4
26,886,2575151,-6217,-14872,1039,161,-27,4
26,887,2575156,-6380,-14758,962,149,2,1
26,888,2575161,-6451,-14820,1053,144,34,-1
26,889,2575166,-6157,-14908,1166,131,57,-2
26,890,2575171,-6114,-14929,1310,122,59,-5
26,891,2575176,-6191,-14848,1496,109,41,-9
26,892,2575181,-6272,-14823,1520,101,7,-10
26,893,2575186,-6249,-14861,1448,94,-21,-8
26,894,2575191,-6190,-14930,1396,82,-30,-5
26,895,2575196,-6164,-14901,1400,69,-33,-10
26,896,2575201,-6221,-14838,1283,61,-46,-12
26,897,2575206,-6271,-14907,1233,56,-58,-13
26,898,2575211,-6250,-15020,1052,45,-59,-12
26,899,2575216,-6130,-14977,888,36,-37,-16
26,900,2575221,-6112,-14974,970,27,-2,-21
26,901,2575226,-6173,-15043,1359,17,18,-22
26,902,2575231,-6046,-14990,1376,9,2,-21
26,903,2575236,-5996,-15100,1533,3,-13,-16
26,904,2575241,-6027,-14985,1345,-16,-31,-20
26,905,2575246,-6010,-15065,1406,-26,-51,-20
26,906,2575251,-5948,-15108,1368,-39,-77,-18
26,907,2575256,-6064,-15113,1412,-54,-103,-18
26,908,2575261,-6129,-15107,1257,-65,-129,-19
26,909,2575266,-6093,-15035,1204,-76,-141,-17
26,910,2575271,-6176,-14998,1310,-86,-149,-18
26,911,2575276,-6273,-14979,1243,-97,-165,-19
26,912,2575281,-6244,-14966,966,-106,-174,-14
26,913,2575286,-6195,-14979,796,-111,-164,-14
26,914,2575291,-6186,-15011,846,-122,-144,-15
26,915,2575296,-6059,-15012,968,-133,-119,-17
26,916,2575301,-6036,-14972,1212,-144,-100,-20
26,917,2575306,-5969,-15001,1352,-152,-98,-18
26,918,2575311,-5768,-15120,1390,-163,-107,-13
26,919,2575316,-5726,-15222,1428,-173,-119,-14
26,920,2575321,-5787,-15214,1478,-187,-137,-16
26,921,2575326,-5846,-15178,1486,-197,-156,-16
26,922,2575331,-5915,-15178,1222,-208,-178,-12
26,923,2575336,-5866,-15197,985,-219,-184,-9
26,924,2575341,-5921,-15301,1026,-230,-173,-9
26,925,2575346,-5926,-15342,1205,-243,-171,-10
26,926,2575351,-5982,-15262,1358,-251,-183,-9
26,927,2575356,-6064,-15204,1270,-258,-205,-6
26,928,2575361,-6191,-15315,1086,-264,-227,-4
26,929,2575366,-6288,-15435,986,-275,-240,-5
26,930,2575371,-6337,-15581,1007,-288,-254,-6
26,931,2575376,-6322,-15449,1061,-292,-263,-7
26,932,2575381,-6416,-15323,1009,-303,-260,-6
26,933,2575386,-6465,-15298,923,-308,-251,-9
26,934,2575391,-6401,-15327,837,-312,-242,-9
26,935,2575396,-6265,-15285,835,-321,-238,-12
26,936,2575401,-6031,-15250,929,-330,-236,-11
26,937,2575406,-5849,-15262,1033,-339,-219,-13
26,938,2575411,-5733,-15170,1190,-344,-192,-14
26,939,2575416,-5755,-15155,1247,-353,-183,-15
26,940,2575421,-5616,-15228,1443,-358,-187,-13
26,941,2575426,-5570,-15213,1460,-367,-212,-11
26,942,2575431,-5710,-15222,1460,-374,-249,-5
26,943,2575436,-5849,-15223,1335,-382,-283,-7
26,944,2575441,-6001,-15198,1066,-389,-309,-5
26,945,2575446,-6058,-15185,868,-396,-318,-6
26,946,2575451,-6106,-15195,789,-405,-309,-6
26,947,2575456,-6193,-15186,658,-404,-298,-4
26,948,2575461,-6256,-15143,627,-410,-282,-6
26,949,2575466,-6235,-15241,766,-418,-266,-7
26,950,2575471,-6119,-15334,859,-423,-260,-8
26,951,2575476,-5929,-15302,890,-426,-259,-10
26,952,2575481,-5998,-15364,963,-434,-265,-11
26,953,2575486,-6081,-15309,866,-439,-285,-16
26,954,2575491,-6037,-15347,915,-447,-304,-14
26,955,2575496,-5953,-15383,806,-452,-321,-11
26,956,2575501,-6010,-15343,732,-456,-318,-13
26,957,2575506,-6186,-15372,565,-458,-314,-14
26,958,2575511,-6176,-15474,468,-465,-304,-16
26,959,2575516,-6058,-15501,594,-471,-285,-15
26,960,2575521,-5994,-15384,794,-471,-269,-14
26,961,2575526,-5912,-15290,837,-477,-268,-15
26,962,2575531,-5954,-15320,579,-491,-285,-20
26,963,2575536,-5898,-15286,567,-496,-295,-17
26,964,2575541,-5918,-15314,600,-500,-293,-17
26,965,2575546,-5978,-15345,525,-506,-287,-19
26,966,2575551,-5938,-15416,397,-512,-261,-20
26,967,2575556,-5818,-15567,449,-513,-233,-19
26,968,2575561,-5723,-15662,777,-518,-215,-23
26,969,2575566,-5791,-15701,946,-526,-225,-24
26,970,2575571,-5865,-15631,799,-535,-257,-23
26,971,2575576,-6013,-15709,901,-540,-285,-19
26,972,2575581,-5949,-15675,837,-551,-313,-26
26,973,2575586,-5984,-15686,740,-557,-323,-27
26,974,2575591,-6090,-15641,528,-560,-319,-29
26,975,2575596,-6165,-15513,562,-562,-312,-30
26,976,2575601,-6353,-15677,456,-569,-313,-28
26,977,2575606,-6252,-15460,415,-575,-309,-39
26,978,2575611,-6238,-15486,529,-583,-284,-38
26,979,2575616,-6266,-15491,702,-587,-246,-37
26,980,2575621,-6224,-15398,843,-592,-221,-40
26,981,2575626,-6188,-15299,946,-593,-213,-41
26,982,2575631,-5990,-15497,1269,-605,-225,-29
26,983,2575636,-5754,-15467,930,-617,-257,-33
26,984,2575641,-5720,-15597,716,-615,-274,-39
26,985,2575646,-6029,-15445,1016,-615,-248,-54
26,986,2575651,-6043,-15191,901,-632,-240,-41
26,987,2575656,-5967,-16163,1049,-638,-264,-21
26,988,2575661,-5635,-15417,827,-647,-286,-56
26,989,2575666,-6051,-15603,1451,-637,-241,-38
26,990,2575671,-6261,-15503,1288,-649,-208,-45
26,991,2575676,-6056,-15463,1358,-653,-211,-43
26,992,2575681,-5788,-15755,1454,-650,-263,-39
26,993,2575686,-5830,-15864,1728,-655,-298,-45
26,994,2575691,-5839,-15841,1402,-658,-338,-35
26,995,2575696,-6245,-15987,1298,-665,-325,-32
26,996,2575701,-6412,-15874,1170,-667,-305,-37
26,997,2575706,-6483,-15972,1568,-667,-268,-33
26,998,2575711,-6309,-15926,1574,-674,-239,-31
26,999,2575716,-10011,-7807,-948,-718,-291,13
26,1000,2575721,-5842,-13013,12629,-480,214,-72
26,1001,2575726,-6473,-12482,1885,-386,338,-28
26,1002,2575731,-1657,-17550,-3240,-352,-90,103
26,1003,2575736,-7876,-15586,4848,-458,429,-364
26,1004,2575741,-7425,-14927,6003,-531,-656,6
26,1005,2575746,-3685,-16814,1001,-500,-1358,314
26,1006,2575751,-6510,-15520,-973,-536,-521,11
26,1007,2575756,-8159,-14478,-1768,-497,1,-67
26,1008,2575761,-5629,-16495,-895,-464,28,32
26,1009,2575766,-4960,-15629,2248,-490,163,-62
26,1010,2575771,-5820,-14977,3847,-447,62,-23
26,1011,2575776,-4897,-15023,2900,-449,-103,100
26,1012,2575781,-9238,-18603,4463,-480,-24,-17
26,1013,2575786,-4221,-11440,429,-467,-385,-176
26,1014,2575791,-4775,-16047,1517,-524,-315,105
26,1015,2575796,-5999,-17540,2406,-499,-376,63
26,1016,2575801,-5310,-14540,1449,-462,-527,-25
26,1017,2575806,-7407,-15535,808,-453,-361,50
26,1018,2575811,-6565,-14842,591,-477,-248,8
26,1019,2575816,-6073,-15040,1051,-476,-166,18
26,1020,2575821,-5758,-16093,1738,-449,-191,39
26,1021,2575826,-6032,-14991,1653,-465,-223,2
26,1022,2575831,-6403,-15483,1285,-438,-218,26
26,1023,2575836,-6382,-15123,1323,-437,-210,4
26,1024,2575841,-6284,-15344,1440,-431,-233,13
26,1025,2575846,-6394,-15335,1048,-429,-259,12
26,1026,2575851,-6731,-15327,1609,-417,-256,13
26,1027,2575856,-6629,-15102,724,-426,-269,6
26,1028,2575861,-6696,-15250,1234,-409,-225,3
26,1029,2575866,-6546,-15167,981,-392,-230,-1
26,1030,2575871,-6397,-15283,1420,-387,-223,1
26,1031,2575876,-6090,-15534,1074,-385,-249,1
26,1032,2575881,-6426,-15374,1475,-376,-245,-17
26,1033,2575886,-6364,-15005,859,-362,-274,-17
26,1034,2575891,-6466,-15376,704,-360,-278,-5
26,1035,2575896,-6298,-15256,587,-341,-258,-3
26,1036,2575901,-6614,-15373,886,-336,-244,-7
26,1037,2575906,-6370,-15005,224,-330,-251,-17
26,1038,2575911,-6221,-15147,314,-308,-209,-2
26,1039,2575916,-6313,-15413,839,-303,-187,-5
26,1040,2575921,-5995,-15292,706,-306,-204,-18
26,1041,2575926,-5985,-15157,799,-284,-204,-13
26,1042,2575931,-5931,-15212,439,-275,-232,-10
26,1043,2575936,-6192,-15283,332,-274,-238,-10
26,1044,2575941,-6215,-15169,294,-259,-247,-13
26,1045,2575946,-6298,-15094,415,-251,-228,-13
26,1046,2575951,-6226,-14965,306,-245,-207,-9
26,1047,2575956,-6220,-15284,234,-236,-186,0
26,1048,2575961,-6155,-15186,25,-220,-179,-8
26,1049,2575966,-6231,-15372,879,-201,-159,-3
26,1050,2575971,-6091,-14762,192,-210,-188,-9
26,1051,2575976,-6291,-15372,474,-209,-176,5
26,1052,2575981,-6107,-15070,-276,-194,-187,-6
26,1053,2575986,-6268,-14848,144,-190,-132,-8
26,1054,2575991,-6190,-15036,131,-182,-101,1
26,1055,2575996,-6456,-15057,486,-168,-78,-1
26,1056,2576001,-6163,-14904,62,-159,-97,-7
26,1057,2576006,-6298,-15100,104,-149,-83,-4
26,1058,2576011,-6197,-14930,72,-148,-89,-3
26,1059,2576016,-6130,-14912,149,-140,-84,10
26,1060,2576021,-6716,-15699,671,-126,-100,23
26,1061,2576026,-6146,-14702,-215,-136,-156,-11
26,1062,2576031,-6266,-15304,155,-126,-121,9
26,1063,2576036,-6077,-15137,-174,-120,-119,-2
26,1064,2576041,-6249,-15042,219,-112,-92,-1
26,1065,2576046,-6280,-15055,-220,-107,-98,1
26,1066,2576051,-6330,-15053,-193,-98,-82,3
26,1067,2576056,-6301,-15203,-281,-96,-62,5
26,1068,2576061,-6296,-15087,-22,-92,-30,2
26,1069,2576066,-6231,-14842,125,-90,-19,10
26,1070,2576071,-6327,-15467,199,-91,-22,26
26,1071,2576076,-6144,-14915,-35,-80,-45,4
26,1072,2576081,-6164,-15117,39,-75,-46,12
26,1073,2576086,-6033,-15120,84,-74,-53,13
26,1074,2576091,-6101,-15142,311,-75,-61,11
26,1075,2576096,-6126,-15134,99,-68,-76,18
26,1076,2576101,-6208,-15133,-55,-66,-83,17
26,1077,2576106,-6147,-15122,-280,-65,-91,18
26,1078,2576111,-6108,-15071,-215,-65,-91,20
26,1079,2576116,-6203,-15104,-86,-63,-95,22
26,1080,2576121,-6233,-15072,-124,-62,-107,22
26,1081,2576126,-6190,-15054,-391,-58,-112,23
26,1082,2576131,-6240,-15036,-407,-56,-94,23
26,1083,2576136,-6340,-14983,-306,-56,-73,24
26,1084,2576141,-6556,-14949,-355,-55,-72,25
26,1085,2576146,-6560,-14976,-446,-53,-82,27
26,1086,2576151,-6432,-15027,-430,-52,-89,26
26,1087,2576156,-6349,-15048,-272,-52,-84,23
26,1088,2576161,-6344,-14953,-284,-50,-78,18
26,1089,2576166,-6406,-14939,-396,-49,-72,22
26,1090,2576171,-6357,-14920,-478,-49,-71,19
26,1091,2576176,-6269,-14974,-421,-46,-67,18
26,1092,2576181,-6220,-15000,-457,-44,-65,21
26,1093,2576186,-6169,-14910,-557,-45,-47,18
26,1094,2576191,-6157,-14879,-592,-44,-29,17
26,1095,2576196,-6044,-14973,-435,-44,-22,19
26,1096,2576201,-5915,-15042,-218,-42,-23,19
26,1097,2576206,-6005,-15030,-320,-41,-34,19
26,1098,2576211,-6103,-14931,-558,-38,-51,23
26,1099,2576216,-6191,-15056,-572,-43,-71,21
26,1100,2576221,-6050,-15157,-594,-44,-91,21
26,1101,2576226,-5955,-15124,-750,-41,-97,22
26,1102,2576231,-6158,-15070,-925,-37,-86,20
26,1103,2576236,-6238,-15060,-960,-36,-73,20
26,1104,2576241,-6088,-15105,-948,-34,-60,22
26,1105,2576246,-5980,-15180,-819,-35,-47,20
26,1106,2576251,-6070,-15205,-827,-32,-42,18
26,1107,2576256,-6114,-15176,-848,-31,-43,20
26,1108,2576261,-6033,-15146,-570,-30,-37,20
26,1109,2576266,-6013,-15027,-637,-28,-40,19
26,1110,2576271,-6014,-15034,-787,-25,-45,17
26,1111,2576276,-5980,-15087,-875,-22,-56,19
26,1112,2576281,-5929,-15099,-908,-23,-65,17
26,1113,2576286,-5857,-15100,-916,-22,-60,16
26,1114,2576291,-5950,-15032,-890,-21,-45,15
26,1115,2576296,-6066,-14979,-762,-15,-31,15
26,1116,2576301,-6077,-14973,-896,-14,-37,13
26,1117,2576306,-5842,-15097,-1071,-11,-41,13
26,1118,2576311,-5790,-15118,-1083,-10,-32,11
26,1119,2576316,-5942,-15075,-1003,-6,-20,9
26,1120,2576321,-6023,-15041,-978,-4,-18,10
26,1121,2576326,-6081,-15081,-832,-4,-18,8
26,1122,2576331,-5998,-15040,-916,-3,-18,8
26,1123,2576336,-5913,-15073,-943,0,0,8
26,1124,2576341,-5946,-15196,-746,1,27,2
26,1125,2576346,-5906,-15207,-650,5,29,4
26,1126,2576351,-5874,-15141,-552,4,10,5
26,1127,2576356,-5895,-15162,-390,3,-26,9
26,1128,2576361,-6017,-15313,-867,11,-81,0
26,1129,2576366,-5827,-14904,-1001,10,-76,-13
26,1130,2576371,-6143,-15220,-1170,4,-47,3
26,1131,2576376,-6063,-15107,-1043,9,-28,-7
26,1132,2576381,-6103,-15180,-1197,9,-24,-5
26,1133,2576386,-6085,-15288,-1272,7,-9,-7
26,1134,2576391,-5978,-15238,-1131,9,18,-11
26,1135,2576396,-5876,-15233,-792,11,46,-16
26,1136,2576401,-5940,-15193,-521,13,47,-19
26,1137,2576406,-6001,-15216,-527,16,10,-17
26,1138,2576411,-5947,-15297,-708,15,-31,-16
26,1139,2576416,-5961,-15378,-1020,15,-47,-18
26,1140,2576421,-6127,-15318,-1023,14,-34,-24
26,1141,2576426,-6121,-15191,-1044,13,-17,-24
26,1142,2576431,-6145,-15251,-1056,11,3,-27
26,1143,2576436,-6133,-15205,-1035,12,31,-30
26,1144,2576441,-6183,-15183,-686,15,65,-32
26,1145,2576446,-6128,-15129,-333,16,73,-35
26,1146,2576451,-6074,-15201,-369,19,45,-34
26,1147,2576456,-5975,-15215,-610,21,6,-35
26,1148,2576461,-5925,-15264,-658,14,-24,-35
26,1149,2576466,-5897,-15265,-713,14,-36,-38
26,1150,2576471,-5899,-15292,-859,16,-33,-40
26,1151,2576476,-5967,-15242,-878,17,-20,-40
26,1152,2576481,-5835,-15139,-966,15,-9,-40
26,1153,2576486,-5673,-15151,-829,13,8,-41
26,1154,2576491,-5729,-15198,-633,17,21,-42
26,1155,2576496,-5811,-15152,-642,20,16,-44
26,1156,2576501,-5754,-15184,-674,18,-2,-42
26,1157,2576506,-5796,-15126,-570,16,-16,-42
26,1158,2576511,-5807,-15105,-621,15,-30,-40
26,1159,2576516,-5970,-15027,-628,17,-28,-46
26,1160,2576521,-6035,-14951,-553,19,-25,-51
26,1161,2576526,-6048,-14953,-502,17,-35,-45
26,1162,2576531,-5987,-15045,-641,19,-53,-43
26,1163,2576536,-6146,-15037,-689,23,-52,-46
26,1164,2576541,-6375,-14989,-717,24,-49,-50
26,1165,2576546,-6401,-14919,-695,21,-40,-55
26,1166,2576551,-6313,-15020,-551,28,-25,-51
26,1167,2576556,-6201,-15062,-414,28,-14,-55
26,1168,2576561,-6159,-15102,-399,30,-13,-59
26,1169,2576566,-6073,-15202,-579,36,-31,-58
26,1170,2576571,-6060,-15286,-798,34,-39,-61
26,1171,2576576,-6076,-15375,-840,33,-32,-63
26,1172,2576581,-6246,-15356,-758,37,-24,-65
26,1173,2576586,-6413,-15220,-962,38,-19,-69
26,1174,2576591,-6418,-15130,-952,40,5,-68
26,1175,2576596,-6135,-15235,-810,46,35,-68
26,1176,2576601,-5779,-15086,-367,47,68,-76
26,1177,2576606,-5850,-15205,-18,47,70,-78
26,1178,2576611,-5945,-15162,-8,53,33,-82
26,1179,2576616,-5888,-15164,-143,55,-24,-78
26,1180,2576621,-5826,-15215,-95,50,-79,-73
26,1181,2576626,-6281,-15190,-374,48,-154,-77
26,1182,2576631,-6283,-15215,-889,51,-171,-78
26,1183,2576636,-6285,-15219,-887,51,-156,-81
26,1184,2576641,-6374,-15220,-797,53,-145,-86
26,1185,2576646,-6485,-15104,-600,56,-135,-82
26,1186,2576651,-6463,-15214,-901,58,-132,-79
26,1187,2576656,-6481,-15141,-891,62,-103,-92
26,1188,2576661,-6559,-15260,-780,60,-79,-94
26,1189,2576666,-6341,-15271,-458,64,-68,-94
26,1190,2576671,-6078,-15254,-385,65,-83,-96
26,1191,2576676,-6199,-15275,-564,64,-101,-97
26,1192,2576681,-6292,-15226,-650,64,-112,-101
26,1193,2576686,-6116,-15294,-674,63,-112,-100
26,1194,2576691,-5858,-15260,-632,64,-103,-100
26,1195,2576696,-5795,-15204,-410,70,-90,-100
26,1196,2576701,-5875,-15382,-551,70,-97,-96
26,1197,2576706,-5803,-15229,-563,73,-102,-103
26,1198,2576711,-5809,-15333,-510,70,-105,-100
26,1199,2576716,-5791,-15312,-433,72,-107,-101
26,1200,2576721,-5679,-15280,-570,74,-121,-99
26,1201,2576726,-5760,-15340,-555,74,-133,-97
26,1202,2576731,-6010,-15314,-334,70,-141,-101
26,1203,2576736,-6140,-15312,-452,71,-169,-95
26,1204,2576741,-5961,-15136,-915,74,-185,-92
26,1205,2576746,-5945,-15122,-1144,73,-179,-92
26,1206,2576751,-6051,-15261,-1245,72,-156,-90
26,1207,2576756,-6191,-15412,-1301,77,-124,-88
26,1208,2576761,-6290,-15248,-1167,79,-73,-88
26,1209,2576766,-6459,-15220,-713,78,-17,-90
26,1210,2576771,-6242,-15062,-434,81,11,-96
26,1211,2576776,-5876,-15158,-200,85,2,-90
26,1212,2576781,-5629,-15260,-15,86,-39,-91
26,1213,2576786,-5758,-15237,-60,85,-98,-94
26,1214,2576791,-5789,-15124,-390,84,-163,-88
26,1215,2576796,-5697,-15143,-613,80,-196,-85
26,1216,2576801,-5533,-15177,-597,76,-209,-83
26,1217,2576806,-5582,-15157,-489,78,-209,-81
26,1218,2576811,-5678,-15122,-871,82,-209,-76
26,1219,2576816,-5807,-15126,-1180,86,-190,-72
26,1220,2576821,-5759,-15182,-1335,89,-157,-70
26,1221,2576826,-5689,-15230,-1110,89,-109,-70
26,1222,2576831,-5779,-15305,-812,92,-70,-72
26,1223,2576836,-5890,-15313,-712,94,-55,-70
26,1224,2576841,-5942,-15349,-788,95,-51,-65
26,1225,2576846,-5876,-15366,-714,96,-50,-62
26,1226,2576851,-5718,-15343,-515,96,-52,-62
26,1227,2576856,-5817,-15475,-530,93,-61,-65
26,1228,2576861,-5945,-15381,-607,92,-73,-62
26,1229,2576866,-5784,-15347,-595,88,-77,-54
26,1230,2576871,-5521,-15397,-435,87,-88,-54
26,1231,2576876,-5722,-15329,-144,87,-101,-60
26,1232,2576881,-5973,-15295,-290,90,-143,-54
26,1233,2576886,-5816,-15252,-717,87,-187,-53
26,1234,2576891,-5820,-15284,-892,82,-188,-56
26,1235,2576896,-5933,-15332,-654,79,-157,-58
26,1236,2576901,-5924,-15590,-1095,83,-144,-65
26,1237,2576906,-5985,-14953,-1012,100,-101,-75
26,1238,2576911,-6071,-15366,-639,77,-35,-58
26,1239,2576916,-6184,-15502,-572,87,-61,-55
26,1240,2576921,-5915,-15259,-972,89,-87,-55
26,1241,2576926,-5841,-15593,-1328,86,-49,-53
26,1242,2576931,-5844,-15254,-959,81,-4,-70
26,1243,2576936,-6018,-15666,-530,84,3,-63
26,1244,2576941,-6174,-15556,-606,84,-37,-62
26,1245,2576946,-6103,-15590,-905,82,-65,-64
26,1246,2576951,-5877,-15256,-1189,79,-54,-65
26,1247,2576956,-6081,-15536,-885,78,-25,-61
26,1248,2576961,-5994,-15231,-1076,75,-27,-77
26,1249,2576966,-5868,-15564,-738,80,-2,-64
26,1250,2576971,-5655,-15610,-724,79,31,-65
26,1251,2576976,-5468,-15461,-516,73,79,-75
26,1252,2576981,-5320,-15716,51,76,92,-60
26,1253,2576986,-5076,-15630,110,69,46,-71
26,1254,2576991,-5330,-15385,-174,60,-91,-58
26,1255,2576996,-5457,-15406,-437,52,-141,-54
26,1256,2577001,-5545,-15528,-558,52,-151,-53
26,1257,2577006,-5600,-15658,-478,48,-144,-48
26,1258,2577011,-5899,-15419,-718,47,-130,-55
26,1259,2577016,-6025,-15503,-893,51,-113,-44
26,1260,2577021,-5932,-15551,-823,50,-86,-41
26,1261,2577026,-5812,-15640,-858,47,-64,-38
26,1262,2577031,-5753,-15528,-893,50,-39,-39
26,1263,2577036,-5839,-15446,-928,47,2,-40
26,1264,2577041,-5836,-15472,-554,48,33,-42
26,1265,2577046,-5885,-15671,-438,44,38,-39
26,1266,2577051,-5637,-15391,-553,46,33,-37
26,1267,2577056,-5558,-15683,-399,45,54,-29
26,1268,2577061,-5322,-15534,-332,38,70,-32
26,1269,2577066,-5395,-15486,-177,40,76,-26
26,1270,2577071,-5390,-15533,-396,34,69,-29
26,1271,2577076,-5313,-15340,-455,31,73,-30
26,1272,2577081,-5313,-15471,-186,35,86,-15
26,1273,2577086,-5196,-15407,-207,31,86,-17
26,1274,2577091,-5259,-15440,-66,33,80,-11
26,1275,2577096,-5250,-15559,-118,34,67,-10
26,1276,2577101,-5110,-15394,-307,30,67,-15
26,1277,2577106,-5490,-15513,-96,33,80,-2
26,1278,2577111,-5733,-15382,-189,31,50,-3
26,1279,2577116,-5832,-15433,-199,28,14,4
26,1280,2577121,-5634,-15395,-449,28,5,10
26,1281,2577126,-5655,-15381,-268,28,38,7
26,1282,2577131,-5747,-15445,-318,31,55,7
26,1283,2577136,-5758,-15480,-267,33,64,10
26,1284,2577141,-5599,-15435,-268,32,60,9
26,1285,2577146,-5528,-15424,-317,32,55,6
26,1286,2577151,-5554,-15288,-128,34,52,6
26,1287,2577156,-5543,-15342,33,35,34,10
26,1288,2577161,-5431,-15321,-7,39,3,12
26,1289,2577166,-5461,-15267,-100,38,-16,13
26,1290,2577171,-5561,-15263,-146,36,-28,16
26,1291,2577176,-5728,-15252,-161,35,-43,9
26,1292,2577181,-5641,-15006,-330,41,-51,13
26,1293,2577186,-5704,-15319,-240,47,-42,24
26,1294,2577191,-5600,-15287,-612,43,-43,20
26,1295,2577196,-5703,-15484,-525,47,-32,14
26,1296,2577201,-5511,-15233,-825,46,-20,13
26,1297,2577206,-5748,-15357,-175,57,36,22
26,1298,2577211,-5764,-15340,-506,50,55,19
26,1299,2577216,-5866,-15228,-188,59,82,15
26,1300,2577221,-5721,-15374,-434,62,91,18
26,1301,2577226,-5762,-15471,-58,66,122,17
26,1302,2577231,-5629,-15333,-163,58,118,15
26,1303,2577236,-5568,-15416,290,61,120,15
26,1304,2577241,-5648,-15250,155,56,101,5
26,1305,2577246,-5778,-15214,81,58,87,10
26,1306,2577251,-5888,-15332,-12,52,67,17
26,1307,2577256,-5661,-15123,-49,51,36,10
26,1308,2577261,-5586,-15314,26,57,23,16
26,1309,2577266,-5445,-15356,-59,55,32,9
26,1310,2577271,-5333,-15188,-184,57,47,9
26,1311,2577276,-5442,-15452,-85,62,64,14
26,1312,2577281,-5361,-15491,-85,62,56,5
26,1313,2577286,-5302,-15481,-72,61,44,13
26,1314,2577291,-5499,-15640,-3,58,42,17
26,1315,2577296,-5665,-15474,-90,54,34,14
26,1316,2577301,-5842,-15488,-113,55,29,16
26,1317,2577306,-5851,-15558,40,52,24,13
26,1318,2577311,-5854,-15570,-44,55,21,15
26,1319,2577316,-5778,-15536,-217,57,27,12
26,1320,2577321,-5713,-15557,-248,61,47,11
26,1321,2577326,-5680,-15589,-75,60,65,8
26,1322,2577331,-5654,-15532,-39,59,76,10
26,1323,2577336,-5659,-15531,39,59,82,12
26,1324,2577341,-5504,-15509,130,58,88,10
26,1325,2577346,-5358,-15585,447,56,89,8
26,1326,2577351,-5330,-15642,565,57,77,9
26,1327,2577356,-5338,-15595,272,60,50,4
26,1328,2577361,-5483,-15661,148,53,33,20
26,1329,2577366,-5539,-15529,-81,48,6,15
26,1330,2577371,-5788,-15560,-76,55,3,18
26,1331,2577376,-5872,-15577,-328,56,24,18
26,1332,2577381,-5835,-15518,-127,58,64,19
26,1333,2577386,-5761,-15557,-17,55,95,18
26,1334,2577391,-5732,-15540,277,58,104,13
26,1335,2577396,-5713,-15774,316,58,75,12
26,1336,2577401,-5266,-15223,-245,59,51,6
26,1337,2577406,-5447,-15619,385,62,76,24
26,1338,2577411,-5392,-15518,267,50,43,14
26,1339,2577416,-5251,-15307,563,52,11,16
26,1340,2577421,-5276,-15500,4,52,-13,28
26,1341,2577426,-5353,-15334,117,50,9,19
26,1342,2577431,-5425,-15458,139,48,9,23
26,1343,2577436,-5278,-15050,88,49,4,15
26,1344,2577441,-5511,-15353,385,55,0,29
26,1345,2577446,-5605,-15172,235,48,-9,24
26,1346,2577451,-5754,-15292,99,50,-21,29
26,1347,2577456,-5669,-15313,-58,53,-27,28
26,1348,2577461,-5599,-15329,114,47,-18,27
26,1349,2577466,-5694,-15494,236,46,-22,28
26,1350,2577471,-5794,-15244,-27,44,-30,21
26,1351,2577476,-5896,-15368,-168,47,-10,27
26,1352,2577481,-5810,-15353,-111,43,14,25
26,1353,2577486,-5669,-15281,-45,42,34,24
26,1354,2577491,-5592,-15358,13,41,49,25
26,1355,2577496,-5614,-15448,54,42,54,22
26,1356,2577501,-5542,-15474,355,43,52,22
26,1357,2577506,-5446,-15533,484,41,46,21
26,1358,2577511,-5573,-15642,531,39,23,19
26,1359,2577516,-5655,-15523,365,38,-22,19
26,1360,2577521,-5682,-15786,376,32,-63,19
26,1361,2577526,-5483,-15511,-119,29,-95,18
26,1362,2577531,-5707,-15745,181,34,-78,30
26,1363,2577536,-5742,-15540,-231,27,-74,15
26,1364,2577541,-5879,-15469,-39,33,-49,20
26,1365,2577546,-5967,-15661,-258,35,-35,22
26,1366,2577551,-5891,-15488,-68,29,-11,17
26,1367,2577556,-5931,-15730,106,35,-3,18
26,1368,2577561,-5814,-15429,71,30,-7,6
26,1369,2577566,-5965,-15541,178,34,-13,14
26,1370,2577571,-5932,-15369,-116,27,-33,6
26,1371,2577576,-6042,-15581,158,29,-35,14
26,1372,2577581,-5724,-15271,-141,25,-48,7
26,1373,2577586,-5673,-15410,48,26,-21,12
26,1374,2577591,-5644,-15529,9,28,3,11
26,1375,2577596,-5583,-15293,-11,24,26,0
26,1376,2577601,-5388,-15374,-12,31,39,9
26,1377,2577606,-5319,-15332,206,28,50,9
26,1378,2577611,-5429,-15293,275,25,39,6
26,1379,2577616,-5467,-15284,246,27,21,10
26,1380,2577621,-5367,-15265,72,22,2,10
26,1381,2577626,-5336,-15292,124,22,-5,9
26,1382,2577631,-5479,-15325,57,22,-10,9
26,1383,2577636,-5559,-15366,16,26,-19,8
26,1384,2577641,-5600,-15353,26,24,-28,10
26,1385,2577646,-5734,-15523,90,22,-30,9
26,1386,2577651,-5583,-15198,-161,23,-36,1
26,1387,2577656,-5802,-15565,231,29,-18,19
26,1388,2577661,-5689,-15471,-45,20,-35,9
26,1389,2577666,-5771,-15543,137,21,-50,12
26,1390,2577671,-5659,-15550,-321,21,-69,11
26,1391,2577676,-5724,-15553,-266,20,-46,9
26,1392,2577681,-5710,-15517,-415,20,-15,8
26,1393,2577686,-5848,-15468,11,23,28,4
26,1394,2577691,-5835,-15477,5,25,41,5
26,1395,2577696,-5697,-15518,67,27,54,5
26,1396,2577701,-5645,-15518,53,28,40,4
26,1397,2577706,-5605,-15501,262,29,23,4
26,1398,2577711,-5548,-15529,313,22,-1,3
26,1399,2577716,-5487,-15496,463,22,-31,5
26,1400,2577721,-5560,-15429,363,23,-55,5
26,1401,2577726,-5708,-15552,43,22,-66,4
26,1402,2577731,-5567,-15215,-24,18,-57,-8
26,1403,2577736,-5691,-15590,215,20,-41,7
26,1404,2577741,-5644,-15473,30,20,-42,6
26,1405,2577746,-5607,-15312,-81,18,-36,1
26,1406,2577751,-5619,-15398,122,21,-15,7
26,1407,2577756,-5549,-15307,242,15,5,4
26,1408,2577761,-5530,-15167,212,16,0,-2
26,1409,2577766,-5720,-15357,137,18,-13,6
26,1410,2577771,-5790,-15293,28,18,-32,3
26,1411,2577776,-5801,-15297,-112,15,-43,6
26,1412,2577781,-5727,-15383,-96,18,-32,10
26,1413,2577786,-5668,-15423,135,14,-12,4
26,1414,2577791,-5684,-15530,161,21,7,5
26,1415,2577796,-5692,-15504,55,22,17,3
26,1416,2577801,-5667,-15446,232,20,27,0
26,1417,2577806,-5595,-15568,401,17,24,2
26,1418,2577811,-5494,-15531,448,15,13,0
26,1419,2577816,-5654,-15509,436,14,7,-1
26,1420,2577821,-5852,-15407,269,13,-13,-1
26,1421,2577826,-5946,-15385,186,9,-39,0
26,1422,2577831,-5843,-15433,118,8,-43,3
26,1423,2577836,-5814,-15353,32,9,-23,0
26,1424,2577841,-5906,-15261,-111,10,-6,-4
26,1425,2577846,-5948,-15296,-134,12,3,-1
26,1426,2577851,-5771,-15345,-34,11,11,-2
26,1427,2577856,-5649,-15377,79,12,16,-1
26,1428,2577861,-5641,-15316,121,11,20,-5
26,1429,2577866,-5734,-15250,223,9,20,-8
26,1430,2577871,-5717,-15146,313,5,2,-7
26,1431,2577876,-5661,-15206,214,8,-20,-3
26,1432,2577881,-5547,-15232,46,9,-37,-3
26,1433,2577886,-5603,-15170,-65,8,-35,-4
26,1434,2577891,-5744,-15110,-32,2,-24,-6
26,1435,2577896,-5805,-15107,3,4,-23,-8
26,1436,2577901,-5800,-15117,46,7,-15,-8
26,1437,2577906,-5755,-15154,31,4,-6,-7
26,1438,2577911,-5783,-15204,-29,6,6,-8
26,1439,2577916,-5860,-15265,16,6,18,-9
26,1440,2577921,-5904,-15252,99,8,20,-11
26,1441,2577926,-5783,-15286,100,6,20,-8
26,1442,2577931,-5640,-15391,118,5,18,-9
26,1443,2577936,-5549,-15499,249,6,19,-9
26,1444,2577941,-5475,-15541,367,4,17,-9
26,1445,2577946,-5452,-15476,271,1,13,-10
26,1446,2577951,-5430,-15473,201,0,13,-9
26,1447,2577956,-5425,-15478,248,-1,14,-6
26,1448,2577961,-5427,-15352,245,-4,12,-5
26,1449,2577966,-5456,-15305,227,-3,9,-2
26,1450,2577971,-5516,-15344,233,-2,7,-3
26,1451,2577976,-5549,-15338,108,-1,-1,-2
26,1452,2577981,-5611,-15279,98,-3,-9,2
26,1453,2577986,-5641,-15248,94,-3,-20,1
26,1454,2577991,-5670,-15230,192,-3,-24,2
26,1455,2577996,-5638,-15220,171,-3,-29,3
26,1456,2578001,-5599,-15305,120,-3,-28,3
26,1457,2578006,-5506,-15411,88,-1,-19,3
26,1458,2578011,-5465,-15478,155,1,-16,4
26,1459,2578016,-5456,-15525,196,1,-16,4
26,1460,2578021,-5603,-15552,307,0,-19,1
26,1461,2578026,-5791,-15500,299,-2,-24,2
26,1462,2578031,-5886,-15480,177,-4,-31,7
26,1463,2578036,-5817,-15535,141,-5,-39,4
26,1464,2578041,-5861,-15549,98,-2,-39,2
26,1465,2578046,-5891,-15522,25,1,-41,2
26,1466,2578051,-5883,-15482,-18,1,-36,0
26,1467,2578056,-5863,-15377,-121,-1,-26,0
26,1468,2578061,-5859,-15263,-201,-1,-11,-3
26,1469,2578066,-5925,-15212,-64,2,7,-4
26,1470,2578071,-5995,-15235,54,4,17,-5
26,1471,2578076,-5958,-15208,25,7,19,-3
26,1472,2578081,-5876,-15160,67,9,23,-5
26,1473,2578086,-5919,-15215,143,8,27,-9
26,1474,2578091,-5988,-15356,260,9,3,-8
26,1475,2578096,-5796,-15412,77,6,-8,-9
26,1476,2578101,-5733,-15393,-8,5,-1,-6
26,1477,2578106,-5785,-15371,-20,5,13,-12
26,1478,2578111,-5954,-15329,125,9,32,-16
26,1479,2578116,-5967,-15420,157,10,42,-14
26,1480,2578121,-5799,-15392,143,9,59,-13
26,1481,2578126,-5586,-15403,279,12,69,-13
26,1482,2578131,-5511,-15519,366,11,61,-14
26,1483,2578136,-5526,-15518,421,11,50,-13
26,1484,2578141,-5471,-15443,338,7,26,-11
26,1485,2578146,-5480,-15482,249,6,5,-10
26,1486,2578151,-5582,-15561,216,4,-13,-9
26,1487,2578156,-5690,-15475,173,4,-29,-7
26,1488,2578161,-5831,-15375,20,3,-33,-9
26,1489,2578166,-6056,-15311,-24,5,-24,-4
26,1490,2578171,-6154,-15312,29,5,-15,-7
26,1491,2578176,-6041,-15366,15,7,-13,-7
26,1492,2578181,-5894,-15299,-1,9,-5,-11
26,1493,2578186,-5904,-15309,120,12,8,-8
26,1494,2578191,-5945,-15350,260,10,7,-8
26,1495,2578196,-5839,-15351,162,9,-1,-8
26,1496,2578201,-5776,-15441,100,11,1,-3
26,1497,2578206,-5798,-15449,42,9,12,-5
26,1498,2578211,-5842,-15445,47,8,24,-7
26,1499,2578216,-5803,-15381,78,6,41,-6
26,1500,2578221,-5721,-15356,88,9,54,-4
26,1501,2578226,-5692,-15415,139,10,69,-2
26,1502,2578231,-5615,-15416,133,10,80,-1
26,1503,2578236,-5498,-15476,204,11,87,-1
26,1504,2578241,-5497,-15506,368,13,86,-3
26,1505,2578246,-5556,-15431,261,11,56,3
26,1506,2578251,-5673,-15260,297,6,20,3
26,1507,2578256,-5907,-15140,322,5,-13,6
26,1508,2578261,-5963,-15125,184,8,-37,9
26,1509,2578266,-5937,-15151,-135,8,-37,7
26,1510,2578271,-5760,-15186,-162,10,-18,6
26,1511,2578276,-5634,-15245,-100,11,-2,6
26,1512,2578281,-5664,-15350,22,9,8,7
26,1513,2578286,-5673,-15353,157,9,18,6
26,1514,2578291,-5649,-15264,166,13,18,10
26,1515,2578296,-5558,-15246,215,13,12,10
26,1516,2578301,-5586,-15242,254,12,-9,10
26,1517,2578306,-5687,-15370,286,11,-32,13
26,1518,2578311,-5698,-15413,125,16,-50,17
26,1519,2578316,-5764,-15403,-50,15,-42,14
26,1520,2578321,-5793,-15427,-157,12,-22,12
26,1521,2578326,-5780,-15474,-37,13,0,12
26,1522,2578331,-5792,-15531,175,14,18,12
26,1523,2578336,-5799,-15395,233,16,28,12
26,1524,2578341,-5986,-15335,210,13,32,11
26,1525,2578346,-6009,-15369,242,11,30,8
26,1526,2578351,-5879,-15417,264,11,30,8
26,1527,2578356,-5814,-15407,327,11,32,8
26,1528,2578361,-5926,-15398,304,11,25,8
26,1529,2578366,-5959,-15324,168,12,20,7
26,1530,2578371,-5878,-15341,58,8,20,6
26,1531,2578376,-5703,-15270,114,7,29,5
26,1532,2578381,-5580,-15198,353,5,33,3
26,1533,2578386,-5798,-15173,396,7,30,0
26,1534,2578391,-5938,-15129,301,7,15,1
26,1535,2578396,-5798,-15169,163,5,8,2
26,1536,2578401,-5562,-15279,210,3,10,1
26,1537,2578406,-5490,-15302,378,3,8,-3
26,1538,2578411,-5596,-15322,509,2,-5,-3
26,1539,2578416,-5680,-15411,420,3,-28,0
26,1540,2578421,-5661,-15395,304,1,-36,-2
26,1541,2578426,-5646,-15469,352,-4,-27,0
26,1542,2578431,-5593,-15428,315,-3,-23,-2
26,1543,2578436,-5780,-15373,320,-3,-22,-4
26,1544,2578441,-5931,-15420,108,1,-35,-4
26,1545,2578446,-5898,-15452,34,-1,-38,-2
26,1546,2578451,-5829,-15484,41,-3,-24,-3
26,1547,2578456,-5755,-15497,131,0,7,-7
26,1548,2578461,-5808,-15460,67,-4,14,-11
26,1549,2578466,-5729,-15402,167,-2,17,-9
26,1550,2578471,-5669,-15333,360,-1,24,-8
26,1551,2578476,-5730,-15274,479,-1,24,-12
26,1552,2578481,-5840,-15240,513,-1,1,-12
26,1553,2578486,-5850,-15246,359,-4,-38,-10
26,1554,2578491,-5847,-15251,155,-4,-68,-11
26,1555,2578496,-5886,-15295,-44,-3,-72,-11
26,1556,2578501,-5889,-15312,24,-1,-44,-10
26,1557,2578506,-5802,-15323,14,0,-23,-14
26,1558,2578511,-5647,-15374,66,3,-6,-15
26,1559,2578516,-5586,-15456,115,7,3,-11
26,1560,2578521,-5557,-15463,126,8,2,-14
26,1561,2578526,-5575,-15477,125,6,-3,-16
26,1562,2578531,-5728,-15492,117,3,-1,-15
26,1563,2578536,-5824,-15464,212,5,-6,-16
26,1564,2578541,-5762,-15477,205,4,-12,-15
26,1565,2578546,-5656,-15549,246,5,-1,-14
26,1566,2578551,-5718,-15450,355,4,16,-17
26,1567,2578556,-5781,-15369,298,6,15,-18
26,1568,2578561,-5911,-15355,351,8,-1,-14
26,1569,2578566,-5899,-15342,453,5,-28,-12
26,1570,2578571,-5841,-15319,394,5,-55,-12
26,1571,2578576,-5849,-15301,280,5,-58,-15
26,1572,2578581,-5953,-15278,149,6,-44,-13
26,1573,2578586,-5981,-15323,24,9,-27,-12
26,1574,2578591,-5911,-15348,94,9,-7,-13
26,1575,2578596,-5743,-15315,328,7,12,-17
26,1576,2578601,-5760,-15339,539,10,19,-18
26,1577,2578606,-5781,-15383,468,13,8,-16
26,1578,2578611,-5748,-15379,401,10,-13,-16
26,1579,2578616,-5695,-15398,419,5,-29,-15
26,1580,2578621,-5796,-15379,375,5,-39,-13
26,1581,2578626,-5798,-15339,284,2,-48,-13
26,1582,2578631,-5848,-15364,112,4,-54,-11
26,1583,2578636,-5988,-15362,40,3,-45,-10
26,1584,2578641,-6024,-15375,-33,4,-33,-11
26,1585,2578646,-5916,-15356,10,4,-7,-11
26,1586,2578651,-5880,-15342,82,8,23,-15
26,1587,2578656,-5855,-15313,170,11,45,-14
26,1588,2578661,-5836,-15287,161,12,54,-10
26,1589,2578666,-5736,-15329,264,10,61,-12
26,1590,2578671,-5644,-15329,397,9,63,-14
26,1591,2578676,-5613,-15362,429,11,58,-11
26,1592,2578681,-5673,-15385,410,12,43,-11
26,1593,2578686,-5773,-15337,438,9,19,-10
26,1594,2578691,-5785,-15359,329,9,-8,-9
26,1595,2578696,-5760,-15329,203,9,-20,-8
26,1596,2578701,-5859,-15304,187,12,-13,-8
26,1597,2578706,-5994,-15287,66,12,-4,-9
26,1598,2578711,-6011,-15238,39,13,-1,-6
26,1599,2578716,-5936,-15280,23,14,6,-6
