event_id,seq,ts_ms,ax,ay,az,gx,gy,gz
15,0,971765,-2889,-15724,-3457,7,-4,-11
15,1,971770,-2772,-15742,-3460,7,0,-14
15,2,971775,-2736,-15783,-3406,7,-4,-14
15,3,971780,-2733,-15804,-3398,7,-8,-13
15,4,971785,-2778,-15811,-3394,7,-7,-12
15,5,971790,-2784,-15861,-3396,5,-7,-13
15,6,971795,-2736,-15859,-3376,6,-7,-14
15,7,971800,-2740,-15864,-3392,5,-11,-13
15,8,971805,-2774,-15869,-3348,4,-13,-15
15,9,971810,-2773,-15833,-3387,6,-14,-14
15,10,971815,-2830,-15842,-3427,4,-13,-15
15,11,971820,-2863,-15885,-3371,4,-7,-12
15,12,971825,-2823,-15866,-3388,4,-2,-11
15,13,971830,-2773,-15848,-3363,2,-2,-13
15,14,971835,-2773,-15848,-3393,0,-2,-11
15,15,971840,-2786,-15847,-3389,0,-5,-10
15,16,971845,-2826,-15824,-3407,2,-8,-13
15,17,971850,-2855,-15807,-3442,1,-9,-12
15,18,971855,-2894,-15810,-3429,2,-11,-10
15,19,971860,-2836,-15811,-3410,6,-13,-9
15,20,971865,-2824,-15816,-3412,-1,-10,-13
15,21,971870,-2778,-15825,-3433,-1,-4,-13
15,22,971875,-2740,-15790,-3428,0,-2,-12
15,23,971880,-2788,-15805,-3403,0,-2,-13
15,24,971885,-2769,-15818,-3360,-2,-3,-12
15,25,971890,-2771,-15793,-3366,-2,-8,-9
15,26,971895,-2783,-15788,-3361,-4,-8,-7
15,27,971900,-2817,-15777,-3349,-2,-11,-9
15,28,971905,-2836,-15772,-3374,-3,-16,-9
15,29,971910,-2868,-15766,-3444,-3,-20,-7
15,30,971915,-2838,-15804,-3424,-3,-19,-6
15,31,971920,-2829,-15821,-3420,-3,-14,-7
15,32,971925,-2822,-15840,-3454,-7,-8,-4
15,33,971930,-2832,-15822,-3459,-4,-7,-6
15,34,971935,-2853,-15805,-3436,-6,-7,-5
15,35,971940,-2851,-15823,-3424,-6,-4,-6
15,36,971945,-2828,-15818,-3413,-6,-2,-8
15,37,971950,-2817,-15816,-3370,-3,-2,-6
15,38,971955,-2796,-15815,-3382,-4,-6,-6
15,39,971960,-2816,-15834,-3392,-7,-11,-6
15,40,971965,-2844,-15799,-3413,-6,-15,-6
15,41,971970,-2844,-15753,-3412,-7,-12,-6
15,42,971975,-2833,-15755,-3468,-4,-8,-7
15,43,971980,-2873,-15758,-3396,-5,-4,-4
15,44,971985,-2879,-15747,-3406,-4,-4,-5
15,45,971990,-2841,-15778,-3477,-4,-2,-3
15,46,971995,-2831,-15753,-3479,-6,1,-3
15,47,972000,-2808,-15756,-3388,-8,2,-2
15,48,972005,-2802,-15763,-3357,-5,0,-1
15,49,972010,-2750,-15789,-3389,-6,-3,0
15,50,972015,-2724,-15831,-3381,-7,-7,-1
15,51,972020,-2737,-15815,-3398,-6,-10,1
15,52,972025,-2811,-15783,-3402,-5,-14,1
15,53,972030,-2860,-15768,-3395,-8,-18,0
15,54,972035,-2878,-15782,-3452,-7,-15,0
15,55,972040,-2869,-15819,-3480,-7,-13,0
15,56,972045,-2815,-15853,-3484,-7,-5,2
15,57,972050,-2837,-15818,-3430,-7,3,2
15,58,972055,-2887,-15821,-3431,-6,-1,0
15,59,972060,-2883,-15812,-3453,-7,-5,-3
15,60,972065,-2880,-15798,-3465,-6,-4,0
15,61,972070,-2848,-15782,-3473,-6,-3,1
15,62,972075,-2851,-15819,-3454,-4,-1,2
15,63,972080,-2882,-15816,-3452,-2,-5,1
15,64,972085,-2800,-15778,-3428,-5,-8,-1
15,65,972090,-2851,-15742,-3430,-5,-8,-1
15,66,972095,-2881,-15748,-3505,-2,-6,-2
15,67,972100,-2840,-15749,-3478,-2,-2,0
15,68,972105,-2756,-15759,-3432,-6,-1,1
15,69,972110,-2753,-15775,-3399,-4,0,3
15,70,972115,-2732,-15799,-3362,-5,1,0
15,71,972120,-2720,-15754,-3344,-5,-4,0
15,72,972125,-2795,-15765,-3360,-4,-7,-1
15,73,972130,-2817,-15758,-3448,-4,-10,0
15,74,972135,-2823,-15796,-3437,-2,-10,2
15,75,972140,-2791,-15791,-3420,-2,-7,2
15,76,972145,-2849,-15737,-3441,-3,-10,2
15,77,972150,-2899,-15737,-3467,-3,-8,0
15,78,972155,-2906,-15756,-3463,-3,-3,0
15,79,972160,-2878,-15743,-3450,-4,-3,0
15,80,972165,-2838,-15772,-3458,1,3,0
15,81,972170,-2786,-15781,-3403,1,7,1
15,82,972175,-2754,-15803,-3407,-2,6,0
15,83,972180,-2687,-15830,-3399,-1,6,1
15,84,972185,-2681,-15885,-3387,1,5,1
15,85,972190,-2703,-15840,-3359,0,-2,1
15,86,972195,-2765,-15814,-3362,0,-9,0
15,87,972200,-2790,-15829,-3375,3,-10,0
15,88,972205,-2774,-15849,-3390,2,-13,0
15,89,972210,-2780,-15876,-3411,0,-12,1
15,90,972215,-2799,-15855,-3453,1,-12,0
15,91,972220,-2842,-15848,-3452,1,-7,1
15,92,972225,-2823,-15864,-3429,3,-4,1
15,93,972230,-2792,-15875,-3462,4,1,0
15,94,972235,-2792,-15896,-3439,2,4,0
15,95,972240,-2743,-15887,-3401,4,10,3
15,96,972245,-2710,-15826,-3343,4,4,2
15,97,972250,-2739,-15836,-3367,2,-5,1
15,98,972255,-2796,-15809,-3384,4,-16,3
15,99,972260,-2836,-15789,-3435,6,-21,0
15,100,972265,-2829,-15817,-3486,3,-18,0
15,101,972270,-2867,-15767,-3460,4,-15,1
15,102,972275,-2853,-15726,-3438,4,-11,0
15,103,972280,-2922,-15722,-3440,5,-10,3
15,104,972285,-2913,-15718,-3503,3,-4,-1
15,105,972290,-2911,-15701,-3517,2,5,-3
15,106,972295,-2871,-15695,-3490,2,11,-2
15,107,972300,-2833,-15697,-3455,4,10,-1
15,108,972305,-2809,-15710,-3439,3,7,-4
15,109,972310,-2771,-15705,-3479,2,0,-5
15,110,972315,-2756,-15745,-3423,3,-6,-1
15,111,972320,-2746,-15717,-3409,6,-11,-1
15,112,972325,-2776,-15760,-3412,2,-17,-1
15,113,972330,-2822,-15764,-3407,4,-20,-2
15,114,972335,-2850,-15748,-3454,7,-23,-2
15,115,972340,-2863,-15828,-3512,4,-18,-4
15,116,972345,-2811,-15876,-3490,3,-13,-1
15,117,972350,-2773,-15873,-3465,0,-9,-1
15,118,972355,-2820,-15844,-3435,2,-10,-3
15,119,972360,-2874,-15860,-3457,5,-14,-3
15,120,972365,-2909,-15834,-3482,1,-14,-1
15,121,972370,-2938,-15808,-3406,0,-9,-2
15,122,972375,-2907,-15790,-3438,1,-7,-1
15,123,972380,-2872,-15816,-3471,2,-2,-6
15,124,972385,-2904,-15812,-3467,2,-3,-5
15,125,972390,-2905,-15819,-3490,2,-3,-6
15,126,972395,-2936,-15749,-3581,3,0,-7
15,127,972400,-2915,-15774,-3546,2,7,-7
15,128,972405,-2774,-15816,-3432,2,11,-6
15,129,972410,-2733,-15839,-3346,1,11,-4
15,130,972415,-2735,-15837,-3348,3,7,-5
15,131,972420,-2688,-15882,-3392,2,1,-7
15,132,972425,-2741,-15879,-3370,1,-6,-6
15,133,972430,-2744,-15885,-3394,-1,-11,-2
15,134,972435,-2721,-15890,-3429,0,-13,-2
15,135,972440,-2756,-15890,-3430,1,-15,-1
15,136,972445,-2802,-15880,-3425,0,-12,-1
15,137,972450,-2803,-15906,-3511,-3,-12,-1
15,138,972455,-2799,-15885,-3534,-3,-10,0
15,139,972460,-2859,-15851,-3482,-4,-5,1
15,140,972465,-2855,-15836,-3498,-1,0,0
15,141,972470,-2819,-15820,-3520,-3,3,-2
15,142,972475,-2794,-15815,-3475,-4,9,-3
15,143,972480,-2793,-15825,-3427,-4,6,-1
15,144,972485,-2755,-15836,-3499,-3,-1,1
15,145,972490,-2720,-15820,-3498,-2,-5,1
15,146,972495,-2726,-15857,-3534,-3,-12,1
15,147,972500,-2772,-15828,-3588,-2,-15,3
15,148,972505,-2840,-15739,-3712,0,-14,3
15,149,972510,-2775,-15794,-3737,2,-11,2
15,150,972515,-2723,-15834,-3718,5,-8,5
15,151,972520,-2711,-15826,-3697,0,-9,3
15,152,972525,-2703,-15822,-3671,2,-12,5
15,153,972530,-2751,-15800,-3629,1,-20,7
15,154,972535,-2780,-15815,-3644,2,-28,5
15,155,972540,-2849,-15754,-3640,5,-38,5
15,156,972545,-2847,-15767,-3622,7,-40,9
15,157,972550,-2806,-15777,-3600,7,-44,7
15,158,972555,-2858,-15725,-3547,6,-47,8
15,159,972560,-2882,-15714,-3591,9,-52,6
15,160,972565,-2864,-15645,-3613,9,-47,7
15,161,972570,-2827,-15679,-3547,8,-37,7
15,162,972575,-2836,-15693,-3449,11,-29,7
15,163,972580,-2818,-15651,-3370,11,-27,6
15,164,972585,-2803,-15670,-3320,10,-33,7
15,165,972590,-2729,-15701,-3262,8,-36,8
15,166,972595,-2670,-15742,-3176,9,-39,9
15,167,972600,-2596,-15744,-3127,8,-35,12
15,168,972605,-2639,-15709,-3042,8,-36,12
15,169,972610,-2758,-15800,-2966,9,-41,12
15,170,972615,-2792,-15865,-2935,6,-49,15
15,171,972620,-2784,-15853,-2984,5,-54,15
15,172,972625,-2808,-15902,-2979,3,-50,11
15,173,972630,-2883,-15889,-2897,1,-43,13
15,174,972635,-2880,-15906,-2934,-2,-37,14
15,175,972640,-2852,-15922,-2931,-6,-32,12
15,176,972645,-2861,-15933,-2944,-7,-27,12
15,177,972650,-2897,-15893,-2955,-10,-23,13
15,178,972655,-2940,-15832,-2967,-13,-23,11
15,179,972660,-2997,-15810,-3099,-14,-21,13
15,180,972665,-3027,-15802,-3181,-14,-18,14
15,181,972670,-3023,-15763,-3275,-14,-14,14
15,182,972675,-3055,-15718,-3316,-19,-5,12
15,183,972680,-3062,-15668,-3354,-21,-2,10
15,184,972685,-3076,-15663,-3459,-19,6,10
15,185,972690,-3069,-15640,-3480,-18,12,11
15,186,972695,-3051,-15625,-3518,-20,14,7
15,187,972700,-3066,-15618,-3557,-22,20,4
15,188,972705,-3093,-15602,-3634,-22,21,3
15,189,972710,-3155,-15636,-3659,-23,24,2
15,190,972715,-3112,-15688,-3724,-20,30,2
15,191,972720,-2987,-15723,-3705,-16,31,3
15,192,972725,-2906,-15695,-3683,-16,27,5
15,193,972730,-2907,-15729,-3724,-15,20,4
15,194,972735,-2943,-15717,-3815,-17,12,1
15,195,972740,-2994,-15738,-3863,-15,9,2
15,196,972745,-2980,-15779,-3918,-12,9,0
15,197,972750,-2926,-15779,-3883,-10,13,1
15,198,972755,-2932,-15829,-3920,-10,18,4
15,199,972760,-2909,-15876,-3908,-6,19,4
15,200,972765,-2907,-15839,-3842,-6,17,3
15,201,972770,-2952,-15837,-3811,-5,13,3
15,202,972775,-3023,-15830,-3828,-4,10,1
15,203,972780,-2993,-15818,-3775,-3,11,2
15,204,972785,-3013,-15815,-3739,-2,15,3
15,205,972790,-2998,-15818,-3703,1,7,2
15,206,972795,-2998,-15806,-3616,2,-1,0
15,207,972800,-3038,-15793,-3602,4,-6,2
15,208,972805,-3058,-15708,-3640,4,-9,0
15,209,972810,-3034,-15745,-3608,1,-6,0
15,210,972815,-3014,-15780,-3526,1,-4,0
15,211,972820,-2990,-15710,-3476,2,-3,0
15,212,972825,-2951,-15717,-3457,1,-1,-1
15,213,972830,-2937,-15709,-3394,2,1,-5
15,214,972835,-2986,-15706,-3340,0,3,-2
15,215,972840,-2891,-15753,-3309,0,6,-4
15,216,972845,-2849,-15740,-3289,-3,3,-5
15,217,972850,-2904,-15675,-3251,-6,1,-4
15,218,972855,-2959,-15657,-3251,-5,-2,-5
15,219,972860,-2955,-15693,-3257,-6,-8,-3
15,220,972865,-2866,-15723,-3300,-8,-5,-2
15,221,972870,-2781,-15789,-3237,-12,-3,-1
15,222,972875,-2812,-15770,-3301,-15,-5,-3
15,223,972880,-2882,-15742,-3310,-14,-7,-2
15,224,972885,-2912,-15754,-3312,-12,-7,-2
15,225,972890,-2891,-15751,-3337,-12,-3,-1
15,226,972895,-2901,-15786,-3361,-13,2,-3
15,227,972900,-2845,-15810,-3383,-18,3,-5
15,228,972905,-2744,-15853,-3372,-16,6,-3
15,229,972910,-2683,-15847,-3365,-17,6,-4
15,230,972915,-2670,-15833,-3329,-20,4,-4
15,231,972920,-2720,-15847,-3309,-19,1,0
15,232,972925,-2669,-15915,-3344,-20,-3,3
15,233,972930,-2663,-15892,-3310,-22,-8,2
15,234,972935,-2661,-15884,-3312,-20,-16,1
15,235,972940,-2707,-15859,-3403,-23,-25,2
15,236,972945,-2742,-15837,-3481,-21,-25,4
15,237,972950,-2748,-15821,-3497,-22,-17,3
15,238,972955,-2744,-15831,-3437,-22,-13,3
15,239,972960,-2762,-15795,-3401,-18,-10,3
15,240,972965,-2798,-15756,-3405,-21,-13,2
15,241,972970,-2861,-15771,-3419,-23,-19,3
15,242,972975,-2851,-15746,-3474,-24,-25,4
15,243,972980,-2834,-15757,-3470,-25,-24,5
15,244,972985,-2779,-15778,-3484,-23,-18,5
15,245,972990,-2782,-15785,-3460,-21,-16,5
15,246,972995,-2853,-15755,-3478,-22,-18,0
15,247,973000,-2900,-15796,-3513,-23,-17,-2
15,248,973005,-2916,-15782,-3548,-21,-11,-2
15,249,973010,-2890,-15762,-3500,-19,0,-2
15,250,973015,-2892,-15750,-3492,-21,2,-3
15,251,973020,-2942,-15721,-3501,-19,2,-3
15,252,973025,-2920,-15734,-3546,-18,-1,-6
15,253,973030,-2967,-15730,-3553,-17,1,-3
15,254,973035,-2892,-15759,-3545,-15,7,-3
15,255,973040,-2835,-15756,-3566,-14,11,-3
15,256,973045,-2877,-15730,-3534,-15,7,-4
15,257,973050,-2891,-15696,-3531,-16,0,-9
15,258,973055,-2937,-15710,-3615,-14,-7,-11
15,259,973060,-2951,-15689,-3657,-14,-4,-9
15,260,973065,-2942,-15722,-3614,-13,2,-10
15,261,973070,-2870,-15741,-3612,-10,1,-11
15,262,973075,-2850,-15743,-3589,-9,-2,-11
15,263,973080,-2847,-15774,-3584,-10,-6,-13
15,264,973085,-2895,-15745,-3624,-10,-6,-14
15,265,973090,-2925,-15692,-3637,-8,0,-13
15,266,973095,-2901,-15721,-3603,-7,2,-14
15,267,973100,-2863,-15748,-3620,-7,8,-17
15,268,973105,-2789,-15716,-3607,-5,8,-14
15,269,973110,-2756,-15726,-3566,-6,10,-16
15,270,973115,-2793,-15675,-3542,-6,5,-17
15,271,973120,-2821,-15718,-3569,-4,-1,-17
15,272,973125,-2806,-15714,-3510,-3,-6,-16
15,273,973130,-2748,-15715,-3498,0,-12,-15
15,274,973135,-2729,-15732,-3546,-1,-19,-14
15,275,973140,-2748,-15770,-3549,-1,-20,-14
15,276,973145,-2813,-15757,-3538,-1,-21,-14
15,277,973150,-2872,-15729,-3504,-2,-22,-14
15,278,973155,-2928,-15715,-3601,2,-19,-14
15,279,973160,-2927,-15730,-3612,2,-14,-13
15,280,973165,-2914,-15682,-3606,3,-8,-13
15,281,973170,-2909,-15683,-3540,5,0,-11
15,282,973175,-2847,-15643,-3559,5,5,-14
15,283,973180,-2831,-15661,-3546,4,6,-14
15,284,973185,-2835,-15674,-3570,5,5,-12
15,285,973190,-2856,-15698,-3581,3,3,-15
15,286,973195,-2821,-15719,-3542,4,0,-13
15,287,973200,-2790,-15669,-3479,4,-3,-10
15,288,973205,-2797,-15717,-3476,6,-8,-11
15,289,973210,-2860,-15766,-3503,7,-11,-8
15,290,973215,-2888,-15809,-3517,6,-8,-9
15,291,973220,-2928,-15809,-3446,7,-5,-8
15,292,973225,-3026,-15851,-3452,7,-11,-6
15,293,973230,-3014,-15877,-3530,9,-14,-5
15,294,973235,-3058,-15967,-3527,9,1,-4
15,295,973240,-3054,-15994,-3508,9,3,-3
15,296,973245,-3129,-15979,-3478,10,4,-3
15,297,973250,-3237,-15983,-3454,12,2,-2
15,298,973255,-3218,-15993,-3538,10,4,-3
15,299,973260,-3219,-16019,-3579,13,9,-1
15,300,973265,-3140,-16011,-3533,14,12,0
15,301,973270,-3064,-16003,-3506,11,17,4
15,302,973275,-3058,-15943,-3610,10,17,9
15,303,973280,-3281,-15927,-3566,9,21,10
15,304,973285,-3377,-15832,-3721,11,22,10
15,305,973290,-3208,-15740,-3798,17,33,14
15,306,973295,-3165,-15728,-3660,18,44,17
15,307,973300,-3168,-15626,-3532,16,38,19
15,308,973305,-3270,-15588,-3583,17,27,24
15,309,973310,-3340,-15628,-3749,22,18,27
15,310,973315,-3424,-15534,-3660,21,17,31
15,311,973320,-3407,-15467,-3605,23,16,34
15,312,973325,-3406,-15458,-3569,27,10,37
15,313,973330,-3395,-15468,-3606,28,12,38
15,314,973335,-3339,-15450,-3589,29,23,48
15,315,973340,-3289,-15459,-3500,32,37,51
15,316,973345,-3276,-15470,-3465,33,47,52
15,317,973350,-3371,-15478,-3353,36,53,53
15,318,973355,-3401,-15614,-3271,38,47,57
15,319,973360,-3423,-15733,-3196,38,39,69
15,320,973365,-3384,-15778,-3231,39,39,73
15,321,973370,-3438,-15671,-3144,37,38,74
15,322,973375,-3615,-15634,-3142,39,37,80
15,323,973380,-3711,-15607,-3201,40,43,83
15,324,973385,-3729,-15640,-3280,45,57,89
15,325,973390,-3766,-15658,-3227,47,79,95
15,326,973395,-3794,-15680,-3130,48,90,97
15,327,973400,-3822,-15696,-3027,47,93,100
15,328,973405,-3801,-15698,-3089,50,92,106
15,329,973410,-3796,-15675,-3184,51,98,111
15,330,973415,-3742,-15691,-3201,52,112,115
15,331,973420,-3687,-15691,-3198,54,134,119
15,332,973425,-3678,-15664,-3214,57,147,126
15,333,973430,-3631,-15639,-3171,56,148,132
15,334,973435,-3649,-15598,-3108,57,140,137
15,335,973440,-3688,-15513,-3118,58,132,143
15,336,973445,-3809,-15444,-3238,59,131,149
15,337,973450,-3955,-15433,-3370,60,133,152
15,338,973455,-4068,-15393,-3411,60,139,156
15,339,973460,-4065,-15432,-3372,61,141,162
15,340,973465,-4027,-15423,-3390,64,146,169
15,341,973470,-4046,-15396,-3406,62,155,174
15,342,973475,-4055,-15389,-3351,65,168,177
15,343,973480,-4179,-15398,-3380,64,184,182
15,344,973485,-4358,-15358,-3341,69,190,184
15,345,973490,-4418,-15380,-3364,68,193,186
15,346,973495,-4380,-15363,-3343,70,203,191
15,347,973500,-4311,-15425,-3309,72,215,193
15,348,973505,-4382,-15472,-3360,73,233,194
15,349,973510,-4531,-15482,-3454,75,249,195
15,350,973515,-4546,-15551,-3438,72,269,198
15,351,973520,-4415,-15577,-3305,74,291,205
15,352,973525,-4350,-15654,-3387,76,311,205
15,353,973530,-4446,-15636,-3300,78,331,205
15,354,973535,-4583,-15734,-3152,80,345,206
15,355,973540,-4532,-15743,-3098,79,350,208
15,356,973545,-4274,-15838,-3227,83,355,216
15,357,973550,-4221,-15929,-3105,81,368,214
15,358,973555,-4199,-15886,-2960,78,370,212
15,359,973560,-4216,-15862,-3055,78,371,219
15,360,973565,-4163,-15846,-3194,79,378,225
15,361,973570,-4279,-15799,-3072,77,396,224
15,362,973575,-4290,-15770,-3105,82,400,227
15,363,973580,-4200,-15763,-3297,85,393,235
15,364,973585,-4148,-15676,-3181,82,411,233
15,365,973590,-4145,-15667,-3300,80,429,237
15,366,973595,-4056,-15596,-3332,81,452,238
15,367,973600,-4041,-15603,-3111,84,473,246
15,368,973605,-3937,-15615,-3273,82,468,247
15,369,973610,-3863,-15589,-3206,80,475,252
15,370,973615,-3880,-15578,-2979,82,479,255
15,371,973620,-3943,-15559,-3019,80,469,257
15,372,973625,-3987,-15602,-3210,83,454,265
15,373,973630,-4054,-15612,-3246,85,450,271
15,374,973635,-3981,-15623,-3169,82,454,273
15,375,973640,-3915,-15663,-3206,81,466,275
15,376,973645,-3986,-15578,-3248,84,477,274
15,377,973650,-4103,-15532,-3268,86,475,275
15,378,973655,-4060,-15585,-3320,86,471,279
15,379,973660,-3968,-15639,-3341,86,476,283
15,380,973665,-3956,-15611,-3230,86,482,283
15,381,973670,-3987,-15645,-3215,89,477,286
15,382,973675,-3972,-15640,-3353,89,467,291
15,383,973680,-3966,-15635,-3344,90,463,294
15,384,973685,-3950,-15608,-3332,91,462,292
15,385,973690,-4001,-15599,-3437,95,465,293
15,386,973695,-4066,-15630,-3515,97,478,293
15,387,973700,-4091,-15648,-3399,96,488,295
15,388,973705,-4101,-15714,-3260,98,489,296
15,389,973710,-4108,-15701,-3312,100,494,297
15,390,973715,-4235,-15728,-3409,102,488,300
15,391,973720,-4255,-15763,-3397,106,483,301
15,392,973725,-4182,-15766,-3363,104,490,301
15,393,973730,-4076,-15797,-3395,108,493,302
15,394,973735,-4060,-15801,-3528,111,499,299
15,395,973740,-4110,-15776,-3536,111,512,297
15,396,973745,-4082,-15797,-3601,115,519,297
15,397,973750,-3992,-15810,-3665,119,528,298
15,398,973755,-3962,-15768,-3726,119,546,299
15,399,973760,-3931,-15742,-3649,122,558,301
15,400,973765,-3916,-15734,-3576,125,565,297
15,401,973770,-3863,-15757,-3600,128,562,298
15,402,973775,-3688,-15815,-3561,129,552,301
15,403,973780,-3620,-15826,-3504,132,546,304
15,404,973785,-3609,-15893,-3507,134,533,306
15,405,973790,-3676,-15902,-3520,137,520,309
15,406,973795,-3699,-15930,-3600,136,513,310
15,407,973800,-3735,-15926,-3595,140,507,311
15,408,973805,-3721,-15818,-3493,144,506,315
15,409,973810,-3840,-15761,-3480,145,508,316
15,410,973815,-3903,-15765,-3506,148,507,317
15,411,973820,-3969,-15739,-3530,148,509,315
15,412,973825,-3909,-15713,-3497,152,513,316
15,413,973830,-3866,-15744,-3467,154,516,318
15,414,973835,-3834,-15732,-3441,154,508,319
15,415,973840,-3785,-15693,-3374,150,497,321
15,416,973845,-3701,-15678,-3286,156,484,325
15,417,973850,-3668,-15675,-3398,157,464,324
15,418,973855,-3662,-15603,-3498,157,449,327
15,419,973860,-3748,-15567,-3474,158,440,330
15,420,973865,-3865,-15488,-3500,158,431,332
15,421,973870,-3927,-15420,-3611,159,423,330
15,422,973875,-4098,-15413,-3653,160,424,331
15,423,973880,-4055,-15385,-3570,162,426,333
15,424,973885,-3908,-15340,-3598,162,424,333
15,425,973890,-3919,-15313,-3602,162,423,329
15,426,973895,-4003,-15198,-3646,161,421,327
15,427,973900,-3932,-15179,-3731,161,422,325
15,428,973905,-3824,-15146,-3690,162,435,327
15,429,973910,-3777,-15113,-3633,162,444,327
15,430,973915,-3818,-15073,-3559,162,439,327
15,431,973920,-3855,-15063,-3504,163,417,329
15,432,973925,-3807,-15155,-3446,162,394,331
15,433,973930,-3804,-15166,-3374,159,369,332
15,434,973935,-3741,-15171,-3377,159,355,334
15,435,973940,-3814,-15242,-3379,156,341,336
15,436,973945,-3931,-15250,-3389,156,329,336
15,437,973950,-3922,-15263,-3363,156,321,337
15,438,973955,-4018,-15294,-3335,149,322,335
15,439,973960,-4069,-15280,-3325,145,325,334
15,440,973965,-4092,-15321,-3341,148,319,333
15,441,973970,-3898,-15354,-3218,142,309,330
15,442,973975,-3891,-15347,-3110,139,296,331
15,443,973980,-3891,-15341,-3239,137,276,330
15,444,973985,-3949,-15351,-3307,135,264,331
15,445,973990,-4124,-15347,-3293,131,251,331
15,446,973995,-4171,-15363,-3289,128,239,330
15,447,974000,-4245,-15389,-3334,129,234,332
15,448,974005,-4172,-15410,-3408,125,239,327
15,449,974010,-4166,-15466,-3485,123,251,325
15,450,974015,-4199,-15448,-3452,120,266,319
15,451,974020,-4307,-15342,-3418,117,280,316
15,452,974025,-4375,-15266,-3329,116,294,308
15,453,974030,-4381,-15322,-3340,117,308,305
15,454,974035,-4308,-15312,-3299,115,324,303
15,455,974040,-4255,-15258,-3200,113,325,300
15,456,974045,-4228,-15251,-3143,116,311,298
15,457,974050,-4138,-15276,-3141,115,295,295
15,458,974055,-4152,-15300,-3212,112,275,292
15,459,974060,-4188,-15351,-3372,110,269,288
15,460,974065,-4132,-15345,-3367,106,276,280
15,461,974070,-4215,-15379,-3290,108,277,278
15,462,974075,-4278,-15448,-3339,105,268,275
15,463,974080,-4223,-15444,-3398,102,266,271
15,464,974085,-4121,-15563,-3342,96,268,269
15,465,974090,-4137,-15572,-3271,95,267,261
15,466,974095,-4216,-15564,-3275,95,259,258
15,467,974100,-4242,-15570,-3316,94,248,256
15,468,974105,-4182,-15563,-3417,94,236,250
15,469,974110,-4261,-15584,-3377,93,232,243
15,470,974115,-4361,-15554,-3311,88,227,238
15,471,974120,-4424,-15622,-3333,86,217,233
15,472,974125,-4414,-15680,-3427,85,213,227
15,473,974130,-4419,-15687,-3327,83,207,223
15,474,974135,-4492,-15699,-3358,81,200,215
15,475,974140,-4515,-15699,-3441,81,189,211
15,476,974145,-4441,-15654,-3420,76,191,204
15,477,974150,-4405,-15631,-3360,76,196,193
15,478,974155,-4396,-15639,-3313,77,192,189
15,479,974160,-4406,-15632,-3303,71,187,183
15,480,974165,-4333,-15568,-3268,68,180,173
15,481,974170,-4304,-15514,-3275,63,169,167
15,482,974175,-4336,-15459,-3340,58,163,164
15,483,974180,-4368,-15362,-3292,57,158,153
15,484,974185,-4432,-15316,-3288,55,155,146
15,485,974190,-4415,-15282,-3252,49,149,142
15,486,974195,-4374,-15228,-3305,48,143,134
15,487,974200,-4346,-15249,-3274,48,140,125
15,488,974205,-4302,-15198,-3227,42,135,119
15,489,974210,-4261,-15229,-3268,37,128,109
15,490,974215,-4208,-15219,-3256,35,117,102
15,491,974220,-4069,-15226,-3307,32,110,101
15,492,974225,-3913,-15276,-3265,28,103,98
15,493,974230,-3883,-15248,-3239,23,91,89
15,494,974235,-3971,-15167,-3243,22,77,83
15,495,974240,-4067,-15129,-3337,19,58,76
15,496,974245,-4106,-15141,-3464,16,48,73
15,497,974250,-4084,-15160,-3436,14,47,64
15,498,974255,-4044,-15196,-3470,8,39,58
15,499,974260,-4061,-15216,-3526,6,33,52
15,500,974265,-4249,-15230,-3484,3,23,45
15,501,974270,-4301,-15204,-3565,-3,10,32
15,502,974275,-4289,-15187,-3624,-4,9,26
15,503,974280,-4305,-15215,-3633,-3,13,19
15,504,974285,-4264,-15282,-3654,-5,23,8
15,505,974290,-4145,-15382,-3562,-7,28,0
15,506,974295,-3904,-15479,-3499,-10,26,-5
15,507,974300,-3833,-15586,-3499,-10,20,-17
15,508,974305,-3810,-15610,-3507,-11,9,-24
15,509,974310,-3808,-15618,-3386,-15,-5,-29
15,510,974315,-3765,-15682,-3361,-17,-22,-33
15,511,974320,-3795,-15655,-3310,-18,-45,-42
15,512,974325,-3911,-15667,-3297,-18,-69,-43
15,513,974330,-3931,-15754,-3311,-22,-89,-48
15,514,974335,-3971,-15797,-3233,-33,-130,-62
15,515,974340,-3881,-15785,-3107,-42,-148,-68
15,516,974345,-3823,-15775,-3058,-48,-165,-74
15,517,974350,-3804,-15711,-3066,-53,-181,-81
15,518,974355,-3779,-15679,-3221,-58,-195,-86
15,519,974360,-3608,-15673,-3351,-64,-202,-93
15,520,974365,-3462,-15576,-3277,-79,-201,-103
15,521,974370,-3381,-15754,-3578,-106,-215,-111
15,522,974375,-3322,-15741,-3524,-100,-206,-128
15,523,974380,-3355,-15476,-3531,-93,-198,-138
15,524,974385,-3301,-15375,-3435,-92,-193,-144
15,525,974390,-3176,-15059,-3394,-86,-200,-155
15,526,974395,-3253,-14851,-3420,-87,-226,-167
15,527,974400,-3431,-14588,-3555,-86,-262,-180
15,528,974405,-3456,-14466,-3651,-81,-303,-184
15,529,974410,-3383,-14386,-3589,-80,-330,-195
15,530,974415,-3314,-14237,-3475,-79,-343,-216
15,531,974420,-3649,-14292,-3540,-76,-366,-228
15,532,974425,-3812,-14243,-3614,-77,-398,-242
15,533,974430,-3798,-14423,-3639,-80,-415,-248
15,534,974435,-3897,-14667,-3378,-79,-431,-261
15,535,974440,-3824,-14606,-3372,-82,-451,-281
15,536,974445,-3787,-14806,-3222,-78,-442,-292
15,537,974450,-3713,-14934,-3156,-78,-426,-316
15,538,974455,-3661,-15083,-2900,-78,-423,-341
15,539,974460,-3727,-15305,-2804,-81,-433,-360
15,540,974465,-3755,-15534,-2760,-85,-444,-373
15,541,974470,-3719,-15823,-2493,-90,-451,-387
15,542,974475,-3617,-16173,-2230,-96,-471,-405
15,543,974480,-3463,-16597,-2172,-99,-508,-421
15,544,974485,-3377,-17050,-2178,-107,-541,-437
15,545,974490,-3194,-17390,-2278,-121,-573,-453
15,546,974495,-3122,-17796,-2168,-131,-596,-468
15,547,974500,-3789,-18490,-2126,-143,-620,-479
15,548,974505,-3628,-19078,-3216,-152,-632,-498
15,549,974510,-3418,-18949,-3920,-161,-579,-531
15,550,974515,-3517,-19024,-3881,-181,-497,-546
15,551,974520,-3451,-18948,-4235,-196,-440,-568
15,552,974525,-3067,-18691,-4889,-201,-364,-594
15,553,974530,-2739,-18527,-5129,-208,-260,-612
15,554,974535,-2261,-18185,-4994,-216,-159,-639
15,555,974540,-1998,-17722,-4726,-222,-101,-662
15,556,974545,-1929,-17271,-4512,-225,-101,-679
15,557,974550,-1830,-16881,-4291,-227,-146,-691
15,558,974555,-1716,-16445,-4239,-235,-223,-705
15,559,974560,-1760,-16167,-4131,-243,-305,-710
15,560,974565,-1788,-15864,-4148,-250,-381,-722
15,561,974570,-1850,-15428,-4066,-265,-439,-744
15,562,974575,-1892,-15013,-4139,-284,-492,-758
15,563,974580,-1981,-14730,-4174,-293,-522,-772
15,564,974585,-2327,-14505,-4138,-298,-534,-786
15,565,974590,-2479,-14510,-4409,-308,-550,-803
15,566,974595,-2435,-14276,-4172,-313,-542,-837
15,567,974600,-2118,-14219,-3867,-321,-542,-850
15,568,974605,-1625,-14449,-3701,-332,-553,-860
15,569,974610,-1739,-14458,-3481,-340,-572,-891
15,570,974615,-1838,-14772,-3553,-344,-603,-902
15,571,974620,-2009,-14867,-3626,-359,-621,-916
15,572,974625,-1985,-15050,-3525,-376,-640,-924
15,573,974630,-1705,-15383,-3092,-388,-643,-941
15,574,974635,-1604,-15587,-3149,-394,-652,-959
15,575,974640,-1292,-15944,-3562,-407,-652,-971
15,576,974645,-1246,-15952,-3321,-417,-632,-992
15,577,974650,-1170,-16384,-3070,-434,-643,-991
15,578,974655,-979,-16496,-2934,-446,-663,-1009
15,579,974660,-710,-16851,-3221,-452,-674,-1017
15,580,974665,-801,-16754,-3154,-455,-657,-1051
15,581,974670,-1202,-16731,-3121,-455,-668,-1070
15,582,974675,-1223,-16609,-3165,-451,-699,-1091
15,583,974680,-1404,-16561,-3159,-456,-729,-1086
15,584,974685,-1662,-16664,-3039,-477,-752,-1080
15,585,974690,-1962,-16664,-3441,-488,-785,-1082
15,586,974695,-1929,-16458,-3660,-497,-785,-1093
15,587,974700,-2348,-16523,-4373,-478,-679,-1130
15,588,974705,-2537,-16323,-4345,-473,-581,-1146
15,589,974710,-2641,-16517,-4185,-474,-536,-1149
15,590,974715,-2430,-16360,-3791,-466,-515,-1181
15,591,974720,-2044,-16340,-3984,-457,-497,-1189
15,592,974725,-2266,-16330,-3566,-446,-451,-1200
15,593,974730,-2843,-16439,-2981,-432,-451,-1214
15,594,974735,-3212,-16613,-3036,-430,-510,-1216
15,595,974740,-3133,-16768,-3310,-434,-561,-1215
15,596,974745,-3140,-16912,-3358,-434,-565,-1219
15,597,974750,-3136,-17019,-3168,-426,-530,-1227
15,598,974755,-3049,-17037,-3298,-412,-499,-1233
15,599,974760,2657,-19157,-3992,-389,-472,-1242
15,600,974765,-6036,-15572,11865,-463,-802,-1237
15,601,974770,-20620,-1550,5838,-349,-1817,-979
15,602,974775,8941,-18864,-32768,94,-4601,266
15,603,974780,12858,-25770,-25841,-176,-776,-70
15,604,974785,-9153,-17699,16055,-452,4078,-1304
15,605,974790,-13522,-13541,15021,-224,1094,-1266
15,606,974795,-3250,-13961,-9864,-159,-1903,-844
15,607,974800,534,-15460,-12218,-192,-799,-790
15,608,974805,532,-15429,-5132,-175,275,-872
15,609,974810,-879,-16074,3505,-120,336,-891
15,610,974815,-3105,-15523,-2142,-126,-625,-902
15,611,974820,-2921,-15420,-8553,-120,-1090,-853
15,612,974825,-3078,-14834,-7934,-127,-581,-826
15,613,974830,-2605,-14995,-3499,-88,52,-787
15,614,974835,-1917,-15114,-1452,-56,66,-787
15,615,974840,-1770,-15160,-3545,-47,-247,-797
15,616,974845,-2192,-14850,-4460,-44,-345,-798
15,617,974850,-2131,-14691,-4346,-32,-267,-765
15,618,974855,-1687,-14878,-3326,-14,-196,-727
15,619,974860,-1222,-14965,-3617,-5,-267,-709
15,620,974865,-1598,-14980,-4368,7,-309,-696
15,621,974870,-2274,-15011,-4289,18,-264,-681
15,622,974875,-2243,-15039,-4472,24,-253,-643
15,623,974880,-1673,-15136,-4249,35,-248,-604
15,624,974885,-1025,-15188,-4272,44,-248,-582
15,625,974890,-947,-15266,-3915,53,-222,-563
15,626,974895,-1254,-15211,-3666,65,-228,-544
15,627,974900,-1482,-15221,-3969,73,-290,-520
15,628,974905,-1566,-15324,-3930,80,-341,-494
15,629,974910,-1479,-15403,-3775,81,-363,-460
15,630,974915,-1232,-15467,-3825,88,-370,-433
15,631,974920,-1221,-15507,-3983,97,-384,-415
15,632,974925,-1512,-15526,-4193,103,-406,-397
15,633,974930,-1825,-15504,-4432,111,-414,-375
15,634,974935,-1713,-15586,-4564,118,-384,-351
15,635,974940,-1573,-15617,-4422,127,-332,-329
15,636,974945,-1637,-15731,-4353,137,-292,-316
15,637,974950,-1644,-15893,-4678,143,-270,-300
15,638,974955,-1386,-15997,-4821,143,-244,-275
15,639,974960,-1085,-16079,-4417,148,-202,-248
15,640,974965,-827,-16108,-4119,155,-180,-230
15,641,974970,-710,-16079,-4075,163,-181,-207
15,642,974975,-798,-16081,-4128,170,-188,-187
15,643,974980,-907,-16097,-3960,175,-208,-169
15,644,974985,-847,-16061,-3911,178,-230,-152
15,645,974990,-791,-16056,-4228,179,-239,-132
15,646,974995,-902,-16002,-4335,181,-222,-117
15,647,975000,-1070,-16030,-4107,184,-209,-103
15,648,975005,-968,-15966,-4072,184,-220,-81
15,649,975010,-851,-15921,-4130,186,-228,-65
15,650,975015,-848,-15818,-4366,186,-217,-50
15,651,975020,-954,-15811,-4420,188,-192,-35
15,652,975025,-931,-15690,-4364,193,-170,-28
15,653,975030,-885,-15623,-4314,197,-147,-9
15,654,975035,-912,-15707,-4253,194,-134,6
15,655,975040,-951,-15630,-4276,194,-139,8
15,656,975045,-1051,-15655,-4460,195,-140,18
15,657,975050,-1093,-15646,-4511,193,-118,29
15,658,975055,-952,-15788,-4546,192,-84,39
15,659,975060,-722,-15960,-4436,191,-49,53
15,660,975065,-308,-15832,-3686,189,-34,69
15,661,975070,-514,-15741,-3634,187,-79,78
15,662,975075,-683,-15640,-3869,185,-132,88
15,663,975080,-694,-15591,-3943,182,-153,102
15,664,975085,-640,-15571,-3719,179,-163,112
15,665,975090,-733,-15611,-3679,177,-186,115
15,666,975095,-845,-15572,-3972,173,-198,119
15,667,975100,-1089,-15610,-4139,167,-183,120
15,668,975105,-1112,-15666,-4122,163,-157,126
15,669,975110,-974,-15869,-4039,154,-126,134
15,670,975115,-803,-16003,-3879,147,-101,124
15,671,975120,-816,-15873,-3661,143,-77,120
15,672,975125,-1034,-16071,-3673,137,-70,131
15,673,975130,-1217,-16094,-3818,130,-73,131
15,674,975135,-1125,-16127,-3819,122,-59,128
15,675,975140,-1058,-16222,-3616,112,-33,130
15,676,975145,-894,-16243,-3562,111,-18,133
15,677,975150,-809,-16363,-3558,107,-17,126
15,678,975155,-809,-16303,-3545,98,-11,120
15,679,975160,-866,-16313,-3560,89,-7,127
15,680,975165,-786,-16287,-3417,80,0,131
15,681,975170,-679,-16260,-3373,70,0,132
15,682,975175,-678,-16277,-3418,61,-9,133
15,683,975180,-786,-16273,-3431,54,-12,130
15,684,975185,-607,-16193,-3547,41,-13,125
15,685,975190,-532,-16103,-3448,29,-19,123
15,686,975195,-747,-16134,-3348,17,-30,126
15,687,975200,-827,-16060,-3542,8,-47,123
15,688,975205,-978,-15949,-3763,1,-49,118
15,689,975210,-962,-15941,-3869,-10,-36,116
15,690,975215,-789,-15828,-3799,-16,-15,116
15,691,975220,-845,-15947,-3911,-23,-2,120
15,692,975225,-854,-15860,-3930,-32,3,103
15,693,975230,-913,-15745,-3901,-37,8,99
15,694,975235,-1081,-15976,-3929,-44,4,108
15,695,975240,-1033,-15815,-3991,-51,-4,95
15,696,975245,-922,-15867,-4077,-55,6,93
15,697,975250,-901,-15959,-4076,-59,21,89
15,698,975255,-782,-15874,-3984,-67,20,82
15,699,975260,-660,-15967,-4006,-73,16,87
15,700,975265,-596,-15937,-3931,-76,7,81
15,701,975270,-622,-15994,-3892,-78,3,79
15,702,975275,-698,-16013,-3873,-83,-11,73
15,703,975280,-719,-16008,-3890,-85,-32,70
15,704,975285,-709,-16051,-3929,-91,-48,70
15,705,975290,-730,-16156,-4086,-95,-55,64
15,706,975295,-698,-16256,-4132,-99,-44,60
15,707,975300,-763,-16287,-4069,-107,-24,52
15,708,975305,-824,-16330,-4057,-111,-22,48
15,709,975310,-925,-16347,-4180,-118,-15,42
15,710,975315,-912,-16394,-4400,-123,13,36
15,711,975320,-850,-16386,-4295,-124,55,30
15,712,975325,-709,-16357,-4155,-123,94,29
15,713,975330,-517,-16375,-4203,-128,115,27
15,714,975335,-496,-16372,-4187,-133,129,15
15,715,975340,-576,-16275,-3970,-136,125,8
15,716,975345,-339,-16254,-4012,-135,103,7
15,717,975350,-86,-16263,-3941,-135,91,12
15,718,975355,-106,-16220,-3858,-136,71,9
15,719,975360,-303,-16110,-3883,-135,33,6
15,720,975365,-471,-16043,-4068,-137,-9,4
15,721,975370,-549,-15949,-4214,-142,-25,6
15,722,975375,-522,-15947,-4242,-141,-21,5
15,723,975380,-553,-15929,-4161,-141,-16,-1
15,724,975385,-585,-15849,-4138,-144,-14,-5
15,725,975390,-662,-15782,-4159,-142,-9,-13
15,726,975395,-735,-15791,-4240,-143,-5,-18
15,727,975400,-668,-15719,-4332,-141,6,-23
15,728,975405,-514,-15811,-4294,-141,29,-23
15,729,975410,-467,-15904,-4126,-136,46,-27
15,730,975415,-480,-15942,-4130,-135,42,-31
15,731,975420,-444,-15974,-4283,-138,45,-35
15,732,975425,-444,-15980,-4326,-140,64,-39
15,733,975430,-362,-15887,-4167,-140,94,-42
15,734,975435,-136,-16022,-4002,-138,129,-46
15,735,975440,-111,-16006,-3848,-136,124,-48
15,736,975445,-184,-15974,-3867,-139,104,-49
15,737,975450,-234,-15974,-3904,-137,79,-49
15,738,975455,-265,-15947,-4018,-135,64,-51
15,739,975460,-291,-15970,-4147,-133,58,-49
15,740,975465,-250,-15981,-4125,-132,55,-52
15,741,975470,-272,-15979,-4088,-132,49,-56
15,742,975475,-283,-15948,-4169,-128,46,-55
15,743,975480,-280,-15949,-4253,-129,55,-56
15,744,975485,-436,-15895,-4082,-131,63,-58
15,745,975490,-408,-15786,-4137,-128,56,-55
15,746,975495,-101,-15792,-4486,-126,55,-57
15,747,975500,-187,-15728,-4228,-124,67,-65
15,748,975505,-298,-15677,-3969,-121,46,-69
15,749,975510,-181,-15704,-4275,-116,11,-61
15,750,975515,-104,-15656,-4435,-112,16,-61
15,751,975520,-262,-15668,-4311,-105,29,-67
15,752,975525,-338,-15605,-4396,-104,15,-67
15,753,975530,-223,-15606,-4496,-103,13,-68
15,754,975535,-170,-15613,-4414,-101,29,-66
15,755,975540,-161,-15590,-4268,-98,43,-66
15,756,975545,-183,-15560,-4176,-95,44,-69
15,757,975550,-222,-15578,-4276,-91,23,-70
15,758,975555,-217,-15589,-4334,-89,15,-67
15,759,975560,-255,-15567,-4298,-85,12,-66
15,760,975565,-208,-15620,-4277,-85,3,-64
15,761,975570,-192,-15620,-4316,-79,-2,-63
15,762,975575,-93,-15658,-4433,-79,1,-62
15,763,975580,-77,-15671,-4363,-74,8,-63
15,764,975585,-155,-15681,-4313,-70,13,-67
15,765,975590,-174,-15707,-4337,-65,8,-63
15,766,975595,-104,-15729,-4324,-58,5,-59
15,767,975600,-25,-15750,-4193,-57,4,-58
15,768,975605,-96,-15727,-4142,-55,-3,-58
15,769,975610,-277,-15671,-4236,-47,-20,-61
15,770,975615,-353,-15692,-4414,-45,-25,-59
15,771,975620,-311,-15729,-4556,-44,-13,-54
15,772,975625,-229,-15728,-4490,-42,7,-53
15,773,975630,-191,-15717,-4360,-34,14,-52
15,774,975635,-108,-15701,-4310,-27,12,-53
15,775,975640,-161,-15676,-4406,-22,8,-57
15,776,975645,-228,-15749,-4547,-19,5,-52
15,777,975650,-205,-15661,-4547,-14,9,-48
15,778,975655,-92,-15619,-4511,-9,27,-47
15,779,975660,-102,-15585,-4435,-6,38,-50
15,780,975665,-99,-15645,-4451,2,40,-51
15,781,975670,-101,-15653,-4540,3,43,-46
15,782,975675,-61,-15641,-4556,6,41,-43
15,783,975680,58,-15625,-4413,9,38,-41
15,784,975685,135,-15612,-4321,12,32,-41
15,785,975690,88,-15591,-4326,16,21,-38
15,786,975695,69,-15613,-4424,20,7,-33
15,787,975700,54,-15624,-4445,18,-1,-28
15,788,975705,79,-15555,-4400,22,-3,-23
15,789,975710,14,-15519,-4342,30,-7,-22
15,790,975715,-44,-15484,-4437,32,-11,-23
15,791,975720,-128,-15544,-4554,37,-7,-20
15,792,975725,-115,-15596,-4541,40,2,-16
15,793,975730,-6,-15580,-4475,42,9,-13
15,794,975735,-25,-15565,-4471,42,10,-13
15,795,975740,-26,-15584,-4487,47,9,-11
15,796,975745,-61,-15573,-4573,52,13,-6
15,797,975750,-39,-15607,-4551,54,29,-1
15,798,975755,3,-15625,-4482,56,36,0
15,799,975760,-8,-15674,-4495,58,36,0
15,800,975765,-1,-15719,-4547,61,37,2
15,801,975770,40,-15780,-4545,63,39,6
15,802,975775,85,-15814,-4466,64,43,9
15,803,975780,141,-15883,-4355,67,35,12
15,804,975785,177,-15896,-4418,69,22,14
15,805,975790,88,-15864,-4472,72,13,17
15,806,975795,49,-15907,-4487,73,10,21
15,807,975800,11,-15918,-4500,77,13,27
15,808,975805,-30,-15902,-4478,76,6,30
15,809,975810,-87,-15836,-4474,79,-2,32
15,810,975815,-132,-15824,-4467,79,-6,33
15,811,975820,-180,-15758,-4567,79,-10,38
15,812,975825,-223,-15748,-4658,81,-4,38
15,813,975830,-217,-15749,-4689,82,5,39
15,814,975835,-229,-15731,-4685,86,13,39
15,815,975840,-202,-15727,-4681,86,20,40
15,816,975845,-158,-15685,-4687,85,29,39
15,817,975850,-125,-15666,-4687,84,37,38
15,818,975855,-139,-15639,-4674,85,47,36
15,819,975860,-105,-15633,-4590,88,49,34
15,820,975865,-73,-15640,-4559,88,52,37
15,821,975870,-31,-15683,-4545,86,51,38
15,822,975875,54,-15700,-4515,87,53,39
15,823,975880,61,-15723,-4385,85,51,40
15,824,975885,47,-15786,-4299,84,43,39
15,825,975890,43,-15793,-4295,80,31,39
15,826,975895,37,-15752,-4290,80,19,41
15,827,975900,0,-15775,-4250,78,8,44
15,828,975905,-44,-15889,-4280,74,-1,45
15,829,975910,-6,-15888,-4290,73,-7,44
15,830,975915,-37,-15874,-4219,72,-10,44
15,831,975920,-75,-15901,-4291,67,-14,44
15,832,975925,-181,-15884,-4328,63,-15,44
15,833,975930,-217,-15923,-4339,61,-7,43
15,834,975935,-193,-15923,-4325,59,0,41
15,835,975940,-176,-15937,-4328,58,6,39
15,836,975945,-225,-15988,-4350,55,11,36
15,837,975950,-266,-15966,-4387,52,19,34
15,838,975955,-222,-15959,-4356,51,31,31
15,839,975960,-240,-15983,-4284,48,43,26
15,840,975965,-156,-15981,-4295,46,47,24
15,841,975970,-19,-16039,-4269,43,48,26
15,842,975975,59,-16065,-4214,41,45,26
15,843,975980,90,-16062,-4192,37,39,26
15,844,975985,132,-16029,-4267,35,29,28
15,845,975990,91,-15953,-4321,32,23,28
15,846,975995,46,-15939,-4302,31,21,24
15,847,976000,-3,-15921,-4255,29,17,22
15,848,976005,-15,-15893,-4332,27,13,22
15,849,976010,49,-15867,-4368,19,14,22
15,850,976015,98,-15867,-4353,16,19,20
15,851,976020,58,-15826,-4334,13,17,17
15,852,976025,40,-15826,-4277,12,12,16
15,853,976030,12,-15820,-4265,9,10,15
15,854,976035,-10,-15817,-4233,5,4,11
15,855,976040,-60,-15854,-4242,2,-8,11
15,856,976045,-112,-15857,-4282,-1,-13,8
15,857,976050,-163,-15860,-4387,-1,-10,7
15,858,976055,-166,-15895,-4495,-4,-4,4
15,859,976060,-177,-15918,-4431,-8,6,-2
15,860,976065,-182,-15915,-4330,-9,11,-2
15,861,976070,-165,-15946,-4340,-8,12,-3
15,862,976075,-150,-15997,-4468,-8,15,-5
15,863,976080,-103,-15971,-4417,-10,16,-8
15,864,976085,-107,-15981,-4321,-12,19,-9
15,865,976090,-123,-15991,-4354,-12,18,-14
15,866,976095,-64,-16050,-4391,-12,21,-14
15,867,976100,-32,-16057,-4371,-14,29,-16
15,868,976105,17,-16044,-4319,-17,26,-16
15,869,976110,87,-16018,-4243,-17,22,-15
15,870,976115,43,-15968,-4211,-17,16,-18
15,871,976120,53,-15992,-4232,-19,7,-20
15,872,976125,12,-15954,-4302,-20,2,-18
15,873,976130,-33,-15940,-4393,-22,7,-20
15,874,976135,-69,-15888,-4454,-21,15,-22
15,875,976140,-66,-15841,-4420,-21,20,-25
15,876,976145,3,-15826,-4405,-25,23,-25
15,877,976150,65,-15811,-4386,-25,22,-25
15,878,976155,23,-15762,-4310,-24,22,-27
15,879,976160,-6,-15735,-4291,-26,15,-28
15,880,976165,64,-15744,-4379,-25,6,-31
15,881,976170,23,-15720,-4300,-27,2,-34
15,882,976175,-12,-15719,-4272,-29,-3,-35
15,883,976180,-117,-15758,-4311,-31,-4,-39
15,884,976185,-127,-15740,-4384,-30,-1,-41
15,885,976190,-208,-15759,-4436,-31,4,-42
15,886,976195,-148,-15827,-4397,-32,12,-42
15,887,976200,31,-15854,-4313,-30,24,-44
15,888,976205,102,-15847,-4212,-29,31,-47
15,889,976210,-66,-15842,-4199,-30,26,-48
15,890,976215,-81,-15885,-4295,-30,12,-48
15,891,976220,-12,-15922,-4333,-29,11,-46
15,892,976225,108,-15968,-4330,-29,18,-46
15,893,976230,149,-16010,-4264,-30,24,-48
15,894,976235,196,-16056,-4273,-30,23,-50
15,895,976240,141,-16013,-4341,-28,21,-51
15,896,976245,106,-16048,-4374,-27,19,-49
15,897,976250,163,-16042,-4334,-29,19,-49
15,898,976255,206,-16032,-4277,-27,17,-47
15,899,976260,215,-16020,-4231,-27,13,-46
15,900,976265,136,-15976,-4232,-28,2,-48
15,901,976270,23,-15918,-4301,-27,-10,-45
15,902,976275,-26,-15864,-4392,-27,-13,-42
15,903,976280,-7,-15861,-4403,-25,-4,-46
15,904,976285,-58,-15813,-4381,-25,1,-43
15,905,976290,-150,-15718,-4365,-26,7,-46
15,906,976295,-206,-15668,-4358,-24,13,-47
15,907,976300,-148,-15676,-4370,-22,18,-45
15,908,976305,-92,-15608,-4342,-24,26,-46
15,909,976310,-5,-15559,-4347,-24,35,-47
15,910,976315,-5,-15578,-4400,-21,42,-46
15,911,976320,44,-15545,-4366,-20,48,-44
15,912,976325,92,-15614,-4321,-20,54,-44
15,913,976330,92,-15594,-4249,-17,53,-45
15,914,976335,73,-15603,-4222,-16,47,-40
15,915,976340,83,-15586,-4359,-15,42,-38
15,916,976345,73,-15625,-4381,-13,43,-39
15,917,976350,114,-15648,-4267,-12,48,-36
15,918,976355,128,-15676,-4185,-13,46,-36
15,919,976360,129,-15702,-4261,-12,40,-38
15,920,976365,122,-15743,-4250,-11,30,-32
15,921,976370,140,-15740,-4311,-11,23,-26
15,922,976375,121,-15760,-4317,-11,15,-26
15,923,976380,86,-15754,-4294,-6,5,-23
15,924,976385,57,-15748,-4346,-7,-2,-16
15,925,976390,98,-15833,-4445,-5,-1,-18
15,926,976395,46,-15855,-4428,-5,6,-14
15,927,976400,96,-15836,-4409,-2,11,-16
15,928,976405,166,-15864,-4377,-1,13,-12
15,929,976410,168,-15917,-4310,1,12,-9
15,930,976415,133,-15901,-4271,5,2,-8
15,931,976420,79,-15876,-4303,6,-9,-9
15,932,976425,10,-15894,-4361,5,-14,-8
15,933,976430,-10,-15931,-4343,6,-11,-6
15,934,976435,47,-15949,-4300,7,-10,-1
15,935,976440,85,-16009,-4309,6,-3,-1
15,936,976445,47,-15936,-4366,7,1,-2
15,937,976450,-5,-15956,-4337,7,2,2
15,938,976455,33,-15929,-4375,6,4,3
15,939,976460,114,-15884,-4385,9,10,3
15,940,976465,164,-15915,-4376,10,17,4
15,941,976470,212,-15873,-4336,12,14,6
15,942,976475,301,-15829,-4329,10,5,9
15,943,976480,239,-15771,-4286,13,-11,10
15,944,976485,33,-15731,-4319,13,-27,9
15,945,976490,-66,-15661,-4463,12,-35,12
15,946,976495,-107,-15660,-4618,12,-34,15
15,947,976500,-82,-15645,-4605,14,-21,15
15,948,976505,-90,-15583,-4576,9,-9,14
15,949,976510,-49,-15572,-4609,12,6,12
15,950,976515,-79,-15605,-4619,15,23,12
15,951,976520,-71,-15604,-4563,17,34,9
15,952,976525,-17,-15555,-4597,21,47,9
15,953,976530,83,-15704,-4427,24,65,4
15,954,976535,174,-15726,-4430,20,58,3
15,955,976540,239,-15772,-4283,24,53,9
15,956,976545,319,-15892,-4173,20,43,9
15,957,976550,372,-15884,-4177,19,28,12
15,958,976555,261,-15830,-4211,20,17,15
15,959,976560,120,-15893,-4242,30,8,14
15,960,976565,65,-15927,-4056,32,7,13
15,961,976570,-1,-15891,-4296,25,-8,14
15,962,976575,119,-15996,-4301,29,-3,20
15,963,976580,103,-16008,-4303,19,3,14
15,964,976585,77,-16090,-4296,14,5,15
15,965,976590,136,-16126,-4323,16,10,19
15,966,976595,88,-16102,-4327,23,13,16
15,967,976600,45,-16028,-4165,23,11,12
15,968,976605,-20,-15947,-4304,18,-3,14
15,969,976610,-70,-16009,-4385,18,-11,15
15,970,976615,-15,-15969,-4668,20,-5,14
15,971,976620,40,-15986,-4761,20,22,16
15,972,976625,-39,-15888,-4615,19,46,8
15,973,976630,-12,-15819,-4374,18,54,8
15,974,976635,140,-15820,-4448,17,46,12
15,975,976640,213,-15797,-4547,21,47,11
15,976,976645,219,-15857,-4502,19,42,10
15,977,976650,299,-15814,-4473,19,28,8
15,978,976655,313,-15799,-4553,23,19,14
15,979,976660,386,-15846,-4503,24,16,16
15,980,976665,495,-15875,-4429,21,12,18
15,981,976670,519,-15869,-4312,26,5,19
15,982,976675,420,-15839,-4264,26,-6,21
15,983,976680,223,-15828,-4272,24,-24,21
15,984,976685,131,-15791,-4434,27,-33,19
15,985,976690,128,-15798,-4535,26,-26,23
15,986,976695,97,-15842,-4459,29,-3,24
15,987,976700,72,-15800,-4277,26,8,22
15,988,976705,14,-15713,-4274,23,0,23
15,989,976710,8,-15718,-4331,25,-5,20
15,990,976715,-51,-15678,-4290,26,-3,18
15,991,976720,-61,-15734,-4277,27,-4,18
15,992,976725,6,-15756,-4297,27,-3,19
15,993,976730,52,-15817,-4341,30,5,21
15,994,976735,99,-15875,-4234,29,12,17
15,995,976740,106,-15880,-4148,24,16,14
15,996,976745,77,-15871,-4132,23,10,13
15,997,976750,64,-15906,-4074,24,3,15
15,998,976755,64,-15874,-4120,20,-7,15
15,999,976760,45,-15886,-4160,19,-12,14
