event_id,seq,ts_ms,ax,ay,az,gx,gy,gz
1,0,50732,-808,-16375,-1443,20,-41,-21
1,1,50737,-357,-16334,-1540,18,-14,-12
1,2,50742,-37,-16295,-1184,13,18,-10
1,3,50747,-76,-16284,-814,10,16,-15
1,4,50752,-202,-16315,-956,12,-20,-15
1,5,50757,-159,-16347,-1382,13,-39,-8
1,6,50762,-114,-16314,-1292,9,-28,-6
1,7,50767,-32,-16237,-963,2,-3,1
1,8,50772,71,-16201,-757,3,9,6
1,9,50777,131,-16295,-851,5,1,3
1,10,50782,-130,-16328,-1077,5,-13,4
1,11,50787,-283,-16345,-1263,2,-22,10
1,12,50792,-182,-16359,-1493,1,-14,19
1,13,50797,-56,-16342,-1522,0,4,24
1,14,50802,-131,-16290,-1260,-3,14,24
1,15,50807,-388,-16263,-959,-4,-3,25
1,16,50812,-660,-16284,-908,-6,-31,26
1,17,50817,-767,-16273,-1219,-6,-37,24
1,18,50822,-838,-16243,-1434,-3,-13,24
1,19,50827,-875,-16352,-1482,-5,11,22
1,20,50832,-944,-16420,-1541,-5,18,20
1,21,50837,-949,-16417,-1664,-10,-3,22
1,22,50842,-927,-16402,-1834,-9,-21,23
1,23,50847,-947,-16393,-1842,-9,-16,20
1,24,50852,-1101,-16417,-1665,-10,-5,22
1,25,50857,-1275,-16349,-1563,-11,-6,23
1,26,50862,-1238,-16319,-1643,-8,-13,20
1,27,50867,-1138,-16352,-1753,-5,-8,19
1,28,50872,-1197,-16359,-1725,-6,-1,17
1,29,50877,-1285,-16392,-1672,-6,-1,12
1,30,50882,-1274,-16379,-1746,-7,-7,10
1,31,50887,-1218,-16363,-1839,-4,-11,8
1,32,50892,-1192,-16341,-1772,-6,-6,6
1,33,50897,-1267,-16334,-1653,-3,-1,5
1,34,50902,-1313,-16372,-1619,-3,-5,0
1,35,50907,-1341,-16370,-1742,-1,-10,-5
1,36,50912,-1381,-16394,-1925,2,-11,-6
1,37,50917,-1377,-16418,-1871,0,-5,-7
1,38,50922,-1326,-16383,-1801,0,-2,-6
1,39,50927,-1292,-16376,-1753,-2,-7,-9
1,40,50932,-1237,-16330,-1730,1,-12,-14
1,41,50937,-1267,-16350,-1799,4,-13,-19
1,42,50942,-1341,-16420,-1841,5,-12,-21
1,43,50947,-1451,-16443,-1821,4,-13,-24
1,44,50952,-1347,-16359,-1776,5,-15,-24
1,45,50957,-978,-16344,-1699,3,-12,-25
1,46,50962,-717,-16276,-1383,5,-5,-28
1,47,50967,-778,-16270,-1473,9,-5,-31
1,48,50972,-826,-16486,-1580,12,-11,-33
1,49,50977,-1041,-16365,-1807,8,-21,-34
1,50,50982,-850,-16367,-1597,4,-14,-28
1,51,50987,-610,-16267,-1492,5,-2,-23
1,52,50992,-545,-16301,-1374,7,-1,-24
1,53,50997,-637,-16336,-1413,9,-11,-31
1,54,51002,-696,-16350,-1455,10,-25,-31
1,55,51007,-600,-16354,-1364,11,-40,-22
1,56,51012,-372,-16308,-1411,9,-51,-15
1,57,51017,-176,-16237,-1328,9,-63,-12
1,58,51022,-503,-16305,-1516,13,-82,-18
1,59,51027,-606,-16369,-1768,10,-75,-14
1,60,51032,-502,-16351,-1877,10,-47,-8
1,61,51037,-295,-16307,-1716,9,-20,-1
1,62,51042,-211,-16327,-1605,6,-10,-3
1,63,51047,-317,-16317,-1576,6,-16,-7
1,64,51052,-523,-16335,-1535,6,-22,-6
1,65,51057,-697,-16350,-1457,7,-25,-4
1,66,51062,-659,-16321,-1409,4,-18,-1
1,67,51067,-558,-16310,-1260,6,-7,1
1,68,51072,-608,-16324,-1335,7,-1,-1
1,69,51077,-573,-16378,-1594,6,-4,2
1,70,51082,-543,-16388,-1569,0,-4,3
1,71,51087,-579,-16348,-1531,-1,-11,2
1,72,51092,-444,-16324,-1516,3,-13,6
1,73,51097,-379,-16290,-1466,4,-5,10
1,74,51102,-470,-16292,-1296,3,3,7
1,75,51107,-690,-16308,-1060,2,-4,6
1,76,51112,-751,-16279,-1193,0,-16,10
1,77,51117,-590,-16291,-1318,1,-12,13
1,78,51122,-467,-16334,-1349,0,2,11
1,79,51127,-475,-16331,-1243,-3,14,13
1,80,51132,-550,-16322,-1200,-2,5,12
1,81,51137,-594,-16306,-1487,-2,-11,14
1,82,51142,-674,-16370,-1702,-1,-9,16
1,83,51147,-883,-16375,-1633,-3,0,13
1,84,51152,-1051,-16361,-1517,-4,-4,13
1,85,51157,-1085,-16382,-1595,-6,-9,14
1,86,51162,-1047,-16379,-1640,-5,-10,17
1,87,51167,-1109,-16345,-1661,-4,-8,13
1,88,51172,-1158,-16374,-1699,-5,-2,9
1,89,51177,-1199,-16412,-1731,-4,-3,9
1,90,51182,-1214,-16411,-1715,-4,-7,12
1,91,51187,-1225,-16342,-1721,-4,-7,7
1,92,51192,-1227,-16359,-1714,-4,-7,2
1,93,51197,-1238,-16370,-1644,-2,-6,2
1,94,51202,-1317,-16366,-1555,-2,-7,-1
1,95,51207,-1347,-16336,-1574,1,-14,-4
1,96,51212,-1305,-16375,-1682,2,-11,-7
1,97,51217,-1216,-16374,-1690,-1,-7,-9
1,98,51222,-1157,-16367,-1647,-1,-1,-11
1,99,51227,-1129,-16375,-1640,1,-1,-13
1,100,51232,-1092,-16372,-1681,0,-8,-14
1,101,51237,-1050,-16364,-1758,3,-11,-14
1,102,51242,-967,-16327,-1867,2,-6,-16
1,103,51247,-851,-16342,-1936,5,2,-17
1,104,51252,-870,-16362,-1753,7,3,-21
1,105,51257,-1043,-16397,-1639,10,-9,-21
1,106,51262,-1041,-16392,-1800,10,-22,-17
1,107,51267,-849,-16386,-1890,8,-16,-16
1,108,51272,-801,-16353,-1770,8,0,-20
1,109,51277,-815,-16349,-1601,10,6,-17
1,110,51282,-762,-16329,-1559,11,-7,-17
1,111,51287,-680,-16347,-1725,14,-15,-17
1,112,51292,-583,-16335,-1728,15,-10,-15
1,113,51297,-583,-16354,-1515,16,-4,-15
1,114,51302,-654,-16312,-1268,16,-5,-17
1,115,51307,-661,-16330,-1399,16,-14,-13
1,116,51312,-663,-16376,-1562,15,-17,-12
1,117,51317,-642,-16371,-1551,14,-9,-13
1,118,51322,-644,-16351,-1442,13,-4,-11
1,119,51327,-633,-16354,-1426,12,-5,-11
1,120,51332,-635,-16341,-1494,13,-10,-9
1,121,51337,-614,-16350,-1520,14,-9,-7
1,122,51342,-629,-16345,-1488,12,-7,-5
1,123,51347,-649,-16314,-1305,9,-7,-6
1,124,51352,-579,-16275,-1246,9,-9,-7
1,125,51357,-534,-16302,-1360,12,-9,-9
1,126,51362,-555,-16358,-1433,14,-6,-11
1,127,51367,-634,-16364,-1469,10,-6,-12
1,128,51372,-653,-16362,-1561,9,-10,-8
1,129,51377,-636,-16378,-1533,9,-13,-4
1,130,51382,-565,-16330,-1429,5,-9,-1
1,131,51387,-572,-16342,-1391,7,-8,0
1,132,51392,-664,-16337,-1357,7,-14,-2
1,133,51397,-627,-16316,-1452,6,-17,3
1,134,51402,-594,-16347,-1503,4,-11,2
1,135,51407,-575,-16359,-1500,4,-5,3
1,136,51412,-560,-16368,-1484,4,-4,6
1,137,51417,-534,-16327,-1447,1,-6,8
1,138,51422,-525,-16307,-1522,3,-14,11
1,139,51427,-549,-16305,-1550,3,-12,11
1,140,51432,-644,-16337,-1436,1,-7,12
1,141,51437,-734,-16327,-1424,2,-11,15
1,142,51442,-787,-16355,-1523,2,-13,11
1,143,51447,-806,-16353,-1525,1,-11,11
1,144,51452,-874,-16352,-1478,0,-9,15
1,145,51457,-900,-16345,-1414,1,-12,18
1,146,51462,-849,-16325,-1412,-1,-13,18
1,147,51467,-764,-16294,-1474,-2,-11,16
1,148,51472,-780,-16345,-1385,-2,-5,13
1,149,51477,-885,-16368,-1328,0,-9,13
1,150,51482,-985,-16358,-1386,0,-13,11
1,151,51487,-1041,-16334,-1543,-2,-15,8
1,152,51492,-979,-16368,-1589,-1,-11,9
1,153,51497,-925,-16328,-1558,-3,-6,8
1,154,51502,-899,-16325,-1478,-3,-4,10
1,155,51507,-885,-16335,-1407,-4,-9,9
1,156,51512,-850,-16340,-1549,-5,-14,6
1,157,51517,-901,-16396,-1664,-3,-11,1
1,158,51522,-1020,-16345,-1626,-2,-6,3
1,159,51527,-1022,-16355,-1553,-4,-3,6
1,160,51532,-970,-16342,-1532,-3,-5,4
1,161,51537,-972,-16322,-1558,-2,-9,6
1,162,51542,-989,-16346,-1647,-3,-8,0
1,163,51547,-983,-16353,-1673,-4,-6,-1
1,164,51552,-963,-16365,-1596,-3,-6,0
1,165,51557,-951,-16349,-1577,-3,-6,-1
1,166,51562,-807,-16331,-1655,-2,-5,2
1,167,51567,-774,-16345,-1691,-3,-3,0
1,168,51572,-812,-16338,-1544,-4,-3,-1
1,169,51577,-928,-16345,-1466,-3,-7,-1
1,170,51582,-925,-16377,-1626,-4,-17,3
1,171,51587,-841,-16413,-1749,-6,-10,5
1,172,51592,-795,-16369,-1579,-7,4,4
1,173,51597,-829,-16342,-1376,-6,1,7
1,174,51602,-770,-16325,-1403,-6,-10,7
1,175,51607,-719,-16298,-1467,-2,-15,8
1,176,51612,-804,-16317,-1351,-2,-11,10
1,177,51617,-896,-16338,-1352,-5,-6,8
1,178,51622,-909,-16344,-1562,-4,-6,9
1,179,51627,-859,-16321,-1607,-3,-2,9
1,180,51632,-846,-16347,-1647,-4,-1,8
1,181,51637,-927,-16356,-1631,-4,-2,6
1,182,51642,-1100,-16355,-1746,-3,-9,2
1,183,51647,-1149,-16384,-1885,1,-13,2
1,184,51652,-1117,-16380,-1880,2,-9,2
1,185,51657,-975,-16319,-1811,-2,-2,0
1,186,51662,-899,-16385,-1673,3,0,-1
1,187,51667,-929,-16387,-1580,3,-4,-7
1,188,51672,-1052,-16380,-1650,6,-17,-11
1,189,51677,-956,-16377,-1803,8,-20,-12
1,190,51682,-864,-16349,-1828,5,-12,-5
1,191,51687,-786,-16357,-1573,4,2,-3
1,192,51692,-753,-16358,-1474,3,0,-5
1,193,51697,-742,-16402,-1480,2,-11,-4
1,194,51702,-838,-16320,-1472,5,-16,-6
1,195,51707,-813,-16315,-1561,4,-13,-4
1,196,51712,-772,-16366,-1553,5,-4,-1
1,197,51717,-769,-16379,-1498,1,1,-4
1,198,51722,-797,-16339,-1398,2,0,-5
1,199,51727,-854,-16314,-1447,3,-11,-3
1,200,51732,-857,-16352,-1557,7,-17,-2
1,201,51737,-745,-16336,-1713,9,-13,-2
1,202,51742,-672,-16343,-1648,6,0,-1
1,203,51747,-727,-16329,-1471,4,0,-4
1,204,51752,-778,-16300,-1420,7,-21,-3
1,205,51757,-838,-16299,-1461,5,-19,-7
1,206,51762,-855,-16348,-1422,3,-15,-6
1,207,51767,-869,-16300,-1331,2,-15,-2
1,208,51772,-877,-16313,-1096,-1,-30,0
1,209,51777,-935,-16274,-935,3,-63,2
1,210,51782,-924,-16251,-1040,4,-106,6
1,211,51787,-987,-16301,-1043,4,-146,8
1,212,51792,-1128,-16235,-1161,4,-190,11
1,213,51797,-1140,-16351,-1227,4,-231,15
1,214,51802,-1008,-16322,-1384,2,-266,18
1,215,51807,-921,-16262,-1330,2,-296,18
1,216,51812,-1057,-16377,-1004,4,-332,16
1,217,51817,-855,-16458,-1586,5,-385,22
1,218,51822,-928,-16365,-1723,1,-412,17
1,219,51827,-997,-16356,-1606,-5,-431,14
1,220,51832,-965,-16384,-1887,-2,-434,17
1,221,51837,-860,-16371,-2091,1,-407,15
1,222,51842,-892,-16382,-2161,1,-371,13
1,223,51847,-808,-16370,-2152,4,-332,7
1,224,51852,-751,-16389,-2023,4,-290,1
1,225,51857,-710,-16385,-2063,6,-250,-1
1,226,51862,-729,-16418,-2036,5,-197,-5
1,227,51867,-716,-16446,-2085,5,-141,-8
1,228,51872,-719,-16361,-2037,5,-73,-9
1,229,51877,-705,-16333,-1983,6,-9,-10
1,230,51882,-644,-16389,-1826,7,49,-10
1,231,51887,-663,-16350,-1685,8,97,-11
1,232,51892,-619,-16337,-1606,5,130,-12
1,233,51897,-515,-16335,-1435,5,161,-11
1,234,51902,-444,-16301,-1146,4,179,-11
1,235,51907,-471,-16286,-1029,5,187,-11
1,236,51912,-488,-16254,-1196,6,191,-8
1,237,51917,-546,-16332,-1413,6,202,-8
1,238,51922,-580,-16315,-1589,5,213,-9
1,239,51927,-655,-16351,-1496,4,219,-7
1,240,51932,-717,-16373,-1565,1,208,-6
1,241,51937,-827,-16410,-1703,0,196,-6
1,242,51942,-847,-16365,-1717,0,193,-4
1,243,51947,-831,-16292,-1592,-3,190,-4
1,244,51952,-918,-16284,-1542,0,181,-4
1,245,51957,-967,-16326,-1516,0,167,-2
1,246,51962,-954,-16308,-1500,3,141,1
1,247,51967,-952,-16321,-1368,4,121,0
1,248,51972,-903,-16337,-1330,2,96,4
1,249,51977,-907,-16329,-1222,2,68,5
1,250,51982,-995,-16327,-1082,1,32,4
1,251,51987,-959,-16259,-1127,1,0,8
1,252,51992,-937,-16291,-1223,2,-24,11
1,253,51997,-867,-16297,-1223,1,-39,10
1,254,52002,-877,-16297,-1310,-1,-52,8
1,255,52007,-800,-16340,-1465,1,-68,13
1,256,52012,-859,-16379,-1576,0,-77,11
1,257,52017,-907,-16395,-1550,-2,-75,11
1,258,52022,-947,-16364,-1632,-5,-67,11
1,259,52027,-960,-16334,-1687,-6,-50,11
1,260,52032,-955,-16295,-1656,-3,-28,10
1,261,52037,-960,-16331,-1689,-2,-7,12
1,262,52042,-933,-16346,-1734,0,14,9
1,263,52047,-935,-16334,-1722,-1,28,5
1,264,52052,-912,-16339,-1683,2,39,5
1,265,52057,-958,-16369,-1665,1,43,0
1,266,52062,-999,-16348,-1611,3,42,2
1,267,52067,-1010,-16328,-1612,3,39,1
1,268,52072,-1008,-16322,-1584,5,35,0
1,269,52077,-969,-16348,-1461,2,29,1
1,270,52082,-940,-16369,-1383,1,16,1
1,271,52087,-989,-16327,-1349,4,-7,3
1,272,52092,-969,-16331,-1426,1,-29,3
1,273,52097,-862,-16321,-1460,1,-42,5
1,274,52102,-882,-16299,-1411,1,-46,8
1,275,52107,-940,-16338,-1381,0,-50,4
1,276,52112,-983,-16354,-1514,2,-54,6
1,277,52117,-1006,-16377,-1706,2,-51,4
1,278,52122,-994,-16341,-1654,-2,-28,3
1,279,52127,-908,-16309,-1537,-1,-24,-1
1,280,52132,-941,-16306,-1597,1,-23,-1
1,281,52137,-989,-16357,-1723,1,-17,-3
1,282,52142,-940,-16351,-1787,1,-5,-5
1,283,52147,-898,-16364,-1711,0,5,-3
1,284,52152,-849,-16355,-1594,2,12,-4
1,285,52157,-838,-16359,-1571,4,12,-5
1,286,52162,-778,-16332,-1590,3,8,-6
1,287,52167,-840,-16337,-1556,2,7,-7
1,288,52172,-933,-16334,-1513,1,3,-5
1,289,52177,-919,-16333,-1565,1,1,1
1,290,52182,-906,-16361,-1448,-2,4,2
1,291,52187,-894,-16347,-1443,-1,2,3
1,292,52192,-869,-16315,-1484,-2,0,2
1,293,52197,-826,-16323,-1452,-2,-7,2
1,294,52202,-901,-16310,-1418,-1,-18,3
1,295,52207,-913,-16315,-1489,1,-24,6
1,296,52212,-922,-16326,-1543,1,-22,3
1,297,52217,-929,-16354,-1543,-3,-18,1
1,298,52222,-959,-16343,-1548,-2,-13,2
1,299,52227,-945,-16362,-1487,-1,-16,1
1,300,52232,-832,-16342,-1478,-6,-22,3
1,301,52237,-806,-16303,-1537,-5,-23,0
1,302,52242,-842,-16330,-1584,-3,-22,-1
1,303,52247,-852,-16341,-1577,1,-18,-1
1,304,52252,-956,-16326,-1643,-1,-12,-1
1,305,52257,-978,-16326,-1600,-1,-11,1
1,306,52262,-952,-16311,-1579,-1,-3,2
1,307,52267,-931,-16310,-1575,-1,1,4
1,308,52272,-999,-16356,-1585,0,5,1
1,309,52277,-1062,-16382,-1699,0,4,-3
1,310,52282,-942,-16374,-1738,-1,1,-2
1,311,52287,-918,-16329,-1640,-4,0,-1
1,312,52292,-985,-16345,-1589,-1,-3,0
1,313,52297,-998,-16378,-1630,2,-12,0
1,314,52302,-964,-16346,-1606,0,-20,0
1,315,52307,-971,-16315,-1424,0,-23,1
1,316,52312,-956,-16308,-1332,0,-30,2
1,317,52317,-958,-16299,-1390,1,-38,-1
1,318,52322,-925,-16310,-1547,2,-40,-1
1,319,52327,-915,-16302,-1630,0,-39,-2
1,320,52332,-936,-16331,-1601,-1,-40,-2
1,321,52337,-888,-16312,-1596,1,-42,-1
1,322,52342,-803,-16303,-1602,-1,-45,-2
1,323,52347,-778,-16313,-1579,1,-43,2
1,324,52352,-845,-16316,-1494,2,-42,1
1,325,52357,-893,-16333,-1508,2,-43,0
1,326,52362,-946,-16329,-1545,3,-43,1
1,327,52367,-878,-16299,-1608,3,-39,2
1,328,52372,-890,-16335,-1624,7,-35,3
1,329,52377,-904,-16389,-1671,7,-37,3
1,330,52382,-963,-16407,-1725,5,-49,3
1,331,52387,-1030,-16361,-1672,5,-60,5
1,332,52392,-1111,-16360,-1683,4,-70,8
1,333,52397,-1143,-16377,-1643,3,-78,10
1,334,52402,-1099,-16369,-1571,1,-87,13
1,335,52407,-1168,-16377,-1525,2,-104,10
1,336,52412,-1307,-16359,-1605,1,-127,8
1,337,52417,-1325,-16368,-1815,1,-149,11
1,338,52422,-1257,-16350,-1752,1,-164,16
1,339,52427,-1199,-16333,-1670,3,-181,18
1,340,52432,-1286,-16368,-1659,4,-200,14
1,341,52437,-1542,-16430,-1680,4,-228,9
1,342,52442,-1589,-16439,-1901,5,-256,15
1,343,52447,-1421,-16397,-2038,9,-271,29
1,344,52452,-1223,-16391,-1953,9,-277,29
1,345,52457,-1030,-16446,-1924,9,-295,28
1,346,52462,-870,-16504,-2154,14,-339,29
1,347,52467,-760,-16500,-2146,14,-386,32
1,348,52472,-791,-16480,-1998,15,-438,38
1,349,52477,-1141,-16517,-2080,11,-489,37
1,350,52482,-1618,-16542,-2371,10,-519,38
1,351,52487,-2699,-16905,-3050,33,-354,46
1,352,52492,-2767,-17958,-2268,48,-157,58
1,353,52497,-2409,-18614,-1674,68,-6,74
1,354,52502,-1884,-18857,-968,86,63,92
1,355,52507,-1429,-18826,-1024,104,15,116
1,356,52512,-947,-18833,-1337,113,-84,137
1,357,52517,-798,-18793,-1493,117,-192,153
1,358,52522,-924,-18824,-1575,124,-304,168
1,359,52527,-1125,-18874,-1630,133,-406,188
1,360,52532,-1169,-18799,-1705,143,-488,208
1,361,52537,-1212,-18728,-1895,157,-533,237
1,362,52542,-1179,-18765,-2166,165,-542,265
1,363,52547,-1168,-18654,-2455,181,-518,287
1,364,52552,-1058,-18619,-2633,193,-461,313
1,365,52557,-931,-18506,-2631,209,-380,345
1,366,52562,-879,-18374,-2419,221,-289,373
1,367,52567,-870,-18239,-2251,234,-211,405
1,368,52572,-820,-18074,-2059,245,-147,435
1,369,52577,-720,-17953,-1935,250,-99,465
1,370,52582,-636,-17826,-1755,257,-61,498
1,371,52587,-524,-17738,-1511,267,-35,533
1,372,52592,-538,-17637,-1177,277,-29,571
1,373,52597,-758,-17507,-1005,283,-42,603
1,374,52602,-965,-17320,-1099,290,-61,637
1,375,52607,-1088,-17276,-1092,300,-72,677
1,376,52612,-1150,-17281,-1057,310,-80,722
1,377,52617,-1279,-17230,-939,316,-89,755
1,378,52622,-1350,-17182,-859,316,-108,793
1,379,52627,-1486,-17031,-960,322,-123,821
1,380,52632,-1688,-16991,-975,328,-119,851
1,381,52637,-1871,-16931,-1047,336,-106,890
1,382,52642,-2039,-16890,-1030,343,-92,924
1,383,52647,-2189,-16837,-849,349,-81,958
1,384,52652,-2105,-16832,-622,356,-81,993
1,385,52657,-2011,-16770,-342,361,-87,1030
1,386,52662,-2030,-16630,-92,363,-98,1059
1,387,52667,-2144,-16428,-105,369,-116,1092
1,388,52672,-2328,-16248,-105,370,-141,1133
1,389,52677,-2534,-16144,-232,376,-155,1169
1,390,52682,-2727,-16092,-407,382,-153,1207
1,391,52687,-2928,-16131,-492,384,-134,1247
1,392,52692,-3183,-16131,-244,387,-115,1284
1,393,52697,-3466,-16094,-52,394,-113,1323
1,394,52702,-3503,-16001,86,395,-118,1365
1,395,52707,-3438,-15974,344,394,-116,1398
1,396,52712,-3552,-15828,363,399,-117,1424
1,397,52717,-3739,-15738,339,405,-125,1451
1,398,52722,-3796,-15597,572,407,-145,1481
1,399,52727,-3747,-15530,582,412,-168,1510
1,400,52732,-3832,-15511,456,422,-180,1541
1,401,52737,-3917,-15395,408,425,-184,1572
1,402,52742,-3886,-15406,473,429,-191,1607
1,403,52747,-3942,-15509,567,437,-193,1638
1,404,52752,-4063,-15612,228,448,-185,1672
1,405,52757,-4264,-15580,90,452,-149,1706
1,406,52762,-3826,-15261,550,456,-98,1736
1,407,52767,-2561,-15087,2509,470,-30,1765
1,408,52772,-7705,-15004,-3120,502,-38,1739
1,409,52777,-7399,-14207,528,447,38,1812
1,410,52782,-4206,-15641,1071,447,-17,1922
1,411,52787,-4561,-15513,1200,483,129,1889
1,412,52792,-6046,-15531,661,497,213,1885
1,413,52797,-6473,-15490,917,480,181,1906
1,414,52802,-6211,-15254,1671,488,114,1930
1,415,52807,-5875,-15251,876,496,50,1957
1,416,52812,-6110,-15199,1143,500,70,1980
1,417,52817,-6368,-15205,1777,502,59,1996
1,418,52822,-6783,-15051,1449,506,-6,2011
1,419,52827,-6934,-14932,879,513,-48,2032
1,420,52832,-7096,-14650,439,513,-36,2057
1,421,52837,-7039,-14621,790,512,31,2081
1,422,52842,-7094,-14494,1123,508,95,2098
1,423,52847,-7031,-14352,762,506,142,2114
1,424,52852,-7436,-13959,-929,511,355,2143
1,425,52857,-7587,-13965,-875,507,527,2157
1,426,52862,-8081,-14025,-692,500,675,2166
1,427,52867,-8232,-13939,-372,496,774,2176
1,428,52872,-8190,-13854,212,492,825,2195
1,429,52877,-8049,-13773,637,482,841,2207
1,430,52882,-8362,-13731,1196,472,827,2215
1,431,52887,-9015,-13650,1249,462,758,2223
1,432,52892,-9458,-13473,1140,449,674,2236
1,433,52897,-9595,-13164,1209,437,605,2254
1,434,52902,-9946,-12990,1317,430,543,2264
1,435,52907,-10367,-12789,1318,424,482,2266
1,436,52912,-10446,-12628,969,412,400,2272
1,437,52917,-10406,-12450,594,402,323,2273
1,438,52922,-10418,-12283,403,397,265,2277
1,439,52927,-10467,-12100,555,391,225,2274
1,440,52932,-10580,-11952,922,387,184,2270
1,441,52937,-10740,-11694,1082,382,144,2267
1,442,52942,-10786,-11425,1141,379,114,2270
1,443,52947,-10710,-11157,1280,375,96,2277
1,444,52952,-10806,-10870,1005,367,76,2281
1,445,52957,-11089,-10613,816,354,50,2289
1,446,52962,-11280,-10308,863,339,13,2294
1,447,52967,-11195,-10108,989,328,-23,2302
1,448,52972,-11049,-9936,1218,326,-38,2305
1,449,52977,-10995,-9887,1344,326,-41,2305
1,450,52982,-11131,-9974,1098,326,-36,2300
1,451,52987,-11355,-9882,514,325,-33,2301
1,452,52992,-11590,-9730,255,321,-28,2307
1,453,52997,-12130,-9512,512,311,-26,2315
1,454,53002,-12544,-9226,580,301,-25,2319
1,455,53007,-12904,-9247,314,297,-8,2315
1,456,53012,-13398,-9198,380,295,34,2304
1,457,53017,-13694,-9075,866,289,71,2298
1,458,53022,-13792,-8926,1143,285,76,2290
1,459,53027,-13761,-8748,1376,284,61,2289
1,460,53032,-13504,-8564,1313,276,23,2283
1,461,53037,-13330,-8412,1436,266,-37,2279
1,462,53042,-13137,-8457,1489,255,-116,2270
1,463,53047,-12836,-8497,1331,249,-197,2263
1,464,53052,-12782,-8572,1415,250,-254,2264
1,465,53057,-12974,-8571,1493,248,-286,2258
1,466,53062,-13179,-8606,1488,249,-310,2257
1,467,53067,-13305,-8614,1209,242,-322,2259
1,468,53072,-13437,-8541,844,239,-311,2258
1,469,53077,-13655,-8349,892,236,-281,2255
1,470,53082,-13756,-8089,1142,230,-251,2248
1,471,53087,-13960,-7896,1161,229,-230,2238
1,472,53092,-14115,-7583,803,229,-196,2229
1,473,53097,-14252,-7339,754,226,-152,2224
1,474,53102,-14318,-7117,906,224,-112,2221
1,475,53107,-14076,-6928,1265,222,-90,2221
1,476,53112,-14233,-6744,1440,222,-90,2216
1,477,53117,-14526,-6646,1308,225,-107,2200
1,478,53122,-14754,-6328,1381,223,-138,2189
1,479,53127,-14703,-6042,1860,217,-177,2182
1,480,53132,-14970,-6020,2290,218,-237,2167
1,481,53137,-15067,-5777,2216,229,-317,2151
1,482,53142,-14791,-5458,2468,222,-389,2146
1,483,53147,-15225,-5080,2510,220,-454,2142
1,484,53152,-15377,-5298,1685,233,-501,2123
1,485,53157,-15927,-5367,1905,232,-498,2109
1,486,53162,-16234,-5329,1806,229,-484,2094
1,487,53167,-16526,-4992,861,236,-431,2078
1,488,53172,-16544,-4839,302,241,-333,2068
1,489,53177,-16376,-4716,870,234,-230,2055
1,490,53182,-16204,-4470,1609,230,-157,2036
1,491,53187,-16168,-4375,1568,237,-102,2011
1,492,53192,-16236,-4141,1023,238,-28,1990
1,493,53197,-15810,-3960,882,233,60,1975
1,494,53202,-15781,-3721,1220,229,130,1957
1,495,53207,-16032,-3502,1562,226,156,1940
1,496,53212,-16231,-3357,1633,226,159,1922
1,497,53217,-16424,-3343,1191,218,230,1887
1,498,53222,-16530,-3370,1143,210,277,1865
1,499,53227,-16400,-3357,982,206,298,1844
1,500,53232,-16245,-3314,1034,201,303,1824
1,501,53237,-16181,-3240,1324,196,297,1803
1,502,53242,-16267,-3235,1623,187,274,1774
1,503,53247,-16261,-3126,1685,180,241,1749
1,504,53252,-16140,-3103,1577,176,205,1729
1,505,53257,-15988,-3035,1571,162,174,1707
1,506,53262,-15806,-3023,1575,155,143,1681
1,507,53267,-15785,-2865,1479,149,119,1659
1,508,53272,-15781,-2795,1357,143,117,1639
1,509,53277,-15800,-2652,1288,137,143,1619
1,510,53282,-15834,-2391,1261,131,182,1592
1,511,53287,-15881,-2153,1136,123,218,1570
1,512,53292,-15928,-1930,1113,120,247,1544
1,513,53297,-15924,-1715,1194,113,260,1522
1,514,53302,-15722,-1534,1372,108,255,1500
1,515,53307,-15726,-1375,1537,100,216,1469
1,516,53312,-16007,-1112,1654,89,151,1435
1,517,53317,-16188,-898,1471,84,75,1408
1,518,53322,-16224,-751,1266,77,17,1380
1,519,53327,-16194,-523,1271,71,-16,1353
1,520,53332,-16298,-336,1307,65,-30,1320
1,521,53337,-16364,-180,984,58,-38,1292
1,522,53342,-16291,-254,847,53,-38,1265
1,523,53347,-16149,-257,817,47,-29,1236
1,524,53352,-15811,-309,776,46,-13,1214
1,525,53357,-15589,-311,859,38,3,1182
1,526,53362,-15575,-245,835,36,5,1149
1,527,53367,-15852,-170,816,28,5,1119
1,528,53372,-16176,-147,934,22,9,1089
1,529,53377,-16281,-175,1025,15,27,1065
1,530,53382,-16009,-275,1014,12,58,1042
1,531,53387,-15975,-393,1166,6,86,1012
1,532,53392,-16216,-393,1320,-1,85,978
1,533,53397,-16224,-399,1153,-10,57,944
1,534,53402,-16075,-460,1117,-17,32,914
1,535,53407,-16230,-460,1641,-23,15,882
1,536,53412,-16166,-447,1051,-28,-15,850
1,537,53417,-15952,-367,1202,-35,-34,817
1,538,53422,-15836,-251,1086,-44,-72,787
1,539,53427,-15922,-171,1046,-46,-99,756
1,540,53432,-16023,-66,822,-51,-121,730
1,541,53437,-16009,79,845,-58,-123,703
1,542,53442,-15828,175,950,-59,-113,676
1,543,53447,-15687,200,1080,-59,-110,647
1,544,53452,-15851,255,1290,-61,-121,613
1,545,53457,-16064,490,1418,-61,-157,583
1,546,53462,-15908,619,1378,-63,-203,560
1,547,53467,-15622,691,1637,-66,-244,535
1,548,53472,-15439,759,1971,-69,-305,502
1,549,53477,-15371,713,2009,-66,-381,466
1,550,53482,-15376,761,1754,-63,-448,433
1,551,53487,-15433,918,1604,-63,-490,407
1,552,53492,-15464,1109,1594,-61,-498,386
1,553,53497,-15554,1221,1606,-58,-483,360
1,554,53502,-15598,1279,1486,-55,-446,339
1,555,53507,-15585,1327,1321,-52,-395,321
1,556,53512,-15424,1380,1232,-47,-325,303
1,557,53517,-15374,1406,1361,-41,-250,283
1,558,53522,-15478,1450,1621,-33,-191,259
1,559,53527,-15375,1552,1805,-23,-162,234
1,560,53532,-15140,1525,2035,-17,-159,212
1,561,53537,-15383,1555,2421,-11,-188,183
1,562,53542,-15472,1664,2495,-5,-257,161
1,563,53547,-15370,1685,2348,-1,-322,143
1,564,53552,-15361,1609,2145,4,-356,118
1,565,53557,-15435,1518,1998,12,-361,101
1,566,53562,-15511,1552,2017,22,-360,82
1,567,53567,-15499,1674,2068,29,-359,63
1,568,53572,-15441,1748,2036,36,-347,48
1,569,53577,-15332,1772,1924,43,-320,28
1,570,53582,-15096,1826,2148,57,-244,-10
1,571,53587,-15160,1907,2283,68,-222,-29
1,572,53592,-15136,2024,2185,74,-205,-41
1,573,53597,-14985,2098,2172,76,-183,-57
1,574,53602,-14852,2099,2268,79,-169,-71
1,575,53607,-14763,2189,2359,81,-172,-86
1,576,53612,-14957,2257,2296,84,-186,-107
1,577,53617,-14964,2263,1861,87,-187,-118
1,578,53622,-14884,2307,1834,91,-147,-128
1,579,53627,-14948,2326,1981,93,-103,-146
1,580,53632,-15087,2361,2067,96,-73,-159
1,581,53637,-15303,2375,2235,92,-64,-173
1,582,53642,-15304,2355,2181,92,-70,-179
1,583,53647,-15332,2299,2137,93,-64,-186
1,584,53652,-15348,2243,2226,87,-59,-195
1,585,53657,-15388,2200,2255,86,-74,-205
1,586,53662,-15396,2195,2174,86,-107,-214
1,587,53667,-15611,2231,2107,83,-137,-227
1,588,53672,-15909,2276,2117,80,-149,-241
1,589,53677,-16081,2222,2085,79,-159,-250
1,590,53682,-16249,2139,2177,75,-163,-256
1,591,53687,-16323,2098,2247,71,-170,-263
1,592,53692,-16263,1994,2363,69,-179,-264
1,593,53697,-16232,1955,2502,68,-197,-272
1,594,53702,-16425,1883,2547,67,-229,-279
1,595,53707,-16571,1889,2572,60,-270,-288
1,596,53712,-16576,1898,2663,58,-304,-293
1,597,53717,-16500,1939,2767,50,-339,-299
1,598,53722,-16371,1953,2729,49,-371,-305
1,599,53727,-16529,1880,2651,42,-403,-312
1,600,53732,-16470,1913,2455,36,-428,-315
1,601,53737,-16300,1866,2341,32,-422,-314
1,602,53742,-16203,1879,2223,29,-389,-316
1,603,53747,-16059,1792,2193,29,-340,-316
1,604,53752,-15879,1750,2295,31,-293,-317
1,605,53757,-15796,1750,2423,31,-253,-316
1,606,53762,-15749,1753,2410,31,-219,-317
1,607,53767,-15534,1693,2347,36,-192,-318
1,608,53772,-15333,1528,2705,37,-171,-314
1,609,53777,-15158,1599,2843,35,-181,-313
1,610,53782,-15126,1532,2855,34,-185,-309
1,611,53787,-15080,1441,2789,34,-175,-310
1,612,53792,-14995,1368,2919,33,-159,-309
1,613,53797,-14881,1312,2883,29,-149,-311
1,614,53802,-14878,1305,2902,28,-142,-309
1,615,53807,-14910,1276,3099,29,-125,-307
1,616,53812,-14680,1136,2983,29,-107,-297
1,617,53817,-14690,1101,3168,31,-87,-293
1,618,53822,-14774,1110,3151,30,-86,-291
1,619,53827,-14680,1195,3182,27,-90,-284
1,620,53832,-14667,1329,3281,23,-96,-282
1,621,53837,-14724,1344,3220,21,-100,-281
1,622,53842,-14730,1231,3220,18,-104,-278
1,623,53847,-14641,1148,3179,16,-110,-275
1,624,53852,-14503,1067,3125,15,-108,-269
1,625,53857,-14514,994,3134,13,-94,-270
1,626,53862,-14591,976,3101,11,-85,-272
1,627,53867,-14657,910,3096,6,-76,-276
1,628,53872,-14593,830,3040,5,-57,-280
1,629,53877,-14498,684,3034,5,-30,-280
1,630,53882,-14444,583,3038,0,-5,-279
1,631,53887,-14293,574,3136,-2,20,-282
1,632,53892,-14137,679,3146,-6,43,-286
1,633,53897,-14110,756,2977,-9,74,-296
1,634,53902,-14027,772,2767,-14,118,-308
1,635,53907,-13852,795,2541,-16,177,-319
1,636,53912,-13608,853,2626,-17,247,-331
1,637,53917,-13390,906,2924,-23,313,-350
1,638,53922,-13263,971,2922,-23,367,-372
1,639,53927,-13213,993,2750,-27,419,-397
1,640,53932,-13174,1020,2834,-32,465,-419
1,641,53937,-13846,826,3096,-37,483,-439
1,642,53942,-12798,898,3087,-44,471,-453
1,643,53947,-11999,471,2975,-50,469,-480
1,644,53952,-13115,488,2655,-62,428,-583
1,645,53957,-13730,542,2404,-68,424,-620
1,646,53962,-13665,409,1856,-72,469,-645
1,647,53967,-13375,156,1629,-74,550,-674
1,648,53972,-12841,72,2004,-82,617,-718
1,649,53977,-12971,-46,2288,-85,626,-778
1,650,53982,-13752,45,2121,-88,601,-848
1,651,53987,-14222,90,1664,-97,586,-897
1,652,53992,-14369,-46,1540,-104,613,-939
1,653,53997,-14439,-248,1759,-111,657,-989
1,654,54002,-14541,-294,2046,-117,660,-1047
1,655,54007,-14732,-388,2339,-125,601,-1109
1,656,54012,-14944,-395,2331,-138,507,-1174
1,657,54017,-15038,-398,2274,-150,422,-1230
1,658,54022,-15151,-410,2330,-164,350,-1290
1,659,54027,-15344,-486,2182,-180,268,-1354
1,660,54032,-15656,-590,1716,-192,182,-1419
1,661,54037,-15992,-701,1457,-203,115,-1476
1,662,54042,-16026,-793,1552,-213,74,-1527
1,663,54047,-16041,-947,1814,-227,61,-1582
1,664,54052,-15866,-1160,1439,-235,53,-1639
1,665,54057,-15384,-1661,645,-239,59,-1696
1,666,54062,-15159,-2138,383,-242,89,-1756
1,667,54067,-15321,-2433,732,-246,115,-1812
1,668,54072,-15744,-2460,1004,-249,134,-1876
1,669,54077,-16183,-2404,990,-256,167,-1938
1,670,54082,-16487,-2531,1055,-262,218,-1992
1,671,54087,-16678,-2731,1409,-271,260,-2040
1,672,54092,-16559,-3011,1805,-273,252,-2084
1,673,54097,-16213,-3383,1918,-271,194,-2126
1,674,54102,-16067,-3644,1986,-279,119,-2175
1,675,54107,-16310,-3852,2130,-289,33,-2229
1,676,54112,-16624,-3973,2112,-294,-53,-2278
1,677,54117,-16809,-4080,1925,-296,-125,-2326
1,678,54122,-16742,-4172,1444,-297,-180,-2379
1,679,54127,-16532,-4531,964,-300,-174,-2419
1,680,54132,-16416,-4665,473,-302,-130,-2469
1,681,54137,-16331,-5117,573,-296,-88,-2512
1,682,54142,-16267,-5280,427,-279,-113,-2557
1,683,54147,-16178,-5450,835,-276,-171,-2593
1,684,54152,-16079,-5598,1431,-280,-236,-2636
1,685,54157,-15845,-5679,1634,-283,-302,-2681
1,686,54162,-15560,-5912,1668,-289,-382,-2721
1,687,54167,-15420,-6072,1486,-298,-475,-2761
1,688,54172,-15146,-6387,1286,-306,-548,-2795
1,689,54177,-15201,-6802,850,-309,-564,-2830
1,690,54182,-15435,-7104,423,-315,-511,-2859
1,691,54187,-15654,-7189,560,-324,-401,-2885
1,692,54192,-15449,-7252,401,-334,-270,-2902
1,693,54197,-15028,-7360,89,-341,-110,-2929
1,694,54202,-14830,-7454,332,-340,54,-2956
1,695,54207,-14608,-7493,1109,-340,160,-2978
1,696,54212,-14391,-7504,1952,-343,183,-3003
1,697,54217,-14427,-7440,2436,-352,125,-3030
1,698,54222,-14624,-7509,2543,-360,6,-3064
1,699,54227,-14736,-7666,2353,-368,-152,-3094
1,700,54232,-15039,-7856,2041,-378,-327,-3118
1,701,54237,-15168,-7958,1723,-392,-512,-3134
1,702,54242,-14803,-8174,1509,-410,-695,-3144
1,703,54247,-14204,-8418,1085,-431,-854,-3160
1,704,54252,-13777,-8765,802,-447,-964,-3181
1,705,54257,-13737,-9196,466,-463,-1023,-3195
1,706,54262,-14057,-9371,1026,-487,-1011,-3207
1,707,54267,-13888,-9602,659,-502,-945,-3218
1,708,54272,-13572,-10038,58,-515,-772,-3227
1,709,54277,-13306,-10404,-245,-533,-540,-3238
1,710,54282,-13012,-10701,-202,-551,-326,-3246
1,711,54287,-12777,-11001,-825,-559,-166,-3251
1,712,54292,-12564,-11102,112,-575,-12,-3257
1,713,54297,-12231,-11588,-48,-576,100,-3256
1,714,54302,-11661,-12106,457,-575,228,-3256
1,715,54307,-11121,-12560,906,-580,258,-3258
1,716,54312,-11150,-12845,1938,-590,183,-3272
1,717,54317,-11145,-13372,1395,-598,-143,-3276
1,718,54322,-10515,-13883,1073,-600,-226,-3268
1,719,54327,-9734,-14352,1529,-605,-302,-3257
1,720,54332,-9694,-14518,2644,-617,-442,-3253
1,721,54337,-9560,-14503,2481,-635,-676,-3251
1,722,54342,-9367,-14490,1175,-648,-869,-3240
1,723,54347,-8848,-14592,261,-660,-922,-3223
1,724,54352,-8353,-14813,338,-674,-880,-3202
1,725,54357,-8009,-15074,1347,-690,-842,-3181
1,726,54362,-8081,-15254,2115,-711,-869,-3165
1,727,54367,-8223,-15153,1921,-735,-899,-3151
1,728,54372,-8178,-15035,1193,-752,-841,-3126
1,729,54377,-7843,-15060,386,-768,-683,-3102
1,730,54382,-6992,-15342,106,-774,-492,-3074
1,731,54387,-6149,-15882,218,-770,-356,-3047
1,732,54392,-6418,-16161,830,-774,-301,-3035
1,733,54397,-6713,-15751,1902,-780,-330,-3012
1,734,54402,-6630,-15860,1995,-783,-387,-2968
1,735,54407,-6572,-15536,2142,-789,-401,-2938
1,736,54412,-5226,-15862,2142,-796,-415,-2896
1,737,54417,-5089,-16057,2507,-803,-452,-2877
1,738,54422,-5172,-16032,2524,-804,-536,-2866
1,739,54427,-5595,-16040,2254,-803,-622,-2842
1,740,54432,-5471,-16006,1183,-811,-641,-2811
1,741,54437,-5161,-16132,388,-818,-549,-2771
1,742,54442,-4932,-16285,461,-828,-421,-2742
1,743,54447,-5007,-16451,4,-821,-310,-2723
1,744,54452,-5502,-16550,-413,-812,-189,-2702
1,745,54457,-4932,-16581,-238,-805,-41,-2657
1,746,54462,-3315,-17031,164,-793,142,-2601
1,747,54467,-2242,-17225,732,-785,315,-2579
1,748,54472,-1771,-17331,690,-774,394,-2570
1,749,54477,-2349,-17404,512,-765,398,-2558
1,750,54482,-2990,-16902,403,-760,380,-2539
1,751,54487,-2046,-17214,-214,-754,404,-2495
1,752,54492,-2527,-17386,528,-750,487,-2479
1,753,54497,-3756,-16670,4429,-743,496,-2454
1,754,54502,-3567,-16125,3695,-695,343,-2394
1,755,54507,-1570,-16209,-330,-656,295,-2347
1,756,54512,-371,-16093,-1471,-672,358,-2328
1,757,54517,-414,-16074,111,-697,303,-2324
1,758,54522,-1625,-16067,1117,-702,95,-2339
1,759,54527,-2603,-15987,-290,-695,-62,-2344
1,760,54532,-2590,-16296,-1863,-677,71,-2308
1,761,54537,-2851,-16811,-2243,-661,428,-2279
1,762,54542,-3287,-16928,-1639,-645,727,-2264
1,763,54547,-2555,-16707,-620,-632,815,-2244
1,764,54552,-1713,-16389,-309,-613,768,-2233
1,765,54557,-1284,-16127,-400,-590,739,-2224
1,766,54562,-827,-16219,256,-569,720,-2197
1,767,54567,-5070,-9572,2494,-567,588,-2151
1,768,54572,-5203,-10631,-12372,-119,189,-2080
1,769,54577,-4036,3435,-2340,-364,3267,-2965
1,770,54582,5429,-12463,19858,-780,6962,-1753
1,771,54587,3788,-11765,18343,-428,5165,-963
1,772,54592,8778,-26482,22777,-88,3044,-903
1,773,54597,5665,-19862,15801,-306,-1557,-1735
1,774,54602,-32,-14351,-1658,-452,-4205,-1988
1,775,54607,3470,-16244,-8614,-387,-4253,-1752
1,776,54612,-2126,-17231,-5457,-431,-2743,-1567
1,777,54617,2774,-18823,-3900,-547,-1629,-1563
1,778,54622,-411,-16759,98,-505,-1358,-1505
1,779,54627,4968,-18550,-6009,-452,-1511,-1505
1,780,54632,639,-15599,-12082,-391,-995,-1546
1,781,54637,5084,-19035,-12037,-391,108,-1472
1,782,54642,-657,-18047,-3678,-425,1077,-1471
1,783,54647,1968,-18917,-2841,-408,1374,-1408
1,784,54652,4036,-19416,-3033,-369,1478,-1343
1,785,54657,4747,-18899,-1927,-375,1517,-1351
1,786,54662,3120,-18410,-208,-348,1517,-1324
1,787,54667,3013,-18599,2172,-294,1390,-1287
1,788,54672,3234,-18184,2217,-284,1015,-1251
1,789,54677,3653,-17857,2139,-285,597,-1200
1,790,54682,4180,-16960,2405,-303,-209,-1131
1,791,54687,4299,-16763,2173,-295,-589,-1092
1,792,54692,4113,-16275,1005,-288,-894,-1053
1,793,54697,4242,-16201,-526,-279,-1045,-1005
1,794,54702,3791,-16056,-1164,-274,-1028,-962
1,795,54707,3587,-16047,-1637,-273,-936,-922
1,796,54712,3458,-16100,-2374,-259,-815,-877
1,797,54717,3532,-15998,-2958,-247,-648,-842
1,798,54722,3568,-15978,-3151,-240,-433,-808
1,799,54727,3821,-16091,-2882,-223,-197,-768
1,800,54732,4081,-16299,-2390,-199,19,-729
1,801,54737,4334,-16376,-1715,-183,183,-692
1,802,54742,4552,-16299,-1290,-167,277,-652
1,803,54747,4638,-16190,-1137,-150,339,-608
1,804,54752,4469,-15994,-1321,-141,403,-572
1,805,54757,4110,-16017,-1632,-128,476,-538
1,806,54762,3803,-15943,-1668,-110,548,-503
1,807,54767,3613,-15880,-1410,-96,600,-469
1,808,54772,3606,-15827,-1093,-86,622,-441
1,809,54777,3930,-15671,-921,-73,612,-408
1,810,54782,4239,-15715,-495,-60,584,-375
1,811,54787,4193,-15667,-26,-50,518,-353
1,812,54792,4127,-15695,79,-35,409,-327
1,813,54797,4203,-15787,-230,-31,297,-300
1,814,54802,4268,-15833,-423,-23,204,-275
1,815,54807,4141,-15854,-336,-19,118,-251
1,816,54812,4018,-15859,-290,-16,27,-224
1,817,54817,3896,-15903,-400,-12,-56,-201
1,818,54822,3812,-15886,-842,-7,-108,-171
1,819,54827,3995,-15865,-1126,1,-106,-140
1,820,54832,4150,-15742,-1195,8,-67,-113
1,821,54837,4365,-15661,-1347,15,-18,-88
1,822,54842,4446,-15602,-1783,21,34,-68
1,823,54847,4413,-15513,-2228,27,102,-48
1,824,54852,4352,-15574,-2218,29,185,-31
1,825,54857,4436,-15677,-2038,31,269,-9
1,826,54862,4502,-15747,-1868,40,345,10
1,827,54867,4614,-15817,-1771,46,408,25
1,828,54872,4660,-15843,-1598,47,451,44
1,829,54877,4734,-15810,-1405,52,466,61
1,830,54882,4847,-15803,-1052,57,453,79
1,831,54887,4884,-15791,-868,62,414,88
1,832,54892,4829,-15838,-756,64,369,104
1,833,54897,4799,-15928,-723,66,324,122
1,834,54902,4809,-16081,-664,67,279,136
1,835,54907,4812,-16187,-635,72,229,154
1,836,54912,4763,-16201,-745,73,188,169
1,837,54917,4794,-16186,-1005,78,155,179
1,838,54922,4961,-16162,-1101,78,134,191
1,839,54927,5178,-16061,-1052,76,123,202
1,840,54932,5218,-15924,-1111,76,116,207
1,841,54937,5030,-15822,-1325,77,122,212
1,842,54942,4886,-15826,-1758,80,151,220
1,843,54947,4782,-15824,-2056,83,215,230
1,844,54952,4743,-15832,-2089,81,303,236
1,845,54957,4636,-15864,-2017,84,390,240
1,846,54962,4514,-15862,-2037,87,468,238
1,847,54967,4371,-15903,-1947,88,528,237
1,848,54972,4281,-15975,-1750,89,568,236
1,849,54977,4326,-16028,-1273,91,578,230
1,850,54982,4348,-16075,-708,92,541,232
1,851,54987,4303,-16108,-496,92,464,231
1,852,54992,4295,-16121,-519,94,363,228
1,853,54997,4414,-16139,-567,92,257,225
1,854,55002,4540,-16104,-446,93,155,226
1,855,55007,4562,-16073,-429,91,52,224
1,856,55012,4554,-16018,-669,90,-41,222
1,857,55017,4445,-15961,-972,92,-107,220
1,858,55022,4343,-15920,-1327,94,-131,216
1,859,55027,4312,-15882,-1622,97,-114,215
1,860,55032,4302,-15847,-1625,97,-74,212
1,861,55037,4351,-15887,-1648,97,-19,205
1,862,55042,4397,-15931,-1697,100,42,195
1,863,55047,4355,-15961,-1709,101,175,180
1,864,55052,4242,-15940,-1437,101,228,176
1,865,55057,4082,-15912,-1258,101,271,169
1,866,55062,4035,-15899,-1293,103,301,163
1,867,55067,4039,-15885,-1150,102,323,158
1,868,55072,4141,-15846,-894,101,320,153
1,869,55077,4219,-15815,-630,103,287,146
1,870,55082,4247,-15834,-480,99,232,137
1,871,55087,4292,-15818,-431,95,169,130
1,872,55092,4293,-15900,-469,97,107,129
1,873,55097,4307,-15875,-495,93,57,123
1,874,55102,4264,-15833,-623,91,17,117
1,875,55107,4255,-15789,-831,91,-15,114
1,876,55112,4210,-15754,-1004,86,-29,109
1,877,55117,4206,-15772,-1160,83,-24,101
1,878,55122,4144,-15791,-1315,78,-4,95
1,879,55127,4050,-15791,-1297,76,34,89
1,880,55132,4065,-15774,-1278,76,77,83
1,881,55137,4043,-15763,-1332,73,125,79
1,882,55142,4040,-15810,-1355,72,174,74
1,883,55147,4083,-15896,-1227,70,211,70
1,884,55152,4039,-15935,-1025,66,230,65
1,885,55157,4024,-15952,-750,65,229,58
1,886,55162,3963,-15952,-565,57,214,53
1,887,55167,3937,-15908,-545,54,191,46
1,888,55172,3954,-15868,-527,55,160,45
1,889,55177,3957,-15854,-521,52,129,40
1,890,55182,3927,-15792,-584,52,91,38
1,891,55187,3942,-15743,-585,49,45,33
1,892,55192,3953,-15732,-565,46,-3,27
1,893,55197,3941,-15700,-558,42,-54,23
1,894,55202,3988,-15802,-637,39,-99,20
1,895,55207,3937,-15846,-698,36,-129,15
1,896,55212,3878,-15827,-784,33,-141,12
1,897,55217,3851,-15838,-887,33,-143,11
1,898,55222,3939,-15865,-1106,28,-125,7
1,899,55227,4031,-15823,-1129,25,-89,4
1,900,55232,4020,-15797,-1030,26,-51,0
1,901,55237,3967,-15834,-1025,25,-13,-2
1,902,55242,3931,-15877,-1104,22,30,-8
1,903,55247,3868,-15916,-1056,17,81,-9
1,904,55252,3898,-15910,-1014,18,130,-10
1,905,55257,3949,-15932,-952,18,161,-11
1,906,55262,3983,-15905,-864,11,178,-12
1,907,55267,4006,-15973,-770,7,183,-14
1,908,55272,3996,-15989,-588,7,179,-19
1,909,55277,3964,-15984,-530,3,164,-20
1,910,55282,3957,-16034,-574,3,146,-21
1,911,55287,4013,-16111,-661,-1,125,-22
1,912,55292,3991,-16091,-593,-6,97,-23
1,913,55297,3985,-15966,-540,-6,62,-27
1,914,55302,4006,-15938,-599,-7,25,-31
1,915,55307,4064,-15832,-667,-11,-4,-32
1,916,55312,4150,-15793,-714,-14,-23,-35
1,917,55317,4175,-15742,-596,-19,-31,-37
1,918,55322,4159,-15691,-503,-20,-39,-40
1,919,55327,4166,-15713,-714,-21,-38,-43
1,920,55332,4213,-15737,-935,-23,-16,-43
1,921,55337,4274,-15873,-992,-24,15,-39
1,922,55342,4333,-15957,-961,-25,45,-39
1,923,55347,4329,-16029,-816,-27,71,-45
1,924,55352,4292,-16023,-818,-27,86,-46
1,925,55357,4247,-16020,-905,-23,105,-45
1,926,55362,4254,-15984,-961,-25,128,-45
1,927,55367,4203,-16003,-877,-24,141,-48
1,928,55372,4117,-15977,-844,-22,136,-50
1,929,55377,3996,-15957,-851,-23,121,-49
1,930,55382,3922,-15967,-855,-24,102,-51
1,931,55387,4002,-15940,-776,-25,79,-55
1,932,55392,4012,-15930,-706,-20,56,-55
1,933,55397,4117,-15971,-667,-18,24,-59
1,934,55402,4120,-16002,-664,-18,-13,-61
1,935,55407,4032,-16057,-695,-18,-51,-65
1,936,55412,4000,-16064,-879,-19,-85,-63
1,937,55417,3984,-16075,-971,-18,-80,-66
1,938,55422,3968,-16126,-1043,-15,-63,-64
1,939,55427,4018,-16101,-978,-14,-36,-61
1,940,55432,4113,-16067,-980,-15,-8,-60
1,941,55437,4154,-16002,-1085,-12,24,-60
1,942,55442,4175,-15975,-1162,-12,60,-58
1,943,55447,4142,-16004,-1128,-14,97,-58
1,944,55452,4133,-16029,-1112,-12,133,-57
1,945,55457,4126,-15982,-1090,-9,159,-55
1,946,55462,4057,-15987,-1058,-10,186,-57
1,947,55467,4008,-15946,-934,-9,203,-57
1,948,55472,3999,-15938,-822,-8,212,-57
1,949,55477,3971,-15956,-613,-3,200,-55
1,950,55482,4018,-15979,-447,-4,168,-52
1,951,55487,4087,-16053,-193,-6,120,-50
1,952,55492,4208,-16049,-70,-7,65,-46
1,953,55497,4201,-16007,-40,-5,2,-46
1,954,55502,4229,-15885,-82,-8,-54,-44
1,955,55507,4258,-15783,-172,-9,-109,-36
1,956,55512,4305,-15695,-360,-11,-148,-31
1,957,55517,4387,-15670,-602,-10,-165,-26
1,958,55522,4311,-15650,-661,-12,-167,-25
1,959,55527,4222,-15686,-722,-14,-160,-21
1,960,55532,4195,-15711,-924,-14,-137,-21
1,961,55537,4159,-15776,-1058,-14,-91,-18
1,962,55542,4162,-15892,-1154,-15,-34,-15
1,963,55547,4151,-15972,-1137,-13,22,-12
1,964,55552,4157,-16002,-1061,-8,72,-8
1,965,55557,4158,-16062,-1069,-8,117,-8
1,966,55562,4179,-16070,-1016,-8,150,-4
1,967,55567,4152,-16060,-879,-7,170,0
1,968,55572,4122,-16059,-748,-7,173,2
1,969,55577,4129,-16048,-611,-2,157,7
1,970,55582,4108,-16008,-585,-3,136,11
1,971,55587,4110,-15945,-487,-4,113,16
1,972,55592,4059,-15871,-342,-3,83,22
1,973,55597,3996,-15832,-288,-5,41,26
1,974,55602,4033,-15794,-419,-5,1,27
1,975,55607,4062,-15806,-518,-6,-23,30
1,976,55612,3980,-15844,-508,-4,-32,32
1,977,55617,4005,-15830,-601,-2,-38,36
1,978,55622,3943,-15834,-699,-3,-34,35
1,979,55627,3940,-15804,-843,0,-24,40
1,980,55632,3949,-15726,-987,-1,0,44
1,981,55637,3959,-15761,-915,0,32,46
1,982,55642,4013,-15779,-821,2,51,43
1,983,55647,3996,-15771,-735,6,62,45
1,984,55652,4017,-15797,-660,6,70,49
1,985,55657,4025,-15806,-566,7,72,53
1,986,55662,4063,-15836,-445,7,70,54
1,987,55667,4082,-15909,-441,6,62,57
1,988,55672,4062,-15906,-496,8,53,58
1,989,55677,4041,-15934,-596,10,43,62
1,990,55682,4016,-15878,-587,9,40,66
1,991,55687,4017,-15854,-601,12,36,69
1,992,55692,3996,-15836,-593,11,34,69
1,993,55697,3958,-15813,-585,11,33,70
1,994,55702,3895,-15817,-544,10,36,72
1,995,55707,3883,-15810,-608,10,43,74
1,996,55712,3875,-15772,-593,8,51,74
1,997,55717,3859,-15755,-668,7,57,77
1,998,55722,3868,-15810,-711,11,64,79
1,999,55727,3955,-15850,-711,10,69,78
