event_id,seq,ts_ms,ax,ay,az,gx,gy,gz
1,0,30407,-2338,-16227,-1518,4,-8,-5
1,1,30412,-2323,-16178,-1479,3,-8,-4
1,2,30417,-2308,-16210,-1480,1,-5,-2
1,3,30422,-2343,-16182,-1418,2,-4,-3
1,4,30427,-2357,-16204,-1375,1,-6,-2
1,5,30432,-2376,-16223,-1439,4,-6,-1
1,6,30437,-2363,-16220,-1443,6,-6,0
1,7,30442,-2362,-16208,-1378,4,-6,-1
1,8,30447,-2398,-16196,-1410,4,-8,-2
1,9,30452,-2392,-16225,-1366,5,-9,-2
1,10,30457,-2397,-16242,-1376,5,-9,-5
1,11,30462,-2401,-16198,-1387,3,-6,-3
1,12,30467,-2369,-16182,-1401,3,-5,-2
1,13,30472,-2393,-16212,-1397,2,-8,-3
1,14,30477,-2409,-16187,-1398,3,-6,-3
1,15,30482,-2370,-16220,-1374,4,-9,-2
1,16,30487,-2352,-16204,-1420,4,-10,-2
1,17,30492,-2386,-16218,-1409,2,-8,-6
1,18,30497,-2398,-16224,-1420,3,-6,-5
1,19,30502,-2348,-16253,-1476,2,-8,-3
1,20,30507,-2303,-16194,-1428,4,-6,-4
1,21,30512,-2320,-16194,-1378,3,-6,-4
1,22,30517,-2349,-16210,-1443,2,-10,-3
1,23,30522,-2328,-16210,-1442,4,-12,-4
1,24,30527,-2325,-16222,-1442,1,-8,-5
1,25,30532,-2348,-16211,-1340,2,-6,-3
1,26,30537,-2313,-16204,-1303,5,-3,-2
1,27,30542,-2320,-16187,-1351,3,-6,-4
1,28,30547,-2409,-16189,-1370,5,-7,0
1,29,30552,-2386,-16209,-1404,1,-6,-1
1,30,30557,-2369,-16185,-1364,2,-6,-2
1,31,30562,-2401,-16224,-1398,0,-5,-2
1,32,30567,-2407,-16229,-1438,1,-10,-2
1,33,30572,-2416,-16180,-1426,0,-7,-4
1,34,30577,-2383,-16210,-1440,0,-7,-4
1,35,30582,-2324,-16193,-1402,1,-6,-5
1,36,30587,-2346,-16187,-1410,2,-8,-6
1,37,30592,-2350,-16220,-1376,2,-9,-7
1,38,30597,-2345,-16197,-1393,1,-7,-6
1,39,30602,-2371,-16218,-1399,3,-6,-7
1,40,30607,-2388,-16227,-1435,2,-6,-6
1,41,30612,-2323,-16200,-1407,2,-6,-3
1,42,30617,-2326,-16196,-1423,0,-7,-5
1,43,30622,-2344,-16201,-1393,2,-9,-2
1,44,30627,-2346,-16205,-1398,0,-9,-5
1,45,30632,-2341,-16214,-1461,0,-8,-2
1,46,30637,-2357,-16203,-1422,4,-5,0
1,47,30642,-2343,-16189,-1393,2,-10,-3
1,48,30647,-2372,-16206,-1413,2,-9,-5
1,49,30652,-2380,-16201,-1429,4,-10,-3
1,50,30657,-2346,-16220,-1452,3,-7,-5
1,51,30662,-2386,-16191,-1441,1,-4,-6
1,52,30667,-2359,-16213,-1414,2,-5,-4
1,53,30672,-2344,-16198,-1413,3,-7,-2
1,54,30677,-2342,-16159,-1396,3,-6,-5
1,55,30682,-2353,-16183,-1401,3,-8,-4
1,56,30687,-2377,-16206,-1389,3,-9,-2
1,57,30692,-2333,-16218,-1400,2,-9,0
1,58,30697,-2348,-16223,-1369,0,-7,-3
1,59,30702,-2386,-16209,-1389,2,-6,-3
1,60,30707,-2355,-16211,-1373,2,-8,-3
1,61,30712,-2384,-16220,-1399,1,-7,-3
1,62,30717,-2388,-16213,-1392,3,-7,-4
1,63,30722,-2409,-16211,-1357,2,-6,-4
1,64,30727,-2390,-16181,-1387,4,-7,-2
1,65,30732,-2351,-16196,-1352,4,-9,-2
1,66,30737,-2337,-16224,-1418,3,-9,-3
1,67,30742,-2351,-16182,-1436,4,-8,-4
1,68,30747,-2349,-16180,-1406,1,-6,-3
1,69,30752,-2334,-16196,-1381,0,-6,-3
1,70,30757,-2347,-16214,-1423,4,-8,-2
1,71,30762,-2349,-16199,-1423,3,-10,-4
1,72,30767,-2386,-16225,-1454,1,-5,-3
1,73,30772,-2305,-16193,-1459,2,-4,-1
1,74,30777,-2338,-16199,-1408,2,-6,-3
1,75,30782,-2318,-16191,-1410,5,-7,-4
1,76,30787,-2328,-16194,-1456,5,-9,-5
1,77,30792,-2351,-16195,-1427,7,-9,-5
1,78,30797,-2368,-16232,-1406,4,-6,-2
1,79,30802,-2359,-16224,-1411,2,-8,-2
1,80,30807,-2371,-16209,-1422,2,-11,-1
1,81,30812,-2383,-16191,-1397,3,-9,-3
1,82,30817,-2386,-16219,-1338,5,-6,-1
1,83,30822,-2329,-16192,-1348,3,-9,-2
1,84,30827,-2320,-16176,-1375,4,-9,-4
1,85,30832,-2318,-16208,-1407,2,-7,-5
1,86,30837,-2399,-16197,-1368,4,-7,-3
1,87,30842,-2404,-16227,-1417,2,-7,-3
1,88,30847,-2376,-16248,-1459,2,-8,-2
1,89,30852,-2323,-16226,-1427,5,-8,-3
1,90,30857,-2309,-16174,-1386,3,-1,-3
1,91,30862,-2323,-16208,-1387,2,-1,-4
1,92,30867,-2413,-16242,-1485,2,-8,-2
1,93,30872,-2427,-16239,-1471,4,-14,-3
1,94,30877,-2432,-16242,-1363,1,-11,0
1,95,30882,-2389,-16202,-1308,3,-3,-3
1,96,30887,-2375,-16180,-1315,4,-1,-5
1,97,30892,-2431,-16205,-1288,1,-5,-3
1,98,30897,-2414,-16202,-1366,-1,-9,-4
1,99,30902,-2423,-16191,-1415,3,-7,-6
1,100,30907,-2375,-16204,-1351,2,-7,-5
1,101,30912,-2378,-16210,-1334,1,-9,-6
1,102,30917,-2381,-16196,-1381,-2,-9,-5
1,103,30922,-2391,-16235,-1481,1,-6,-6
1,104,30927,-2336,-16218,-1465,2,-6,-5
1,105,30932,-2325,-16212,-1470,0,-4,-7
1,106,30937,-2347,-16195,-1428,2,-6,-3
1,107,30942,-2335,-16219,-1414,2,-10,-3
1,108,30947,-2322,-16210,-1474,1,-9,-3
1,109,30952,-2359,-16189,-1474,4,-8,-3
1,110,30957,-2332,-16215,-1396,0,-6,-4
1,111,30962,-2305,-16221,-1416,3,-6,-3
1,112,30967,-2337,-16185,-1418,2,-5,-5
1,113,30972,-2360,-16216,-1416,6,-8,1
1,114,30977,-2336,-16213,-1420,6,-9,2
1,115,30982,-2349,-16198,-1412,1,-8,-1
1,116,30987,-2360,-16224,-1387,1,-8,-4
1,117,30992,-2366,-16182,-1347,4,-6,-3
1,118,30997,-2393,-16195,-1395,0,-8,-3
1,119,31002,-2421,-16205,-1462,1,-8,-6
1,120,31007,-2423,-16203,-1408,2,-8,-5
1,121,31012,-2396,-16212,-1418,2,-6,-6
1,122,31017,-2398,-16187,-1348,3,-6,-3
1,123,31022,-2369,-16203,-1343,3,-6,-5
1,124,31027,-2380,-16214,-1389,4,-5,-6
1,125,31032,-2385,-16221,-1430,3,-6,-4
1,126,31037,-2366,-16232,-1379,2,-4,-3
1,127,31042,-2327,-16225,-1393,3,-7,-4
1,128,31047,-2348,-16199,-1380,2,-4,-5
1,129,31052,-2389,-16225,-1346,6,-7,-4
1,130,31057,-2327,-16224,-1405,3,-9,-5
1,131,31062,-2335,-16177,-1428,0,-6,-4
1,132,31067,-2366,-16198,-1371,2,-6,-4
1,133,31072,-2366,-16186,-1387,1,-5,-3
1,134,31077,-2384,-16196,-1423,0,-6,-5
1,135,31082,-2402,-16203,-1413,3,-9,-3
1,136,31087,-2403,-16218,-1403,3,-8,-4
1,137,31092,-2388,-16217,-1434,1,-7,-2
1,138,31097,-2375,-16220,-1451,3,-8,-3
1,139,31102,-2356,-16211,-1415,1,-6,-4
1,140,31107,-2344,-16194,-1399,3,-8,-4
1,141,31112,-2355,-16214,-1404,5,-9,-4
1,142,31117,-2358,-16201,-1368,1,-5,-3
1,143,31122,-2360,-16194,-1357,1,-4,-5
1,144,31127,-2349,-16218,-1376,2,-6,-3
1,145,31132,-2323,-16225,-1390,2,-9,-3
1,146,31137,-2300,-16191,-1393,2,-5,-6
1,147,31142,-2299,-16211,-1325,0,-6,-3
1,148,31147,-2352,-16191,-1365,0,-8,-4
1,149,31152,-2403,-16167,-1413,1,-11,-5
1,150,31157,-2386,-16215,-1470,3,-8,0
1,151,31162,-2355,-16198,-1424,0,-3,-3
1,152,31167,-2370,-16218,-1364,0,-4,-5
1,153,31172,-2360,-16193,-1395,0,-7,-2
1,154,31177,-2360,-16200,-1461,1,-9,-4
1,155,31182,-2428,-16198,-1494,3,-7,-5
1,156,31187,-2411,-16200,-1484,3,-8,-5
1,157,31192,-2320,-16196,-1458,2,-4,-6
1,158,31197,-2309,-16193,-1410,1,-4,-6
1,159,31202,-2378,-16196,-1369,1,-6,-6
1,160,31207,-2353,-16211,-1445,3,-8,-5
1,161,31212,-2313,-16197,-1456,2,-7,-2
1,162,31217,-2315,-16192,-1411,3,-7,-4
1,163,31222,-2293,-16207,-1380,5,-5,-4
1,164,31227,-2337,-16239,-1329,4,-5,-1
1,165,31232,-2375,-16202,-1378,3,-10,-5
1,166,31237,-2396,-16158,-1484,4,-10,-1
1,167,31242,-2365,-16204,-1433,2,-7,-1
1,168,31247,-2417,-16217,-1361,2,-5,-4
1,169,31252,-2387,-16219,-1346,2,-5,-2
1,170,31257,-2368,-16230,-1369,0,-9,-4
1,171,31262,-2424,-16217,-1406,0,-10,-6
1,172,31267,-2450,-16245,-1402,2,-11,-3
1,173,31272,-2370,-16215,-1346,3,-5,-4
1,174,31277,-2333,-16205,-1342,1,-7,-3
1,175,31282,-2349,-16218,-1317,2,-5,-3
1,176,31287,-2362,-16202,-1421,0,-9,-7
1,177,31292,-2369,-16274,-1486,4,-9,-4
1,178,31297,-2354,-16239,-1372,-1,-5,-7
1,179,31302,-2357,-16145,-1325,-1,-7,-6
1,180,31307,-2354,-16227,-1439,0,-11,-4
1,181,31312,-2307,-16232,-1471,0,-9,-4
1,182,31317,-2319,-16175,-1476,0,-8,-4
1,183,31322,-2334,-16232,-1427,1,-6,-3
1,184,31327,-2303,-16223,-1415,-1,-4,-7
1,185,31332,-2294,-16233,-1443,2,-8,-1
1,186,31337,-2357,-16238,-1475,3,-8,0
1,187,31342,-2322,-16195,-1491,1,-6,-4
1,188,31347,-2302,-16211,-1478,3,-5,-2
1,189,31352,-2324,-16223,-1406,4,-5,-3
1,190,31357,-2310,-16193,-1413,5,-8,-2
1,191,31362,-2313,-16207,-1423,1,-10,-1
1,192,31367,-2376,-16218,-1424,1,-9,-4
1,193,31372,-2373,-16176,-1445,3,-8,-2
1,194,31377,-2343,-16206,-1420,4,-9,1
1,195,31382,-2376,-16205,-1396,6,-7,-2
1,196,31387,-2399,-16178,-1448,4,-6,-4
1,197,31392,-2408,-16206,-1467,2,-9,-2
1,198,31397,-2366,-16199,-1427,2,-6,-4
1,199,31402,-2373,-16165,-1382,3,-4,-4
1,200,31407,-2355,-16221,-1348,3,-6,-4
1,201,31412,-2367,-16194,-1305,4,-8,-4
1,202,31417,-2370,-16166,-1341,5,-9,0
1,203,31422,-2388,-16189,-1332,3,-10,-2
1,204,31427,-2375,-16202,-1347,2,-7,-6
1,205,31432,-2348,-16202,-1291,0,-5,-4
1,206,31437,-2386,-16206,-1302,-1,-7,-3
1,207,31442,-2422,-16195,-1402,1,-6,-4
1,208,31447,-2395,-16211,-1441,0,-5,-2
1,209,31452,-2400,-16209,-1429,0,-5,-2
1,210,31457,-2366,-16219,-1408,2,-6,-1
1,211,31462,-2314,-16223,-1433,-2,-6,-5
1,212,31467,-2373,-16201,-1441,1,-9,-4
1,213,31472,-2397,-16197,-1492,3,-9,-5
1,214,31477,-2409,-16193,-1466,-1,-6,-6
1,215,31482,-2360,-16201,-1450,2,-7,-5
1,216,31487,-2317,-16222,-1376,1,-4,-6
1,217,31492,-2305,-16204,-1398,0,-6,-4
1,218,31497,-2333,-16189,-1438,2,-8,-5
1,219,31502,-2326,-16237,-1367,5,-10,-3
1,220,31507,-2319,-16225,-1381,1,-7,-4
1,221,31512,-2338,-16209,-1425,3,-8,-6
1,222,31517,-2348,-16216,-1441,3,-5,-4
1,223,31522,-2352,-16178,-1370,-1,-5,-2
1,224,31527,-2367,-16189,-1401,0,-6,0
1,225,31532,-2310,-16226,-1407,1,-6,-4
1,226,31537,-2376,-16219,-1446,-1,-7,-4
1,227,31542,-2462,-16218,-1474,2,-8,-1
1,228,31547,-2403,-16213,-1459,1,-7,-4
1,229,31552,-2363,-16169,-1459,3,-8,-2
1,230,31557,-2384,-16199,-1414,4,-7,-1
1,231,31562,-2378,-16211,-1366,3,-8,-6
1,232,31567,-2353,-16236,-1415,2,-8,-5
1,233,31572,-2361,-16213,-1439,4,-8,1
1,234,31577,-2344,-16190,-1409,2,-8,-5
1,235,31582,-2309,-16199,-1362,0,-7,-5
1,236,31587,-2353,-16208,-1335,0,-9,-3
1,237,31592,-2360,-16185,-1370,3,-11,-4
1,238,31597,-2373,-16236,-1415,3,-9,-3
1,239,31602,-2381,-16233,-1393,1,-2,-3
1,240,31607,-2324,-16220,-1373,3,-4,-3
1,241,31612,-2305,-16197,-1431,4,-10,-4
1,242,31617,-2333,-16228,-1448,2,-8,-1
1,243,31622,-2366,-16228,-1498,1,-8,-3
1,244,31627,-2397,-16210,-1473,2,-9,-4
1,245,31632,-2337,-16217,-1452,2,-9,-5
1,246,31637,-2359,-16214,-1404,4,-5,-1
1,247,31642,-2378,-16168,-1354,4,-7,-3
1,248,31647,-2403,-16194,-1447,6,-9,-5
1,249,31652,-2374,-16211,-1362,3,-7,-5
1,250,31657,-2377,-16180,-1319,1,-6,-6
1,251,31662,-2373,-16191,-1356,0,-6,-3
1,252,31667,-2378,-16175,-1403,1,-8,-3
1,253,31672,-2404,-16228,-1401,0,-7,-3
1,254,31677,-2352,-16213,-1371,0,-5,-5
1,255,31682,-2368,-16201,-1351,0,-6,-4
1,256,31687,-2352,-16215,-1382,2,-7,-4
1,257,31692,-2337,-16217,-1478,-1,-9,-4
1,258,31697,-2365,-16193,-1462,1,-8,-4
1,259,31702,-2333,-16193,-1450,2,-4,-3
1,260,31707,-2324,-16226,-1414,0,-5,-2
1,261,31712,-2360,-16215,-1402,2,-6,-1
1,262,31717,-2362,-16220,-1419,3,-7,-3
1,263,31722,-2363,-16225,-1475,3,-7,-4
1,264,31727,-2382,-16205,-1522,2,-4,-3
1,265,31732,-2336,-16227,-1442,3,-5,-3
1,266,31737,-2325,-16216,-1389,3,-6,-3
1,267,31742,-2359,-16220,-1413,5,-7,-3
1,268,31747,-2374,-16223,-1409,3,-9,-5
1,269,31752,-2390,-16217,-1375,5,-9,-4
1,270,31757,-2415,-16204,-1117,5,-8,-1
1,271,31762,-2442,-16141,-886,1,-9,-2
1,272,31767,-2535,-16151,-1056,-3,-18,-5
1,273,31772,-2562,-16207,-1379,-3,-13,-4
1,274,31777,-2468,-16235,-1594,-3,1,-8
1,275,31782,-2321,-16196,-1656,-6,11,-7
1,276,31787,-2246,-16235,-1478,-2,8,-9
1,277,31792,-2235,-16166,-1455,1,-8,-8
1,278,31797,-2356,-16184,-1546,0,-20,-3
1,279,31802,-2392,-16254,-1633,4,-23,-3
1,280,31807,-2374,-16199,-1707,3,-11,-6
1,281,31812,-2338,-16224,-1558,1,-1,-3
1,282,31817,-2249,-16237,-1390,3,3,-5
1,283,31822,-2249,-16210,-1354,3,-3,-6
1,284,31827,-2300,-16197,-1383,2,-13,-1
1,285,31832,-2328,-16201,-1359,1,-16,-2
1,286,31837,-2322,-16205,-1365,2,-10,-3
1,287,31842,-2315,-16182,-1305,3,-6,0
1,288,31847,-2316,-16206,-1288,4,-6,-4
1,289,31852,-2274,-16182,-1365,4,-7,-2
1,290,31857,-2314,-16212,-1436,2,-6,-1
1,291,31862,-2406,-16194,-1407,1,-6,-2
1,292,31867,-2410,-16180,-1326,3,-10,-1
1,293,31872,-2360,-16215,-1437,1,-11,-1
1,294,31877,-2334,-16211,-1571,0,-7,-1
1,295,31882,-2366,-16213,-1546,2,-2,-3
1,296,31887,-2374,-16222,-1458,0,-2,-1
1,297,31892,-2422,-16225,-1304,1,-7,-4
1,298,31897,-2448,-16207,-1350,0,-16,-3
1,299,31902,-2384,-16231,-1478,0,-14,-4
1,300,31907,-2296,-16256,-1503,4,-3,-3
1,301,31912,-2361,-16253,-1355,3,3,-4
1,302,31917,-2401,-16206,-1266,2,-2,-6
1,303,31922,-2387,-16193,-1296,3,-16,-4
1,304,31927,-2351,-16210,-1456,4,-12,-3
1,305,31932,-2289,-16194,-1411,3,-4,-6
1,306,31937,-2373,-16221,-1432,2,1,-4
1,307,31942,-2339,-16216,-1373,1,-1,-4
1,308,31947,-2352,-16198,-1388,1,-13,-6
1,309,31952,-2310,-16175,-1427,0,-11,-2
1,310,31957,-2283,-16224,-1506,1,-4,-4
1,311,31962,-2320,-16246,-1509,2,-2,-4
1,312,31967,-2328,-16201,-1424,3,-2,-3
1,313,31972,-2310,-16223,-1427,4,-8,-2
1,314,31977,-2341,-16218,-1409,3,-13,-2
1,315,31982,-2297,-16211,-1459,0,-12,-2
1,316,31987,-2381,-16203,-1464,4,-7,-1
1,317,31992,-2372,-16201,-1407,2,-3,-4
1,318,31997,-2410,-16202,-1320,4,-5,-3
1,319,32002,-2426,-16217,-1300,5,-12,-2
1,320,32007,-2385,-16212,-1332,3,-12,-1
1,321,32012,-2406,-16223,-1329,3,-9,-4
1,322,32017,-2440,-16166,-1375,2,-2,-5
1,323,32022,-2475,-16183,-1459,6,-6,-6
1,324,32027,-2544,-16220,-1420,4,-7,-8
1,325,32032,-2588,-16214,-1361,2,-12,-7
1,326,32037,-2583,-16213,-1349,1,-9,-9
1,327,32042,-2506,-16201,-1391,2,-5,-11
1,328,32047,-2153,-16217,-1500,1,1,-12
1,329,32052,-1906,-16232,-1617,0,12,-11
1,330,32057,-1749,-16254,-1929,3,15,-8
1,331,32062,-1671,-16210,-2069,8,9,-4
1,332,32067,-2045,-16279,-1712,11,0,1
1,333,32072,-2679,-16232,-966,8,-29,4
1,334,32077,-2316,-16080,-1429,12,-65,7
1,335,32082,-1454,-16278,-2102,16,-23,12
1,336,32087,-2256,-16318,-1272,10,63,3
1,337,32092,-3759,-15989,-244,5,30,-7
1,338,32097,-3240,-16200,-1553,20,-97,10
1,339,32102,-1757,-16375,-2951,20,-65,11
1,340,32107,-59,-16259,-3945,17,64,-3
1,341,32112,828,-16486,-5232,26,149,1
1,342,32117,-83,-16474,-3868,46,144,8
1,343,32122,-1599,-16552,-3167,42,-21,29
1,344,32127,-2365,-16356,-2900,42,-182,28
1,345,32132,-3330,-16039,-2387,47,-102,18
1,346,32137,-3731,-16234,-1247,54,94,29
1,347,32142,-3590,-16394,0,50,241,22
1,348,32147,-3517,-15810,1089,42,273,-13
1,349,32152,-3231,-15911,833,49,205,10
1,350,32157,-2890,-16227,221,48,196,9
1,351,32162,-2832,-16034,-206,31,231,-17
1,352,32167,-3112,-16245,51,14,240,-12
1,353,32172,-3477,-16117,360,7,196,-21
1,354,32177,-3681,-15956,268,9,138,-21
1,355,32182,-3871,-16135,125,10,112,-17
1,356,32187,-3837,-16229,15,5,79,-25
1,357,32192,-4134,-16173,76,0,-4,-25
1,358,32197,-4769,-16194,-397,-2,-135,-13
1,359,32202,-4817,-16317,-2109,7,-249,-13
1,360,32207,-4796,-16386,-3251,15,-256,-30
1,361,32212,-4204,-16649,-3625,22,-265,-33
1,362,32217,-2957,-16667,-3458,22,-358,-19
1,363,32222,-2240,-16250,-2948,23,-506,-13
1,364,32227,-2046,-16170,-2695,43,-670,-10
1,365,32232,-2584,-16312,-2414,66,-796,-11
1,366,32237,-3137,-16503,-2895,70,-888,-6
1,367,32242,-3691,-16639,-2259,66,-905,2
1,368,32247,-5190,-14926,-1345,73,-906,3
1,369,32252,-4407,-16263,-4833,115,-850,61
1,370,32257,-116,-18007,-7089,110,-504,1
1,371,32262,-1362,-16733,-1696,35,45,-118
1,372,32267,-3607,-15629,-475,54,-160,-93
1,373,32272,-4528,-16005,-1885,110,-549,-51
1,374,32277,-4322,-16374,-6800,139,-608,-53
1,375,32282,-3590,-17570,-6809,138,-170,-72
1,376,32287,-3453,-17240,-5812,113,209,-131
1,377,32292,-3732,-16524,-3171,115,303,-158
1,378,32297,-3487,-16272,-3221,143,121,-145
1,379,32302,-3016,-16433,-3825,184,61,-151
1,380,32307,-2419,-16687,-3939,180,253,-172
1,381,32312,-2069,-16460,-2057,157,532,-193
1,382,32317,-1933,-15921,65,153,664,-210
1,383,32322,-1341,-16273,97,173,614,-210
1,384,32327,-87,-16719,-2459,194,606,-223
1,385,32332,-2492,-16024,-621,157,713,-226
1,386,32337,-2756,-15941,966,152,641,-192
1,387,32342,-1652,-15449,-1279,168,508,-163
1,388,32347,-911,-15721,-1781,161,636,-171
1,389,32352,-1852,-16382,-1831,149,827,-199
1,405,32432,-697,-17765,794,173,236,-24
1,406,32437,-760,-17627,887,177,275,-13
1,407,32442,-686,-17465,173,178,296,-7
1,408,32447,-986,-17340,-408,172,328,-4
1,409,32452,-1593,-17403,108,168,342,0
1,410,32457,-2112,-17479,735,163,284,12
1,411,32462,-2240,-17604,1028,167,193,27
1,412,32467,-2215,-17777,903,162,128,38
1,413,32472,-2347,-17890,958,157,98,36
1,414,32477,-2480,-18050,749,155,27,43
1,415,32482,-2404,-18244,181,158,-80,60
1,416,32487,-2389,-18414,-616,160,-168,74
1,417,32492,-2498,-18503,-941,156,-206,79
1,418,32497,-2779,-18429,-751,154,-196,85
1,419,32502,-2838,-18303,-549,151,-170,91
1,420,32507,-2699,-18161,-689,150,-128,98
1,421,32512,-2420,-18199,-996,150,-51,108
1,422,32517,-2241,-18265,-1164,154,23,116
1,423,32522,-1995,-18124,-837,150,52,126
1,424,32527,-2071,-17997,-317,145,25,142
1,425,32532,-2151,-17755,34,142,-25,151
1,426,32537,-2227,-17441,35,140,-43,162
1,427,32542,-2312,-17301,-24,139,-30,176
1,428,32547,-2319,-17159,-37,134,-26,187
1,429,32552,-2174,-16956,-2,133,-60,203
1,430,32557,-2138,-17063,217,136,-114,230
1,431,32562,-2149,-17038,34,129,-175,238
1,432,32567,-2076,-16678,-67,128,-185,246
1,433,32572,-2294,-16633,-206,122,-167,278
1,434,32577,-2327,-16388,-185,121,-159,285
1,435,32582,-2245,-16035,-103,119,-150,289
1,436,32587,-2230,-15968,-29,117,-148,311
1,437,32592,-2212,-15867,-49,116,-138,326
1,438,32597,-2215,-15653,-45,112,-130,336
1,439,32602,-2120,-15582,207,110,-143,358
1,440,32607,-1943,-15423,626,107,-173,373
1,441,32612,-1810,-15279,702,107,-224,387
1,442,32617,-1915,-15266,286,108,-265,404
1,443,32622,-2131,-15218,-31,108,-264,416
1,444,32627,-2177,-15236,-80,105,-250,429
1,445,32632,-2074,-15228,-30,97,-240,442
1,446,32637,-1879,-15218,12,97,-224,455
1,447,32642,-1853,-15177,-104,103,-195,463
1,448,32647,-2123,-15155,-280,101,-147,474
1,449,32652,-2592,-15094,-430,99,-91,485
1,450,32657,-2877,-15139,-377,97,-46,492
1,451,32662,-2783,-15143,-110,96,-20,502
1,452,32667,-2387,-15119,303,99,-28,514
1,453,32672,-2164,-15122,778,100,-65,521
1,454,32677,-2294,-15150,850,103,-128,528
1,455,32682,-2662,-15108,411,102,-169,537
1,456,32687,-2933,-15093,-62,103,-150,547
1,457,32692,-2990,-15053,-219,98,-86,553
1,458,32697,-2979,-14993,-62,97,-7,555
1,459,32702,-3058,-14998,106,92,58,553
1,460,32707,-3199,-15026,196,91,113,550
1,461,32712,-3483,-14962,425,86,172,547
1,462,32717,-3617,-14925,552,88,198,544
1,463,32722,-3637,-14852,604,80,211,542
1,464,32727,-3547,-14915,731,82,194,547
1,465,32732,-3670,-14933,845,80,163,543
1,466,32737,-3843,-14947,859,79,126,544
1,467,32742,-4021,-14961,674,79,97,540
1,468,32747,-4099,-15077,336,73,66,531
1,469,32752,-4041,-15142,411,69,58,525
1,470,32757,-4151,-15233,478,71,44,517
1,471,32762,-4378,-15358,460,69,39,508
1,472,32767,-4520,-15453,109,72,41,499
1,473,32772,-4564,-15521,-68,69,68,487
1,474,32777,-4477,-15579,82,64,79,475
1,475,32782,-4433,-15697,435,65,49,465
1,476,32787,-4439,-15821,296,71,-17,458
1,477,32792,-4366,-15860,83,73,-78,450
1,478,32797,-4092,-15897,326,70,-120,443
1,479,32802,-3949,-15847,528,70,-173,430
1,480,32807,-3956,-15919,409,71,-236,421
1,481,32812,-4048,-16016,-320,79,-284,420
1,482,32817,-4114,-16052,-874,83,-271,405
1,483,32822,-4096,-15978,-936,75,-222,388
1,484,32827,-3873,-15921,-581,74,-169,377
1,485,32832,-3634,-15979,-471,74,-125,364
1,486,32837,-3509,-15968,-522,74,-61,350
1,487,32842,-3588,-15970,-565,75,18,333
1,488,32847,-3897,-15896,-424,71,94,318
1,489,32852,-4100,-16018,-314,71,126,307
1,490,32857,-3981,-16194,-119,72,129,295
1,491,32862,-3794,-16323,-59,69,110,282
1,492,32867,-3753,-16335,199,70,90,269
1,493,32872,-3867,-16273,507,70,45,257
1,494,32877,-3977,-16245,514,67,-29,249
1,495,32882,-4022,-16198,91,71,-94,244
1,496,32887,-4105,-16246,-257,73,-113,233
1,497,32892,-4236,-16227,-381,69,-103,214
1,498,32897,-4328,-16214,-289,67,-93,195
1,499,32902,-4207,-16216,-110,69,-96,181
1,500,32907,-3955,-16166,-54,68,-98,166
1,501,32912,-3785,-16108,21,64,-92,150
1,502,32917,-3862,-16162,51,65,-83,132
1,503,32922,-4059,-16181,-34,66,-86,113
1,504,32927,-3988,-16139,-227,64,-88,100
1,505,32932,-3882,-16107,-298,58,-78,84
1,506,32937,-3685,-16054,-106,55,-70,66
1,507,32942,-3628,-16037,75,55,-70,52
1,508,32947,-3684,-16043,-39,57,-78,40
1,509,32952,-3686,-16037,-281,58,-76,23
1,510,32957,-3727,-15957,-300,55,-59,3
1,511,32962,-3777,-15954,-187,52,-63,-12
1,512,32967,-3773,-16001,-105,54,-75,-29
1,513,32972,-3820,-15995,-166,56,-90,-46
1,514,32977,-3889,-15965,-191,55,-103,-67
1,515,32982,-3977,-15854,181,50,-118,-90
1,516,32987,-3742,-15829,473,49,-162,-100
1,517,32992,-3379,-15817,486,52,-220,-113
1,518,32997,-3148,-15913,215,53,-265,-129
1,519,33002,-3270,-15925,-18,50,-278,-149
1,520,33007,-3492,-15975,-313,49,-284,-166
1,521,33012,-3524,-16077,-544,47,-280,-179
1,522,33017,-3453,-16155,-614,44,-231,-202
1,523,33022,-3448,-16238,-760,43,-154,-225
1,524,33027,-3458,-16290,-749,42,-71,-252
1,525,33032,-3534,-16281,-558,39,-8,-276
1,526,33037,-3466,-16231,-250,35,12,-293
1,527,33042,-3420,-16185,189,31,15,-314
1,528,33047,-3275,-16221,328,32,4,-333
1,529,33052,-3311,-16257,370,32,-8,-356
1,530,33057,-3543,-16271,328,30,-43,-373
1,531,33062,-3882,-16307,253,33,-102,-388
1,532,33067,-3941,-16430,93,33,-160,-409
1,533,33072,-3623,-16510,25,30,-200,-425
1,534,33077,-3292,-16527,174,29,-231,-442
1,535,33082,-3352,-16459,268,26,-262,-466
1,536,33087,-3544,-16400,130,23,-292,-487
1,537,33092,-3643,-16346,-127,23,-299,-502
1,538,33097,-3469,-16332,-313,17,-269,-522
1,539,33102,-3284,-16367,-399,15,-220,-544
1,540,33107,-3051,-16420,-305,16,-176,-561
1,541,33112,-2753,-16345,-197,10,-105,-604
1,542,33117,-2733,-16281,-137,7,-65,-623
1,543,33122,-2739,-16220,-49,4,-23,-643
1,544,33127,-2760,-16166,-72,-1,20,-659
1,545,33132,-2690,-16194,-66,-1,49,-673
1,546,33137,-2478,-16233,58,-3,68,-687
1,547,33142,-2285,-16227,158,-5,73,-703
1,548,33147,-2348,-16249,163,-6,69,-718
1,549,33152,-2536,-16249,31,-4,61,-732
1,550,33157,-2739,-16285,-86,-6,51,-742
1,551,33162,-2742,-16341,-48,-10,48,-754
1,552,33167,-2823,-16358,119,-12,49,-767
1,553,33172,-2844,-16456,230,-9,19,-776
1,554,33177,-2726,-16523,139,-5,-23,-787
1,555,33182,-2399,-16482,179,-5,-72,-798
1,556,33187,-2120,-16459,390,-11,-126,-806
1,557,33192,-1998,-16375,459,-11,-183,-814
1,558,33197,-2039,-16337,220,-9,-224,-822
1,559,33202,-2089,-16293,-296,-11,-227,-833
1,560,33207,-2138,-16258,-391,-13,-195,-842
1,561,33212,-1905,-16240,-501,-19,-145,-851
1,562,33217,-1716,-16192,-360,-22,-82,-860
1,563,33222,-1484,-16272,-457,-23,-31,-867
1,564,33227,-1659,-16155,-477,-26,30,-882
1,565,33232,-1809,-16160,-469,-26,86,-887
1,566,33237,-1966,-16152,-267,-28,134,-895
1,567,33242,-1859,-16225,-18,-29,155,-902
1,568,33247,-1662,-16320,93,-29,160,-905
1,569,33252,-1492,-16413,335,-28,154,-906
1,570,33257,-1252,-16279,566,-32,124,-913
1,571,33262,-1124,-16200,565,-31,65,-909
1,572,33267,-1172,-16199,221,-28,6,-908
1,573,33272,-1278,-16131,-83,-32,-25,-909
1,574,33277,-1288,-16056,-229,-34,-21,-908
1,575,33282,-1288,-16230,-269,-38,12,-911
1,576,33287,-2656,-15176,131,-39,59,-912
1,577,33292,1235,-17076,-1621,-31,58,-899
1,578,33297,-1920,-15278,651,-55,232,-950
1,579,33302,-973,-16413,83,-41,169,-913
1,580,33307,-1745,-15652,301,-49,193,-915
1,581,33312,-411,-15932,-933,-46,222,-912
1,582,33317,-1012,-15916,225,-59,357,-929
1,583,33322,-1148,-15837,442,-60,337,-932
1,584,33327,-1714,-15897,626,-57,282,-925
1,585,33332,-1481,-15862,-107,-56,205,-915
1,586,33337,-1303,-16099,386,-66,244,-919
1,587,33342,-1245,-16052,547,-73,252,-929
1,588,33347,-1205,-16268,934,-74,241,-923
1,589,33352,-1448,-16258,410,-72,195,-925
1,590,33357,-1631,-16333,222,-78,197,-925
1,591,33362,-1721,-16340,222,-82,208,-926
1,592,33367,-1529,-16355,325,-90,209,-929
1,593,33372,-1351,-16407,438,-93,188,-928
1,594,33377,-1293,-16398,450,-97,160,-933
1,595,33382,-1452,-16317,454,-101,133,-934
1,596,33387,-1872,-15582,398,-106,111,-932
1,597,33392,-6968,-15033,-11834,-93,136,-911
1,598,33397,-19958,-21019,-32768,82,1449,-937
1,599,33402,-23012,-16110,-21662,-149,6428,-1080
1,600,33407,-5197,-15723,29309,-114,16288,-1298
1,601,33412,-2765,-3532,32767,13,16696,-1447
1,602,33417,32767,-17323,30455,684,3162,-52
1,603,33422,8608,-17173,14483,777,-2137,-195
1,604,33427,-30589,-13735,-11533,556,-5860,-94
1,605,33432,-27872,-16252,-27868,291,-8380,631
1,606,33437,-10539,-16565,-8760,74,-3901,459
1,607,33442,15060,-20011,4696,253,957,-54
1,608,33447,11115,-18607,12505,355,2853,-625
1,609,33452,-393,-17845,14468,433,431,-391
1,610,33457,-10989,-14265,10037,484,-3654,116
1,611,33462,-5162,-15205,606,465,-6222,495
1,612,33467,2496,-17647,-6858,368,-5470,408
1,613,33472,-3119,-19802,-8806,310,-2536,3
1,614,33477,-13828,-19588,-24145,219,-1341,-132
1,615,33482,4334,-14330,16652,232,-1548,-146
1,616,33487,1114,-17695,-17577,521,-1900,41
1,617,33492,-4649,-21127,-26358,363,363,-121
1,618,33497,-2152,-15661,9723,35,2720,-568
1,619,33502,3399,-13985,24135,60,1852,-469
1,620,33507,-713,-15199,-7609,435,-684,51
1,621,33512,4026,-20655,-13729,317,-417,32
1,622,33517,-131,-14432,10634,9,910,-433
1,623,33522,881,-15294,9667,164,363,-262
1,624,33527,-2709,-16156,-5655,287,-264,-85
1,625,33532,1071,-16439,-918,171,-82,-146
1,626,33537,4423,-15280,6907,98,-343,-195
1,627,33542,2207,-15541,-635,200,-676,-152
1,628,33547,-1967,-16670,-5343,158,-387,-152
1,629,33552,-1498,-15279,-94,72,-195,-180
1,630,33557,2142,-15432,4864,73,-274,-157
1,631,33562,3135,-16151,-321,144,-434,-132
1,632,33567,1450,-17025,-4150,120,-157,-168
1,633,33572,-810,-15902,-1699,36,91,-218
1,634,33577,-236,-15717,3683,16,18,-177
1,635,33582,1736,-16101,2481,54,-230,-144
1,636,33587,2578,-16544,-2245,66,-143,-159
1,637,33592,865,-16833,-2732,24,198,-186
1,638,33597,-438,-16142,1478,-19,285,-206
1,639,33602,391,-15911,3323,-10,16,-166
1,640,33607,1718,-16504,259,22,-162,-132
1,641,33612,1584,-16854,-2083,7,35,-165
1,642,33617,512,-16563,-317,-36,260,-193
1,643,33622,481,-16365,2196,-52,156,-176
1,644,33627,1216,-16731,1249,-36,-125,-136
1,645,33632,1649,-17133,-1067,-19,-163,-145
1,646,33637,776,-16467,-1803,-44,53,-163
1,647,33642,-45,-16528,-4724,-48,185,-133
1,648,33647,-1152,-16492,-6670,-60,460,-150
1,649,33652,-375,-16692,4763,-77,1149,-146
1,650,33657,1333,-16088,10618,-26,1320,-119
1,651,33662,4127,-16573,7615,81,921,-55
1,652,33667,3134,-16557,1722,102,497,-33
1,653,33672,379,-16858,946,74,110,-6
1,654,33677,-1290,-16582,1409,45,-316,56
1,655,33682,86,-16438,2621,29,-526,104
1,656,33687,1452,-16833,2500,34,-558,104
1,657,33692,1278,-17435,-280,52,-549,85
1,658,33697,-272,-17274,-1698,55,-500,81
1,659,33702,-451,-17124,-962,37,-501,94
1,660,33707,679,-16905,48,29,-433,92
1,661,33712,1343,-17237,-1286,31,-206,89
1,662,33717,878,-17424,-1718,21,164,69
1,663,33722,470,-17149,-849,-1,383,56
1,664,33727,912,-16764,486,-9,371,72
1,665,33732,1486,-16787,804,0,307,95
1,666,33737,1421,-16820,722,0,368,91
1,667,33742,1030,-16671,911,-8,481,86
1,668,33747,760,-16393,1297,-17,515,97
1,669,33752,1035,-16224,1425,-19,412,115
1,670,33757,1249,-16109,969,-21,280,132
1,671,33762,966,-16218,672,-25,238,141
1,672,33767,205,-16181,694,-32,270,139
1,673,33772,-206,-16124,730,-36,308,137
1,674,33777,125,-16039,858,-37,311,144
1,675,33782,718,-15996,1192,-37,277,147
1,676,33787,819,-16024,1374,-42,231,147
1,677,33792,415,-16063,1489,-42,164,152
1,678,33797,61,-16083,1231,-41,82,166
1,679,33802,50,-16094,981,-48,22,178
1,680,33807,453,-16175,900,-51,-19,181
1,681,33812,591,-16237,1128,-54,-39,179
1,682,33817,525,-16295,1103,-53,-67,178
1,683,33822,326,-16262,888,-49,-93,182
1,684,33827,293,-16237,570,-56,-95,186
1,685,33832,470,-16249,526,-58,-75,188
1,686,33837,632,-16237,608,-61,-44,188
1,687,33842,618,-16236,618,-62,-11,185
1,688,33847,478,-16162,310,-60,63,186
1,689,33852,537,-16181,544,-65,111,191
1,690,33857,638,-16142,777,-68,140,191
1,691,33862,705,-16156,857,-68,156,189
1,692,33867,760,-16160,905,-69,168,193
1,693,33872,635,-16122,977,-69,178,194
1,694,33877,464,-16115,992,-74,176,193
1,695,33882,280,-16122,911,-74,166,198
1,696,33887,301,-16112,864,-73,155,200
1,697,33892,336,-16086,909,-72,150,198
1,698,33897,297,-16057,951,-77,141,196
1,699,33902,167,-16131,901,-76,124,201
1,700,33907,160,-16194,822,-75,111,198
1,701,33912,269,-16235,764,-71,104,197
1,702,33917,259,-16318,666,-71,105,197
1,703,33922,122,-16315,672,-72,105,192
1,704,33927,90,-16288,607,-73,86,192
1,705,33932,128,-16273,642,-72,71,192
1,706,33937,261,-16301,623,-71,72,190
1,707,33942,272,-16264,700,-71,92,189
1,708,33947,167,-16276,741,-67,100,188
1,709,33952,-2,-16237,705,-66,93,187
1,710,33957,7,-16248,557,-66,73,186
1,711,33962,114,-16230,661,-66,72,184
1,712,33967,194,-16283,794,-64,72,183
1,713,33972,214,-16327,818,-61,63,180
1,714,33977,190,-16359,707,-59,48,181
1,715,33982,222,-16320,597,-60,34,178
1,716,33987,125,-16327,586,-59,31,175
1,717,33992,79,-16349,576,-58,42,172
1,718,33997,51,-16384,585,-55,54,173
1,719,34002,77,-16416,533,-54,63,169
1,720,34007,127,-16398,560,-52,80,166
1,721,34012,164,-16407,632,-51,98,165
1,722,34017,185,-16429,684,-52,111,161
1,723,34022,193,-16446,653,-51,118,157
1,724,34027,94,-16510,581,-48,116,158
1,725,34032,-107,-16495,542,-48,109,154
1,726,34037,-195,-16492,554,-46,105,152
1,727,34042,-209,-16423,574,-40,100,152
1,728,34047,-51,-16357,644,-40,91,150
1,729,34052,-57,-16333,758,-37,72,148
1,730,34057,-55,-16326,881,-37,41,144
1,731,34062,-92,-16302,892,-31,6,143
1,732,34067,-214,-16338,736,-28,-16,143
1,733,34072,-392,-16190,676,-28,-22,143
1,734,34077,464,-16492,282,-25,-25,142
1,735,34082,-319,-16248,745,-27,8,126
1,736,34087,-184,-16413,477,-20,-18,133
1,737,34092,-463,-16319,402,-21,-11,132
1,738,34097,-47,-16448,83,-18,13,131
1,739,34102,1,-16449,421,-20,74,125
1,740,34107,-59,-16392,619,-14,101,118
1,741,34112,-217,-16382,700,-13,102,117
1,742,34117,-306,-16411,376,-11,92,118
1,743,34122,-230,-16425,352,-11,118,114
1,744,34127,-232,-16392,608,-9,129,108
1,745,34132,-301,-16526,758,-12,119,108
1,746,34137,-269,-16396,871,-6,107,94
1,747,34142,-252,-16608,644,2,83,108
1,748,34147,-232,-16624,563,4,66,106
1,749,34152,-270,-16449,636,3,51,98
1,750,34157,-249,-16490,646,5,31,107
1,751,34162,-293,-16373,719,6,24,96
1,752,34167,-343,-16292,458,8,20,96
1,753,34172,-534,-16415,420,9,34,98
1,754,34177,-591,-16450,392,10,45,94
1,755,34182,-552,-16412,515,10,57,89
1,756,34187,-613,-16435,578,11,67,88
1,757,34192,-655,-16494,579,13,74,81
1,758,34197,-677,-16419,633,14,79,77
1,759,34202,-613,-16452,856,14,82,79
1,760,34207,-533,-16456,1039,15,72,73
1,761,34212,-551,-16448,847,19,23,69
1,762,34217,-567,-16382,801,20,-8,69
1,763,34222,-492,-16362,859,21,-44,67
1,764,34227,-385,-16357,846,18,-77,70
1,765,34232,-330,-16369,790,24,-95,69
1,766,34237,-318,-16379,619,27,-107,66
1,767,34242,-378,-16432,449,23,-106,68
1,768,34247,-383,-16435,421,23,-95,65
1,769,34252,-309,-16411,465,24,-82,63
1,770,34257,-282,-16365,481,28,-73,63
1,771,34262,-299,-16393,439,29,-58,64
1,772,34267,-305,-16393,428,27,-33,59
1,773,34272,-334,-16374,543,30,-13,58
1,774,34277,-340,-16375,610,27,6,56
1,775,34282,-357,-16390,657,24,19,54
1,776,34287,-310,-16300,624,27,30,53
1,777,34292,-337,-16312,602,26,31,54
1,778,34297,-336,-16264,625,30,20,59
1,779,34302,-294,-16243,620,29,6,57
1,780,34307,-296,-16190,657,29,-2,55
1,781,34312,-351,-16149,718,29,-2,56
1,782,34317,-327,-16131,737,28,-8,53
1,783,34322,-348,-16106,738,26,-14,53
1,784,34327,-264,-16094,659,29,-17,56
1,785,34332,-269,-16190,545,29,-21,56
1,786,34337,-366,-16169,550,30,-27,57
1,787,34342,-399,-16227,581,29,-30,55
1,788,34347,-452,-16252,605,25,-26,54
1,789,34352,-387,-16267,630,27,-19,55
1,790,34357,-362,-16265,575,28,-11,53
1,791,34362,-322,-16273,574,29,-10,51
1,792,34367,-361,-16297,574,27,-18,54
1,793,34372,-377,-16272,500,26,-29,53
1,794,34377,-420,-16272,462,28,-35,56
1,795,34382,-435,-16280,501,28,-36,58
1,796,34387,-393,-16244,532,26,-27,56
1,797,34392,-348,-16290,562,25,-23,58
1,798,34397,-304,-16327,548,31,-22,58
1,799,34402,-329,-16360,475,27,-18,55
1,800,34407,-404,-16438,429,26,-11,57
1,801,34412,-472,-16458,387,26,-5,57
1,802,34417,-464,-16483,364,26,3,58
1,803,34422,-400,-16479,387,24,14,58
1,804,34427,-393,-16456,447,20,26,55
1,805,34432,-402,-16475,525,21,31,53
1,806,34437,-488,-16514,516,21,35,55
1,807,34442,-530,-16542,461,23,40,57
1,808,34447,-584,-16530,414,20,50,56
1,809,34452,-687,-16539,455,16,61,55
1,810,34457,-783,-16539,518,19,67,56
1,811,34462,-822,-16516,513,16,72,50
1,812,34467,-1145,-16529,55,16,64,50
1,813,34472,-1558,-16794,-474,16,47,55
1,814,34477,-1351,-16886,46,9,42,56
1,815,34482,-808,-16766,1249,7,39,47
1,816,34487,-664,-16756,1455,14,23,40
1,817,34492,-1073,-16828,614,21,15,36
1,818,34497,-1139,-16725,340,17,8,38
1,819,34502,-684,-16440,1052,4,-26,43
1,820,34507,-303,-16313,1482,1,-93,44
1,821,34512,-623,-16492,808,9,-149,48
1,822,34517,-1133,-16655,-98,7,-149,46
1,823,34522,-1150,-16500,-43,-3,-101,44
1,824,34527,-789,-16338,756,-6,-54,41
1,825,34532,-617,-16354,856,-7,-29,36
1,826,34537,-671,-16461,357,-2,-11,32
1,827,34542,-795,-16463,30,-6,4,31
1,828,34547,-681,-16356,357,-17,13,34
1,829,34552,-536,-16300,817,-20,11,37
1,830,34557,-625,-16422,619,-16,7,35
1,831,34562,-793,-16561,65,-15,19,34
1,832,34567,-765,-16554,55,-18,43,29
1,833,34572,-654,-16505,476,-26,50,28
1,834,34577,-670,-16637,525,-18,8,30
1,835,34582,-689,-16582,449,-21,5,29
1,836,34587,-722,-16559,443,-25,8,30
1,837,34592,-740,-16559,481,-27,3,29
1,838,34597,-719,-16536,568,-27,-9,28
1,839,34602,-769,-16626,466,-27,-19,29
1,840,34607,-801,-16663,223,-30,-23,30
1,841,34612,-803,-16675,149,-32,-9,29
1,842,34617,-808,-16708,242,-35,5,27
1,843,34622,-738,-16738,452,-34,8,25
1,844,34627,-702,-16745,550,-34,7,23
1,845,34632,-635,-16776,470,-32,10,21
1,846,34637,-616,-16820,416,-35,10,22
1,847,34642,-561,-16771,439,-38,2,22
1,848,34647,-579,-16784,525,-39,-19,25
1,849,34652,-602,-16785,390,-40,-47,24
1,850,34657,-640,-16813,264,-41,-57,24
1,851,34662,-633,-16863,180,-40,-51,24
1,852,34667,-662,-16829,215,-43,-44,23
1,853,34672,-679,-16854,240,-43,-44,21
1,854,34677,-616,-16825,256,-45,-42,21
1,855,34682,-570,-16801,263,-46,-40,21
1,856,34687,-553,-16747,273,-46,-27,19
1,857,34692,-578,-16789,291,-47,-16,17
1,858,34697,-597,-16734,255,-47,-6,16
1,859,34702,-671,-16723,280,-49,4,16
1,860,34707,-664,-16759,352,-49,15,14
1,861,34712,-727,-16734,334,-49,23,15
1,862,34717,-748,-16692,428,-52,20,15
1,863,34722,-751,-16650,484,-52,21,16
1,864,34727,-707,-16613,567,-55,23,12
1,865,34732,-697,-16579,617,-53,16,12
1,866,34737,-687,-16555,640,-55,2,13
1,867,34742,-685,-16584,581,-55,-22,14
1,868,34747,-703,-16570,483,-57,-38,12
1,869,34752,-745,-16564,394,-58,-42,12
1,870,34757,-790,-16556,349,-58,-42,11
1,871,34762,-724,-16575,336,-58,-38,10
1,872,34767,-671,-16544,349,-58,-32,8
1,873,34772,-645,-16514,380,-61,-29,7
1,874,34777,-659,-16490,405,-60,-31,7
1,875,34782,-707,-16530,391,-63,-26,6
1,876,34787,-668,-16536,339,-64,-21,4
1,877,34792,-666,-16536,220,-62,-11,5
1,878,34797,-715,-16622,167,-60,1,3
1,879,34802,-755,-16609,230,-61,3,0
1,880,34807,-732,-16522,367,-62,4,0
1,881,34812,-629,-16517,477,-63,3,0
1,882,34817,-576,-16484,502,-62,5,1
1,883,34822,-605,-16453,416,-61,14,-2
1,884,34827,-568,-16448,344,-60,14,0
1,885,34832,-594,-16471,343,-60,8,1
1,886,34837,-614,-16455,329,-59,3,-2
1,887,34842,-691,-16435,354,-58,-1,-1
1,888,34847,-680,-16496,276,-57,6,0
1,889,34852,-714,-16540,273,-59,21,-5
1,890,34857,-705,-16498,287,-59,35,-8
1,891,34862,-670,-16470,377,-57,37,-10
1,892,34867,-666,-16506,390,-58,23,-7
1,893,34872,-639,-16541,373,-56,12,-8
1,894,34877,-687,-16467,340,-53,8,-8
1,895,34882,-706,-16471,311,-55,12,-9
1,896,34887,-701,-16420,304,-57,13,-10
1,897,34892,-731,-16451,320,-54,11,-9
1,898,34897,-741,-16397,274,-51,12,-13
1,899,34902,-755,-16422,260,-53,17,-14
1,900,34907,-810,-16419,303,-52,23,-17
1,901,34912,-809,-16399,327,-50,33,-18
1,902,34917,-755,-16416,275,-50,39,-19
1,903,34922,-716,-16458,332,-50,43,-20
1,904,34927,-680,-16447,413,-47,41,-20
1,905,34932,-667,-16482,426,-48,33,-20
1,906,34937,-710,-16510,382,-46,28,-21
1,907,34942,-671,-16611,73,-43,37,-22
1,908,34947,-719,-16589,203,-43,37,-25
1,909,34952,-720,-16556,288,-40,25,-24
1,910,34957,-698,-16544,298,-38,12,-24
1,911,34962,-622,-16534,268,-37,10,-26
1,912,34967,-637,-16506,294,-36,9,-27
1,913,34972,-616,-16475,366,-34,7,-25
1,914,34977,-651,-16472,353,-33,-4,-24
1,915,34982,-688,-16477,285,-32,-14,-27
1,916,34987,-676,-16482,261,-31,-10,-29
1,917,34992,-695,-16483,253,-30,0,-28
1,918,34997,-695,-16524,227,-27,10,-28
1,919,35002,-677,-16517,253,-29,20,-32
1,920,35007,-656,-16517,346,-27,20,-30
1,921,35012,-644,-16492,330,-27,19,-33
1,922,35017,-618,-16512,312,-24,21,-33
1,923,35022,-659,-16493,305,-22,27,-33
1,924,35027,-652,-16531,273,-23,30,-35
1,925,35032,-684,-16543,259,-22,29,-37
1,926,35037,-716,-16539,203,-19,32,-36
1,927,35042,-713,-16545,199,-17,34,-34
1,928,35047,-688,-16523,160,-17,36,-37
1,929,35052,-679,-16546,244,-18,41,-38
1,930,35057,-686,-16616,304,-14,40,-33
1,931,35062,-718,-16630,252,-11,34,-35
1,932,35067,-705,-16591,288,-9,26,-41
1,933,35072,-732,-16550,308,-8,23,-39
1,934,35077,-712,-16531,390,-7,19,-39
1,935,35082,-617,-16422,363,-8,9,-42
1,936,35087,-632,-16475,349,-6,-4,-39
1,937,35092,-586,-16520,381,-2,-15,-40
1,938,35097,-653,-16485,351,-3,-26,-43
1,939,35102,-658,-16499,258,-2,-29,-40
1,940,35107,-673,-16573,155,-1,-19,-42
1,941,35112,-633,-16544,118,-2,-4,-42
1,942,35117,-628,-16545,181,-1,11,-41
1,943,35122,-650,-16530,214,4,17,-44
1,944,35127,-657,-16541,210,2,21,-46
1,945,35132,-701,-16602,120,5,25,-42
1,946,35137,-728,-16593,191,7,41,-45
1,947,35142,-728,-16574,252,8,52,-48
1,948,35147,-716,-16573,376,9,52,-47
1,949,35152,-690,-16481,411,12,45,-49
1,950,35157,-627,-16469,364,11,34,-48
1,951,35162,-642,-16456,395,10,25,-48
1,952,35167,-637,-16380,449,11,13,-46
1,953,35172,-610,-16421,431,11,6,-44
1,954,35177,-591,-16451,338,12,-5,-43
1,955,35182,-575,-16410,256,17,-13,-45
1,956,35187,-667,-16485,280,17,-11,-41
1,957,35192,-693,-16455,257,16,-5,-44
1,958,35197,-680,-16438,202,14,2,-46
1,959,35202,-667,-16520,199,16,10,-45
1,960,35207,-648,-16522,202,16,17,-45
1,961,35212,-652,-16489,251,18,21,-48
1,962,35217,-703,-16525,327,19,21,-49
1,963,35222,-673,-16468,336,20,21,-49
1,964,35227,-681,-16482,338,21,26,-46
1,965,35232,-671,-16501,313,20,24,-46
1,966,35237,-626,-16456,328,20,21,-48
1,967,35242,-677,-16453,350,20,16,-48
1,968,35247,-706,-16453,320,21,12,-49
1,969,35252,-690,-16456,357,19,8,-47
1,970,35257,-687,-16467,348,20,9,-48
1,971,35262,-689,-16504,259,23,11,-47
1,972,35267,-747,-16514,295,20,13,-49
1,973,35272,-751,-16508,345,21,14,-50
1,974,35277,-735,-16484,332,23,15,-49
1,975,35282,-716,-16453,356,20,19,-52
1,976,35287,-681,-16453,337,20,27,-53
1,977,35292,-632,-16435,293,22,32,-51
1,978,35297,-671,-16473,292,22,34,-51
1,979,35302,-711,-16502,249,21,33,-53
1,980,35307,-651,-16503,241,19,32,-53
1,981,35312,-609,-16519,256,19,32,-52
1,982,35317,-549,-16524,263,19,25,-53
1,983,35322,-548,-16505,264,21,16,-50
1,984,35327,-509,-16496,272,22,1,-48
1,985,35332,-484,-16488,239,21,-12,-47
1,986,35337,-519,-16492,217,23,-23,-45
1,987,35342,-490,-16483,199,22,-26,-46
1,988,35347,-452,-16472,162,23,-24,-44
1,989,35352,-482,-16437,129,22,-22,-46
1,990,35357,-432,-16442,228,23,-22,-45
1,991,35362,-419,-16423,180,24,-20,-43
1,992,35367,-428,-16370,144,23,-14,-40
1,993,35372,-432,-16379,157,20,-4,-40
1,994,35377,-436,-16359,148,21,10,-44
1,995,35382,-451,-16357,206,21,19,-42
1,996,35387,-455,-16364,255,18,22,-39
1,997,35392,-404,-16342,225,23,22,-39
1,998,35397,-398,-16363,193,21,26,-37
1,999,35402,-422,-16397,256,18,32,-39
2,0,38722,-472,-16386,337,5,-20,-4
2,1,38727,-472,-16428,313,3,-13,-5
2,2,38732,-516,-16495,288,4,-11,-5
2,3,38737,-553,-16556,208,5,-9,-5
2,4,38742,-618,-16578,246,3,-8,-3
2,5,38747,-629,-16590,252,4,-5,-4
2,6,38752,-625,-16602,328,1,-1,-7
2,7,38757,-634,-16607,363,-1,2,-8
2,8,38762,-583,-16601,363,2,8,-8
2,9,38767,-639,-16665,356,0,3,-8
2,10,38772,-667,-16612,358,0,0,-6
2,11,38777,-663,-16662,298,-1,-1,-8
2,12,38782,-627,-16699,284,-1,0,-11
2,13,38787,-637,-16709,316,0,0,-11
2,14,38792,-623,-16730,316,-1,1,-8
2,15,38797,-622,-16779,336,-2,1,-9
2,16,38802,-672,-16823,248,-4,1,-11
2,17,38807,-687,-16830,189,-4,0,-12
2,18,38812,-685,-16822,218,-2,-4,-11
2,19,38817,-702,-16806,283,-5,-7,-12
2,20,38822,-695,-16787,331,-4,-8,-13
2,21,38827,-581,-16770,275,-3,-15,-13
2,22,38832,-582,-16747,281,-4,-20,-12
2,23,38837,-603,-16735,287,-4,-22,-13
2,24,38842,-626,-16700,282,-5,-23,-12
2,25,38847,-665,-16692,240,-6,-28,-15
2,26,38852,-598,-16635,206,-2,-25,-12
2,27,38857,-532,-16631,223,-4,-20,-14
2,28,38862,-481,-16627,288,-5,-16,-15
2,29,38867,-461,-16604,327,-6,-14,-16
2,30,38872,-442,-16561,308,-4,-14,-12
2,31,38877,-490,-16588,202,-5,-11,-12
2,32,38882,-498,-16619,149,-6,-4,-14
2,33,38887,-532,-16609,124,-6,1,-14
2,34,38892,-549,-16560,201,-8,6,-14
2,35,38897,-532,-16541,237,-10,6,-15
2,36,38902,-502,-16495,260,-7,3,-12
2,37,38907,-490,-16486,315,-7,5,-13
2,38,38912,-494,-16474,342,-7,4,-15
2,39,38917,-489,-16463,298,-4,-2,-12
2,40,38922,-508,-16443,282,-7,-6,-11
2,41,38927,-512,-16473,339,-6,-9,-11
2,42,38932,-512,-16491,264,-6,-5,-10
2,43,38937,-500,-16482,298,-6,-6,-9
2,44,38942,-544,-16479,276,-8,-4,-11
2,45,38947,-546,-16478,220,-9,0,-11
2,46,38952,-538,-16534,194,-9,4,-10
2,47,38957,-561,-16557,194,-8,2,-11
2,48,38962,-608,-16536,251,-8,4,-11
2,49,38967,-552,-16443,385,-9,3,-11
2,50,38972,-499,-16438,320,-8,1,-11
2,51,38977,-479,-16434,284,-7,-2,-11
2,52,38982,-467,-16413,350,-8,-5,-11
2,53,38987,-496,-16425,326,-7,-14,-8
2,54,38992,-502,-16460,238,-6,-17,-5
2,55,38997,-529,-16466,153,-6,-12,-8
2,56,39002,-543,-16463,101,-6,-5,-7
2,57,39007,-553,-16503,159,-7,1,-10
2,58,39012,-543,-16505,196,-6,1,-12
2,59,39017,-520,-16486,180,-4,-1,-9
2,60,39022,-490,-16482,150,-6,5,-7
2,61,39027,-486,-16399,231,-8,7,-7
2,62,39032,-443,-16386,322,-7,8,-6
2,63,39037,-426,-16364,330,-5,5,-6
2,64,39042,-400,-16362,265,-3,-1,-4
2,65,39047,-398,-16376,222,-5,-1,-5
2,66,39052,-439,-16384,235,-3,0,-2
2,67,39057,-465,-16338,217,-1,-1,-2
2,68,39062,-470,-16307,280,-3,4,-3
2,69,39067,-458,-16318,190,-3,8,-3
2,70,39072,-473,-16296,111,-1,13,0
2,71,39077,-503,-16315,125,0,15,-1
2,72,39082,-474,-16320,202,0,13,-3
2,73,39087,-455,-16255,288,0,6,1
2,74,39092,-413,-16297,260,0,-4,2
2,75,39097,-369,-16270,239,3,-9,3
2,76,39102,-350,-16276,169,4,-12,3
2,77,39107,-533,-16247,103,3,-15,5
2,78,39112,-787,-16316,33,2,-19,5
2,79,39117,-845,-16353,3,1,-25,8
2,80,39122,-716,-16408,121,6,-24,11
2,81,39127,-621,-16479,296,5,-21,10
2,82,39132,-681,-16465,383,5,-19,4
2,83,39137,-767,-16467,220,6,-26,1
2,84,39142,-733,-16396,174,9,-34,3
2,85,39147,-638,-16367,193,8,-36,7
2,86,39152,-571,-16351,202,8,-28,3
2,87,39157,-644,-16361,181,8,-22,2
2,88,39162,-656,-16358,81,9,-13,2
2,89,39167,-596,-16334,89,8,2,2
2,90,39172,-533,-16313,177,7,14,2
2,91,39177,-476,-16335,298,8,17,3
2,92,39182,-529,-16352,307,8,11,1
2,93,39187,-556,-16385,297,9,-1,6
2,94,39192,-579,-16385,286,8,-9,3
2,95,39197,-566,-16427,204,6,-11,2
2,96,39202,-536,-16417,283,7,-15,6
2,97,39207,-552,-16459,277,9,-26,6
2,98,39212,-565,-16460,249,10,-32,6
2,99,39217,-558,-16394,151,9,-28,8
2,100,39222,-545,-16410,149,7,-22,7
2,101,39227,-502,-16406,224,8,-18,7
2,102,39232,-514,-16410,253,7,-18,7
2,103,39237,-546,-16426,229,9,-15,7
2,104,39242,-561,-16418,199,9,-1,4
2,105,39247,-561,-16465,172,6,10,4
2,106,39252,-617,-16466,214,6,14,9
2,107,39257,-619,-16446,237,5,17,6
2,108,39262,-600,-16451,268,5,19,7
2,109,39267,-605,-16524,251,5,16,5
2,115,39297,-578,-16604,295,3,-14,4
2,116,39302,-621,-16618,263,1,-17,2
2,117,39307,-600,-16638,199,2,-19,6
2,118,39312,-572,-16656,156,1,-17,7
2,119,39317,-585,-16666,161,2,-14,4
2,120,39322,-584,-16651,205,2,-14,2
2,121,39327,-601,-16635,241,1,-11,3
2,122,39332,-615,-16637,173,3,-3,4
2,123,39337,-561,-16625,225,-2,1,3
2,124,39342,-539,-16620,279,1,-2,3
2,125,39347,-535,-16547,258,2,-7,4
2,126,39352,-555,-16515,233,1,-10,4
2,127,39357,-523,-16487,235,0,-7,5
2,128,39362,-530,-16557,244,-2,-6,6
2,129,39367,-549,-16534,220,-3,-7,3
2,130,39372,-511,-16526,185,-3,-7,3
2,131,39377,-493,-16525,225,-3,-6,3
2,132,39382,-500,-16529,258,-1,-4,3
2,133,39387,-523,-16509,336,-4,-3,5
2,134,39392,-553,-16524,292,-7,-6,5
2,135,39397,-502,-16533,255,-4,-6,7
2,136,39402,-551,-16517,250,-4,-2,6
2,137,39407,-580,-16498,261,-6,-1,6
2,138,39412,-603,-16460,264,-4,-3,6
2,139,39417,-575,-16460,286,-6,-5,5
2,140,39422,-562,-16442,292,-9,-8,7
2,141,39427,-490,-16443,287,-6,-6,5
2,142,39432,-499,-16470,273,-7,-8,2
2,143,39437,-563,-16500,207,-7,-7,5
2,144,39442,-564,-16487,150,-9,-5,7
2,145,39447,-569,-16512,148,-10,-3,4
2,146,39452,-560,-16514,193,-9,-7,3
2,147,39457,-582,-16527,245,-9,-7,5
2,148,39462,-605,-16507,287,-10,-4,7
2,149,39467,-623,-16518,225,-10,-4,4
2,150,39472,-760,-16506,166,-7,-6,4
2,151,39477,-816,-16534,181,-8,-7,2
2,152,39482,-690,-16534,200,-11,-4,0
2,153,39487,-628,-16504,207,-10,-3,1
2,154,39492,-633,-16547,240,-10,-3,2
2,155,39497,-660,-16492,211,-11,1,1
2,156,39502,-668,-16460,184,-11,1,2
2,157,39507,-629,-16449,237,-13,1,1
2,158,39512,-598,-16463,211,-10,3,0
2,159,39517,-597,-16457,167,-8,12,-2
2,160,39522,-647,-16491,217,-11,12,-2
2,161,39527,-598,-16504,264,-11,5,0
2,162,39532,-476,-16494,315,-10,-4,1
2,163,39537,-383,-16449,323,-9,-12,0
2,164,39542,-393,-16457,299,-14,-22,0
2,165,39547,-513,-16429,228,-14,-34,2
2,166,39552,-536,-16417,97,-11,-38,4
2,167,39557,-584,-16470,-40,-11,-29,3
2,168,39562,-593,-16472,-46,-13,-8,2
2,169,39567,-579,-16515,49,-12,5,0
2,170,39572,-553,-16471,119,-13,14,-1
2,171,39577,-556,-16457,161,-12,15,-1
2,172,39582,-583,-16479,245,-10,7,0
2,173,39587,-567,-16425,224,-11,-1,3
2,174,39592,-533,-16406,216,-12,-7,1
2,175,39597,-574,-16449,210,-11,-15,0
2,176,39602,-624,-16410,183,-9,-20,3
2,177,39607,-637,-16445,171,-9,-22,0
2,178,39612,-651,-16438,145,-10,-22,0
2,179,39617,-611,-16468,208,-12,-18,1
2,180,39622,-578,-16499,235,-12,-12,-2
2,181,39627,-625,-16492,215,-9,-7,-2
2,182,39632,-633,-16504,183,-10,3,-1
2,183,39637,-663,-16495,134,-8,14,-2
2,184,39642,-693,-16528,193,-6,14,-4
2,185,39647,-708,-16504,171,-4,16,-2
2,186,39652,-657,-16477,165,-7,15,-5
2,187,39657,-597,-16488,231,-7,12,-5
2,188,39662,-564,-16496,217,-4,3,-5
2,189,39667,-547,-16475,239,-4,-11,-2
2,190,39672,-504,-16501,223,-4,-22,-2
2,191,39677,-514,-16520,193,-3,-27,-4
2,192,39682,-574,-16509,196,-3,-29,-3
2,193,39687,-581,-16487,155,-4,-25,-4
2,194,39692,-600,-16464,126,0,-23,-1
2,195,39697,-550,-16444,88,0,5,-5
2,196,39702,-557,-16457,163,-2,16,-6
2,197,39707,-541,-16444,191,2,21,-4
2,198,39712,-528,-16407,302,1,24,-4
2,199,39717,-506,-16427,299,-3,17,-4
2,200,39722,-530,-16390,299,0,15,-3
2,201,39727,-537,-16430,260,2,13,-2
2,202,39732,-585,-16415,245,2,8,-5
2,203,39737,-599,-16419,228,1,2,-3
2,204,39742,-640,-16493,185,2,-2,-2
2,205,39747,-666,-16514,163,4,-5,-4
2,206,39752,-647,-16463,177,6,-6,-1
2,207,39757,-629,-16453,201,5,-4,-4
2,208,39762,-625,-16502,209,5,-7,-4
2,209,39767,-647,-16477,259,8,-12,-3
2,210,39772,-636,-16479,235,10,-16,-3
2,211,39777,-604,-16440,188,7,-14,-3
2,212,39782,-644,-16402,228,10,-12,-3
2,213,39787,-620,-16451,244,5,-6,-3
2,214,39792,-650,-16426,249,8,-3,-4
2,215,39797,-668,-16407,225,10,-3,-2
2,216,39802,-652,-16445,234,9,-1,-5
2,217,39807,-626,-16422,245,9,3,-6
2,218,39812,-602,-16409,220,10,8,-3
2,219,39817,-636,-16426,220,10,5,-5
2,220,39822,-631,-16472,241,10,6,-4
2,221,39827,-628,-16464,185,10,3,-1
2,222,39832,-648,-16467,158,12,0,-1
2,223,39837,-694,-16516,182,12,-1,-2
2,224,39842,-666,-16508,200,13,-4,-1
2,225,39847,-621,-16509,156,15,-12,2
2,226,39852,-575,-16528,134,16,-15,3
2,227,39857,-564,-16498,202,16,-14,3
2,228,39862,-521,-16510,147,16,-18,1
2,229,39867,-565,-16549,109,18,-19,1
2,230,39872,-568,-16514,165,18,-13,6
2,231,39877,-446,-16561,133,19,-3,7
2,232,39882,-264,-16568,80,19,10,7
2,233,39887,-301,-16608,75,20,30,9
2,234,39892,-512,-16587,23,19,41,12
2,235,39897,-550,-16621,-93,20,45,17
2,236,39902,-529,-16574,-275,22,64,21
2,237,39907,-542,-16544,-229,21,103,20
2,238,39912,-751,-16510,86,20,136,18
2,239,39917,-853,-16495,169,20,137,21
2,240,39922,-796,-16463,35,25,138,28
2,241,39927,-737,-16483,-20,28,158,30
2,242,39932,-714,-16588,185,24,173,29
2,243,39937,-850,-16564,272,20,172,28
2,244,39942,-913,-16591,122,26,160,33
2,245,39947,-1006,-16684,54,28,163,34
2,246,39952,-991,-16748,117,25,174,33
2,247,39957,-872,-16808,250,27,180,37
2,248,39962,-751,-16947,306,27,181,39
2,249,39967,-828,-17014,363,27,175,43
2,250,39972,-938,-16985,350,29,167,50
2,251,39977,-926,-16911,320,32,156,55
2,252,39982,-870,-16936,356,32,140,60
2,253,39987,-808,-16974,493,29,125,67
2,254,39992,-890,-16894,581,31,101,71
2,255,39997,-1010,-16887,589,33,78,77
2,256,40002,-1030,-16789,475,33,63,81
2,257,40007,-1007,-16734,351,32,58,85
2,258,40012,-889,-16778,311,29,56,92
2,259,40017,-798,-16717,387,30,49,100
2,260,40022,-863,-16635,429,31,38,104
2,261,40027,-899,-16557,351,34,34,110
2,262,40032,-920,-16518,288,34,46,116
2,263,40037,-931,-16456,238,34,66,122
2,264,40042,-940,-16403,199,33,84,127
2,265,40047,-899,-16391,88,34,92,136
2,266,40052,-825,-16327,223,33,96,144
2,267,40057,-763,-16315,372,36,90,151
2,268,40062,-952,-16269,286,38,92,165
2,269,40067,-1052,-16269,220,39,113,170
2,270,40072,-1126,-16235,283,39,133,178
2,271,40077,-1164,-16185,446,40,136,186
2,272,40082,-1157,-16147,611,41,120,193
2,273,40087,-1215,-16095,739,38,98,202
2,274,40092,-1299,-16134,733,40,69,212
2,275,40097,-1351,-16116,722,40,38,219
2,276,40102,-1352,-16118,713,39,8,228
2,277,40107,-1308,-16121,787,40,-27,238
2,278,40112,-1374,-16167,712,42,-63,246
2,279,40117,-1473,-16235,560,43,-95,255
2,280,40122,-1584,-16234,379,45,-119,266
2,281,40127,-1569,-16252,422,45,-138,274
2,282,40132,-1402,-16194,557,44,-153,285
2,283,40137,-1360,-16191,562,46,-168,291
2,284,40142,-1482,-16156,464,48,-175,296
2,285,40147,-1605,-16125,262,51,-176,303
2,286,40152,-1667,-16073,231,49,-163,312
2,287,40157,-1642,-16130,302,46,-143,319
2,288,40162,-1599,-16183,274,46,-120,322
2,289,40167,-1617,-16143,256,48,-90,328
2,290,40172,-1752,-16140,247,50,-61,335
2,291,40177,-1838,-16180,216,50,-42,339
2,292,40182,-1811,-16125,303,50,-24,345
2,293,40187,-1804,-16148,440,50,-18,356
2,294,40192,-1755,-16209,606,53,-36,364
2,295,40197,-1748,-16144,752,53,-69,371
2,296,40202,-1764,-16153,791,53,-108,383
2,297,40207,-1885,-16180,732,56,-147,392
2,298,40212,-2001,-16182,640,60,-188,404
2,299,40217,-1981,-16241,623,58,-217,413
2,300,40222,-2016,-16242,528,59,-235,420
2,301,40227,-2114,-16209,454,61,-240,425
2,302,40232,-2237,-16185,337,62,-238,431
2,303,40237,-2351,-16178,204,63,-229,441
2,304,40242,-2319,-16181,177,66,-207,445
2,305,40247,-2222,-16111,225,66,-181,451
2,306,40252,-2193,-16139,309,64,-150,455
2,307,40257,-2208,-16185,347,66,-137,459
2,308,40262,-2238,-16207,332,67,-133,463
2,309,40267,-2121,-16226,403,67,-133,477
2,310,40272,-2056,-16200,550,69,-145,484
2,311,40277,-2100,-16210,638,69,-165,493
2,312,40282,-2122,-16253,700,72,-201,504
2,313,40287,-2123,-16288,797,74,-247,514
2,314,40292,-2097,-16163,742,77,-293,521
2,315,40297,-2215,-16170,699,77,-321,531
2,316,40302,-2440,-16237,487,80,-339,539
2,317,40307,-2664,-16205,263,82,-332,546
2,318,40312,-2700,-16200,172,81,-307,552
2,319,40317,-2727,-16198,262,82,-263,553
2,320,40322,-2811,-16177,268,86,-223,555
2,321,40327,-2846,-16188,257,88,-183,558
2,322,40332,-2856,-16177,412,88,-153,563
2,323,40337,-2867,-16117,626,86,-134,567
2,324,40342,-2864,-16098,736,90,-125,570
2,325,40347,-2876,-16067,598,92,-126,573
2,326,40352,-2917,-16089,509,91,-120,578
2,327,40357,-2894,-16073,570,90,-107,584
2,328,40362,-2975,-16052,665,89,-97,586
2,329,40367,-3092,-16097,505,93,-90,589
2,330,40372,-3144,-16102,268,97,-71,592
2,331,40377,-3083,-16121,270,96,-38,594
2,332,40382,-3050,-16096,495,93,-10,596
2,333,40387,-3021,-16005,749,95,0,598
2,334,40392,-3069,-15945,766,93,10,600
2,335,40397,-3133,-16043,537,101,14,605
2,336,40402,-3304,-15942,506,96,41,601
2,337,40407,-3391,-15891,622,94,54,605
2,338,40412,-3453,-15836,648,97,60,607
2,339,40417,-3597,-15862,634,100,64,607
2,340,40422,-3654,-15940,663,102,69,607
2,341,40427,-3606,-15851,1022,96,48,609
2,342,40432,-3765,-15866,1140,101,26,607
2,343,40437,-3851,-15812,957,102,-2,607
2,344,40442,-4033,-15779,896,99,-14,605
2,345,40447,-4019,-15820,744,103,-31,602
2,346,40452,-4101,-15813,822,102,-28,601
2,347,40457,-4100,-15894,829,100,-26,600
2,348,40462,-4118,-15895,740,101,-15,590
2,349,40467,-4137,-15998,707,105,-2,588
2,350,40472,-4198,-15946,887,104,6,584
2,351,40477,-4184,-15921,897,102,-1,581
2,352,40482,-4220,-15936,933,109,-10,578
2,353,40487,-4312,-15966,1021,106,-8,574
2,354,40492,-4350,-15990,1062,104,-24,569
2,355,40497,-4395,-15994,1017,103,-40,565
2,356,40502,-4434,-16038,1097,104,-50,563
2,357,40507,-4405,-15991,1078,104,-61,554
2,358,40512,-4417,-16058,1061,103,-67,553
2,359,40517,-4492,-16022,985,105,-80,546
2,360,40522,-4547,-16061,937,105,-94,539
2,361,40527,-4507,-16091,1018,103,-113,538
2,362,40532,-4335,-16036,1128,105,-135,531
2,363,40537,-4383,-15978,1192,106,-151,525
2,364,40542,-4419,-15928,1122,106,-166,520
2,365,40547,-4093,-15744,1055,108,-165,513
2,366,40552,-3634,-15642,1172,105,-148,508
2,367,40557,-5289,-16118,1015,108,-151,506
2,368,40562,-5282,-16288,824,115,-202,503
2,369,40567,-4790,-15810,472,100,-218,505
2,370,40572,-4163,-15645,704,101,-144,494
2,371,40577,-4867,-15844,922,104,-48,461
2,372,40582,-5559,-15790,658,107,-12,446
2,373,40587,-5370,-15768,719,101,9,453
2,374,40592,-4703,-15623,896,97,30,447
2,375,40597,-4368,-15831,1492,97,61,431
2,376,40602,-4702,-15939,1689,98,50,420
2,377,40607,-4973,-15942,1620,96,-5,417
2,378,40612,-5042,-15793,1357,98,-72,417
2,379,40617,-4955,-15815,1282,98,-108,414
2,380,40622,-4863,-15873,1342,96,-122,401
2,381,40627,-5013,-15871,1237,91,-121,390
2,382,40632,-5192,-15856,1111,94,-131,384
2,383,40637,-5252,-15788,891,93,-137,377
2,384,40642,-5207,-15740,972,89,-128,366
2,385,40647,-5070,-15738,1050,91,-120,361
2,386,40652,-5013,-15726,1214,87,-98,348
2,387,40657,-5029,-15708,1203,87,-84,337
2,388,40662,-5268,-15715,1154,85,-78,326
2,389,40668,-5324,-15724,1088,81,-71,316
2,390,40674,-5302,-15770,1205,78,-56,301
2,391,40680,-5389,-15798,1349,75,-48,287
2,392,40686,-5476,-15759,1405,72,-61,278
2,393,40692,-5418,-15739,1419,71,-83,274
2,394,40698,-5257,-15750,1464,69,-106,264
2,395,40703,-5388,-15732,1475,66,-149,246
2,396,40709,-5482,-15767,1263,64,-171,235
2,397,40715,-5435,-15811,1112,65,-178,227
2,398,40721,-5355,-15800,1073,60,-169,218
2,399,40727,-5409,-15728,1248,57,-155,210
2,400,40733,-5433,-15689,1202,55,-163,187
2,401,40739,-5302,-15638,1154,53,-166,180
2,402,40745,-5237,-15625,1221,49,-163,169
2,403,40751,-5268,-15584,1315,47,-167,162
2,404,40757,-5362,-15576,1213,46,-169,156
2,405,40763,-5231,-15570,948,44,-136,136
2,406,40769,-5302,-15597,983,41,-111,127
2,407,40775,-5413,-15704,1160,41,-100,119
2,408,40781,-5398,-15766,1186,38,-101,116
2,409,40787,-5193,-15650,1522,34,-119,99
2,410,40793,-5334,-15657,1634,33,-156,90
2,411,40799,-5621,-15602,1558,31,-210,85
2,412,40805,-5632,-15545,1285,32,-257,83
2,413,40811,-5569,-15585,1369,28,-270,78
2,414,40817,-5227,-15511,1320,25,-265,61
2,415,40822,-5318,-15379,1146,23,-256,53
2,416,40828,-5711,-15424,1329,14,-237,42
2,417,40834,-5644,-15350,1166,14,-231,35
2,418,40840,-5240,-15339,892,16,-198,33
2,419,40846,-5169,-15277,1121,4,-68,5
2,420,40852,-5462,-15228,1327,2,-51,-5
2,421,40858,-5473,-15243,1148,3,-55,-3
2,422,40864,-5236,-15255,1039,0,-30,-8
2,423,40870,-4999,-15295,1165,0,8,-15
2,424,40876,-5175,-15273,1584,-7,-19,-31
2,425,40882,-5204,-15266,1237,-5,-68,-30
2,426,40888,-5278,-15263,1022,-8,-69,-32
2,427,40894,-5212,-15262,1084,-10,-41,-40
2,428,40900,-5284,-15264,1169,-13,-15,-48
2,429,40906,-5422,-15302,1150,-14,-19,-55
2,430,40912,-5391,-15277,1200,-14,-19,-65
2,431,40918,-5342,-15248,1407,-17,-19,-67
2,432,40924,-5302,-15245,1578,-23,-35,-73
2,433,40930,-5248,-15195,1529,-21,-63,-76
2,434,40935,-5354,-15283,1241,-25,-102,-86
2,435,40941,-5410,-15302,1183,-31,-102,-89
2,436,40947,-5401,-15315,1229,-32,-95,-96
2,437,40953,-5361,-15314,1162,-32,-87,-101
2,438,40959,-5291,-15328,1171,-35,-66,-106
2,439,40965,-5266,-15322,1156,-40,-41,-116
2,440,40971,-5484,-15471,1160,-40,-46,-121
2,441,40977,-5581,-15516,1225,-42,-58,-125
2,442,40983,-5362,-15490,1238,-43,-69,-126
2,443,40989,-5282,-15521,1283,-43,-62,-131
2,444,40995,-5541,-15615,1154,-44,-71,-143
2,445,41001,-5451,-15598,1187,-47,-90,-144
2,446,41007,-5353,-15590,1203,-53,-100,-149
2,447,41013,-5253,-15575,1330,-54,-102,-150
2,448,41019,-5301,-15546,1232,-52,-101,-156
2,449,41025,-5377,-15475,982,-54,-89,-162
2,450,41031,-5332,-15441,1204,-55,-84,-166
2,451,41037,-5029,-15457,1391,-58,-86,-167
2,452,41042,-5019,-15437,1338,-60,-88,-170
2,453,41048,-5277,-15378,1033,-64,-54,-177
2,454,41054,-5096,-15323,1161,-71,-28,-177
2,455,41060,-5053,-15267,1284,-71,-4,-180
2,456,41066,-4999,-15297,1245,-71,16,-183
2,457,41072,-5165,-15305,1151,-70,38,-189
2,458,41078,-5099,-15348,1241,-78,73,-189
2,459,41084,-5025,-15366,1419,-81,69,-192
2,460,41090,-4948,-15504,1495,-79,51,-190
2,461,41096,-4982,-15536,1409,-80,20,-190
2,462,41102,-5127,-15560,1394,-83,-7,-190
2,463,41108,-5296,-15637,1334,-81,-70,-189
2,464,41114,-5255,-15654,1205,-84,-83,-192
2,465,41120,-5259,-15638,1114,-86,-76,-194
2,466,41126,-5350,-15586,1144,-89,-63,-199
2,467,41132,-5379,-15461,1288,-91,-64,-201
2,468,41138,-5211,-15393,1321,-91,-52,-200
2,469,41144,-5105,-15444,1121,-92,-25,-206
2,470,41150,-5086,-15481,1068,-95,2,-210
2,471,41155,-5041,-15450,1201,-98,3,-207
2,472,41161,-4949,-15456,1453,-100,-12,-204
2,473,41167,-4780,-15525,1341,-99,-42,-202
2,474,41173,-4866,-15583,1018,-101,-28,-205
2,475,41179,-4980,-15543,904,-103,-1,-205
2,476,41185,-5032,-15546,864,-105,31,-207
2,477,41191,-4966,-15667,833,-106,60,-209
2,478,41197,-4919,-15744,950,-106,122,-214
2,479,41203,-4987,-15746,1214,-110,143,-217
2,480,41209,-5050,-15683,1440,-114,144,-216
2,481,41215,-5049,-15680,1458,-107,133,-216
2,482,41221,-5036,-15749,1169,-111,117,-218
2,483,41227,-5086,-15733,1146,-113,109,-220
2,484,41233,-5064,-15733,1240,-115,95,-222
2,485,41239,-5074,-15737,1176,-115,80,-224
2,486,41245,-5067,-15730,1160,-114,72,-223
2,487,41251,-4851,-15774,967,-121,76,-233
2,488,41257,-4767,-15809,949,-119,85,-237
2,489,41263,-4739,-15796,934,-120,100,-244
2,490,41269,-4691,-15786,871,-120,117,-248
2,491,41269,-4691,-15786,871,-120,117,-248
2,492,41270,-4691,-15786,871,-120,117,-248
2,493,41271,-4600,-15784,848,-122,135,-249
2,494,41272,-4600,-15784,848,-122,135,-249
2,495,41272,-4600,-15784,848,-122,135,-249
2,496,41273,-4600,-15784,848,-122,135,-249
2,497,41274,-4600,-15784,848,-122,135,-249
2,498,41274,-4600,-15784,848,-122,135,-249
2,499,41275,-4490,-15817,832,-123,166,-257
2,500,41276,-4490,-15817,832,-123,166,-257
2,501,41277,-4490,-15817,832,-123,166,-257
2,502,41277,-4490,-15817,832,-123,166,-257
2,503,41278,-4490,-15817,832,-123,166,-257
2,504,41279,-4490,-15817,832,-123,166,-257
2,505,41280,-4490,-15817,832,-123,166,-257
2,506,41280,-4379,-15865,853,-125,196,-260
2,507,41281,-4379,-15865,853,-125,196,-260
2,508,41282,-4379,-15865,853,-125,196,-260
2,509,41283,-4379,-15865,853,-125,196,-260
2,510,41283,-4379,-15865,853,-125,196,-260
2,511,41284,-4379,-15865,853,-125,196,-260
2,512,41285,-4379,-15865,853,-125,196,-260
2,513,41287,-4317,-15936,854,-126,215,-260
2,514,41292,-4251,-15985,909,-126,221,-264
2,515,41297,-4164,-16048,1043,-125,214,-266
2,516,41302,-4182,-16057,1107,-127,192,-268
2,517,41307,-4218,-16036,1105,-128,175,-270
2,518,41312,-4285,-16026,965,-129,170,-278
2,519,41317,-4372,-16021,736,-128,184,-281
2,520,41322,-4399,-15974,653,-133,211,-289
2,521,41327,-4384,-15990,691,-134,246,-299
2,522,41332,-4455,-15992,666,-136,285,-308
2,523,41337,-4648,-16012,551,-138,335,-322
2,524,41342,-4868,-16036,330,-137,392,-334
2,525,41347,-4823,-16102,469,-141,443,-345
2,526,41352,-4595,-16079,1015,-147,463,-356
2,527,41357,-4460,-16030,1552,-146,435,-367
2,528,41362,-4614,-16048,1568,-142,372,-380
2,529,41367,-4761,-16120,1350,-136,301,-387
2,530,41372,-4662,-16161,1218,-142,231,-391
2,531,41377,-4330,-16210,1350,-146,155,-396
2,532,41382,-4104,-16305,1455,-146,68,-404
2,533,41387,-4111,-16356,1324,-143,-19,-414
2,534,41392,-4311,-16444,958,-145,-83,-423
2,535,41397,-4469,-16480,570,-145,-109,-432
2,536,41402,-4407,-16421,336,-147,-95,-443
2,537,41407,-4216,-16408,317,-152,-56,-459
2,538,41412,-4061,-16366,339,-153,-17,-477
2,539,41417,-4041,-16335,376,-150,11,-493
2,540,41422,-4126,-16375,359,-150,43,-506
2,541,41427,-4027,-16360,304,-154,89,-522
2,542,41432,-3883,-16405,240,-156,136,-538
2,543,41437,-3678,-16440,151,-153,170,-551
2,544,41442,-3488,-16486,360,-152,168,-560
2,545,41447,-3213,-16510,821,-153,121,-572
2,546,41452,-3045,-16413,1075,-149,30,-578
2,547,41457,-3065,-16427,1102,-145,-61,-582
2,548,41462,-3202,-16445,896,-146,-127,-589
2,549,41467,-3314,-16399,640,-148,-171,-596
2,550,41472,-3256,-16364,420,-149,-203,-604
2,551,41477,-3038,-16449,197,-145,-232,-610
2,552,41482,-2821,-16559,146,-143,-245,-621
2,553,41487,-2770,-16590,191,-146,-244,-635
2,554,41492,-2864,-16545,110,-147,-228,-645
2,555,41497,-2856,-16466,-23,-152,-193,-653
2,556,41502,-2744,-16444,-113,-151,-147,-666
2,557,41507,-2659,-16455,-45,-153,-88,-681
2,558,41512,-2631,-16441,-19,-150,-41,-690
2,559,41517,-2614,-16445,46,-149,-9,-698
2,560,41522,-2401,-16461,66,-150,10,-708
2,561,41527,-2118,-16525,273,-145,17,-723
2,562,41532,-2028,-16512,370,-145,-11,-726
2,563,41537,-2074,-16486,447,-144,-53,-730
2,564,41542,-2243,-16453,397,-144,-96,-738
2,565,41547,-2407,-16463,382,-144,-129,-740
2,566,41552,-2453,-16480,336,-144,-159,-751
2,567,41557,-2285,-16553,373,-142,-189,-754
2,568,41562,-2087,-16592,537,-141,-223,-756
2,569,41567,-2024,-16643,655,-141,-264,-763
2,570,41572,-2103,-16548,568,-139,-309,-771
2,571,41577,-2076,-16552,301,-138,-339,-776
2,572,41582,-2001,-16560,119,-142,-334,-781
2,573,41587,-1924,-16573,48,-145,-313,-788
2,574,41592,-2001,-16563,115,-148,-279,-798
2,575,41597,-2057,-16458,-50,-148,-237,-809
2,576,41602,-1887,-16466,-314,-150,-181,-815
2,577,41607,-1774,-16453,-347,-152,-98,-824
2,578,41612,-1594,-16442,-53,-157,-36,-837
2,579,41617,-1451,-16339,248,-157,-6,-841
2,580,41622,-1266,-16294,242,-152,-1,-843
2,581,41627,-1171,-16246,268,-153,-3,-851
2,582,41632,-1189,-16197,450,-158,-14,-854
2,583,41637,-1273,-16145,637,-159,-50,-856
2,584,41642,-1139,-16185,563,-156,-105,-855
2,585,41647,-866,-16207,378,-154,-156,-860
2,586,41652,-787,-16237,277,-155,-192,-864
2,587,41657,-842,-16330,188,-158,-231,-864
2,588,41662,-846,-16272,-47,-157,-265,-865
2,589,41667,-873,-16256,-196,-159,-271,-868
2,590,41672,-792,-16152,-211,-162,-247,-877
2,591,41677,-777,-16150,-162,-161,-201,-881
2,592,41682,-695,-16167,-203,-164,-160,-886
2,593,41687,-442,-16152,-207,-163,-130,-891
2,594,41692,-127,-16168,-173,-166,-105,-890
2,595,41697,45,-16115,-10,-168,-90,-894
2,596,41702,34,-16086,25,-168,-90,-896
2,597,41707,93,-16099,-181,-170,-90,-893
2,598,41712,284,-16047,-287,-174,-74,-895
2,599,41717,-1003,-14312,-385,-176,-40,-898
2,600,41722,-5661,-15058,-18860,-119,112,-866
2,601,41727,-24718,-19462,-32768,-5,1906,-956
2,602,41732,-10705,-16865,-6588,-389,8077,-1125
2,603,41737,-7495,-10972,32767,-140,17291,-1460
2,604,41742,6379,-7581,32767,247,11030,-846
2,605,41747,32767,-19246,6512,825,-825,179
2,606,41752,-1059,-18567,-1618,481,-1274,-291
2,607,41757,-31698,-11142,-1111,102,-3920,-259
2,608,41762,-18939,-15046,9113,152,-6064,601
2,609,41767,293,-18007,5600,215,-4228,415
2,610,41772,12364,-20678,-12317,351,-1622,44
2,611,41777,7239,-19942,2339,223,-42,-227
2,612,41782,-6741,-14895,17639,190,-2009,-357
2,613,41787,-11485,-12176,5487,416,-6215,206
2,614,41792,-9,-19691,-17779,420,-7152,665
2,615,41797,-448,-19668,-19261,229,-3227,50
2,616,41802,-2657,-19193,-12133,155,277,-324
2,617,41807,-4253,-17244,-266,114,1236,-364
2,618,41812,-540,-16634,-2624,212,1,-201
2,619,41817,3099,-17710,-9491,275,-784,-106
2,620,41822,2304,-18303,-6614,217,404,-244
2,621,41827,-2365,-17525,1965,148,2063,-380
2,622,41832,-6715,-15587,2248,143,2368,-349
2,623,41837,-1057,-16173,-194,186,1383,-195
2,624,41842,6023,-16386,6039,163,294,-185
2,625,41847,6131,-16081,8127,176,-315,-302
2,626,41852,-4273,-15885,-838,226,-497,-235
2,627,41857,-5624,-17197,-2861,194,-372,-154
2,628,41862,-29,-15667,5856,103,-367,-211
2,629,41867,5958,-15901,2295,177,-838,-170
2,630,41872,2550,-17301,-6495,219,-801,-166
2,631,41877,-1896,-17144,-4780,128,-454,-232
2,632,41882,-2366,-15564,3565,59,-417,-231
2,633,41887,956,-15784,2323,115,-636,-154
2,634,41892,1023,-16781,-5761,81,212,-245
2,635,41897,-1401,-16411,-3272,45,431,-259
2,636,41902,-2131,-16039,-3818,78,496,-221
2,637,41907,-180,-16192,-1133,73,1134,-186
2,638,41912,1645,-15614,5697,34,1779,-209
2,639,41917,1497,-15048,8996,29,1393,-192
2,640,41922,1794,-15801,4559,82,44,-97
2,641,41927,1244,-16524,822,92,-938,-45
2,642,41932,-538,-16513,-1427,79,-984,-40
2,643,41937,-2583,-16501,-2395,72,-378,-42
2,644,41942,-1435,-16474,-349,47,180,-55
2,645,41947,2007,-16300,1469,44,178,-26
2,646,41952,3755,-16647,534,69,-142,13
2,647,41957,1798,-16906,268,71,-345,8
2,648,41962,-782,-16476,930,39,-450,-1
2,649,41967,-1080,-16615,565,25,-523,39
2,650,41972,486,-16915,-1195,18,-446,48
2,651,41977,1860,-16995,-2272,12,-214,26
2,652,41982,1407,-16970,-1306,5,0,7
2,653,41987,403,-16726,312,0,33,1
2,654,41992,78,-16585,111,4,-31,21
2,655,41997,591,-16731,-927,0,37,37
2,656,42002,1237,-16815,-890,-22,237,24
2,657,42007,1217,-16595,532,-41,369,6
2,658,42012,842,-16534,1375,-34,273,21
2,659,42017,451,-16535,706,-28,101,44
2,660,42022,482,-16445,-120,-22,63,53
2,661,42027,549,-16449,192,-35,169,54
2,662,42032,588,-16457,1233,-46,232,51
2,663,42037,583,-16411,1404,-42,154,57
2,664,42042,428,-16466,595,-30,37,76
2,665,42047,4,-16511,-297,-25,11,83
2,666,42052,-75,-16496,-259,-33,89,79
2,667,42057,284,-16526,270,-36,161,78
2,668,42062,548,-16524,642,-43,170,75
2,669,42067,371,-16483,317,-43,123,74
2,685,42147,853,-16087,360,-83,58,104
2,686,42152,729,-16084,368,-84,19,112
2,687,42157,644,-16155,-110,-84,-34,120
2,688,42162,595,-16217,-282,-90,-32,122
2,689,42167,462,-16285,-212,-95,13,118
2,690,42172,454,-16346,-208,-97,56,117
2,691,42177,490,-16412,-346,-97,87,116
2,692,42182,527,-16412,-319,-95,114,111
2,693,42187,446,-16410,-91,-99,128,111
2,694,42192,289,-16418,113,-102,126,108
2,720,42322,298,-16221,430,-59,20,78
2,721,42327,252,-16276,189,-56,-19,83
2,722,42332,194,-16329,432,-54,-35,81
2,723,42337,-14,-16320,813,-50,-31,79
2,724,42342,101,-16413,534,-37,-41,82
2,725,42347,124,-16379,558,-29,-17,80
2,726,42352,143,-16384,33,-22,-10,77
2,727,42357,300,-16461,-367,-20,8,77
2,728,42362,231,-16391,-174,-26,33,70
2,729,42367,206,-16410,44,-27,15,66
2,760,42522,-45,-16568,145,5,11,6
2,761,42527,39,-16595,257,5,2,3
2,762,42532,82,-16610,210,3,-5,2
2,763,42537,117,-16599,94,5,-15,0
2,764,42542,-20,-16609,55,6,-29,-3
2,765,42547,-39,-16604,48,7,-41,-2
2,766,42552,-11,-16558,30,3,-46,-3
2,767,42557,36,-16571,-32,3,-37,-5
2,768,42562,44,-16564,-82,4,-19,-8
2,769,42567,77,-16529,-92,4,-3,-11
2,795,42697,104,-16492,112,7,57,-13
2,796,42702,114,-16456,80,5,32,-11
2,797,42707,51,-16541,74,4,14,-8
2,798,42712,10,-16543,87,6,7,-8
2,799,42717,-25,-16517,-68,5,3,-9
2,800,42722,-45,-16550,-186,6,15,-9
2,801,42727,-33,-16506,-133,4,36,-13
2,802,42732,33,-16458,-1,2,51,-12
2,803,42737,108,-16429,59,3,55,-11
2,804,42742,74,-16411,64,2,54,-12
2,835,42897,-91,-16311,84,1,32,-1
2,836,42902,-26,-16275,125,2,19,0
2,837,42907,16,-16276,126,2,11,2
2,838,42912,46,-16320,88,0,8,4
2,839,42917,36,-16352,46,-1,8,2
2,840,42922,-7,-16381,24,-1,9,4
2,841,42927,-13,-16406,-50,0,2,6
2,842,42932,-66,-16478,-148,1,1,7
2,843,42937,-73,-16528,-186,0,6,6
2,844,42942,-53,-16538,-102,-1,12,7
2,870,43072,-42,-16589,36,0,-10,2
2,871,43077,15,-16557,148,-3,-17,5
2,872,43082,1,-16575,134,-1,-27,6
2,873,43087,-18,-16613,-49,-1,-36,7
2,874,43092,-89,-16590,-162,-2,-35,7
2,875,43097,-116,-16590,-199,-4,-31,6
2,876,43102,-131,-16577,-91,-1,-29,5
2,877,43107,-24,-16575,-54,-1,-26,7
2,878,43112,4,-16529,-121,-1,-21,7
2,879,43117,12,-16506,-157,-1,-5,6
2,910,43272,-8,-16504,-43,2,-1,7
2,911,43277,-16,-16521,-24,4,-9,7
2,912,43282,-10,-16486,-51,7,-11,7
2,913,43287,-66,-16543,-96,9,-5,6
2,914,43292,-50,-16575,-72,7,3,4
2,915,43297,-42,-16571,-101,7,5,5
2,916,43302,-9,-16583,-64,9,5,6
2,917,43307,-27,-16627,26,12,3,3
2,918,43312,-58,-16582,41,12,2,2
2,919,43317,-77,-16586,-8,13,4,2
2,945,43447,-69,-16650,71,23,8,-6
2,946,43452,-33,-16645,158,23,-4,-6
2,947,43457,-19,-16582,144,21,-21,-6
2,948,43462,11,-16532,118,21,-33,-4
2,949,43467,27,-16496,132,23,-44,-4
2,950,43472,15,-16481,99,23,-54,0
2,951,43477,-32,-16495,53,21,-59,-1
2,952,43482,-16,-16427,-42,21,-52,-1
2,953,43487,-70,-16411,-113,20,-36,-5
2,954,43492,-45,-16430,-37,19,-16,-5
2,985,43647,-44,-16588,-10,9,-9,-8
2,986,43652,-77,-16580,-69,11,3,-10
2,987,43657,-77,-16479,-59,6,11,-9
2,988,43662,16,-16437,122,3,9,-7
2,989,43667,29,-16466,196,4,-2,-4
2,990,43672,42,-16490,87,6,-10,-5
2,991,43677,-10,-16467,3,4,-16,-3
2,992,43682,-155,-16424,20,3,-17,-3
2,993,43687,-129,-16416,44,2,-19,-4
2,994,43692,-31,-16403,14,3,-18,-3
3,0,47342,-428,-16490,-77,-1,-6,1
3,1,47347,-452,-16520,-99,-1,0,4
3,2,47352,-431,-16525,-58,0,-1,1
3,3,47357,-392,-16494,-40,1,-2,2
3,4,47362,-416,-16477,-28,6,-3,1
3,5,47367,-432,-16439,-65,4,-2,3
3,6,47372,-449,-16375,-27,4,-2,5
3,7,47377,-347,-16365,-55,5,-13,2
3,8,47382,-368,-16382,-18,5,-16,2
3,9,47387,-269,-16375,-143,6,-19,2
3,10,47392,-385,-16449,24,6,-9,2
3,11,47397,-450,-16451,-16,6,-9,4
3,12,47402,-406,-16468,-149,8,-3,8
3,13,47407,-358,-16436,-186,10,12,4
3,14,47412,-362,-16493,-23,8,19,3
3,15,47417,-377,-16452,20,9,2,5
3,16,47422,-346,-16504,9,12,-16,5
3,17,47427,-363,-16519,-14,14,-23,6
3,18,47432,-323,-16439,-14,12,-21,8
3,19,47437,-383,-16408,26,13,-17,7
3,20,47442,-433,-16432,-55,12,-20,7
3,21,47447,-452,-16456,-69,13,-26,7
3,22,47452,-486,-16432,-75,13,-22,6
3,23,47457,-494,-16474,-110,15,-19,7
3,24,47462,-455,-16493,-90,15,-15,6
3,25,47467,-467,-16469,-104,15,-6,5
3,26,47472,-446,-16485,-93,15,-4,6
3,27,47477,-448,-16475,-28,13,-4,3
3,28,47482,-428,-16435,-54,16,-3,3
3,29,47487,-462,-16414,-82,17,-3,5
3,30,47492,-415,-16361,-104,18,1,3
3,31,47497,-443,-16363,-82,14,10,2
3,32,47502,-491,-16400,-50,15,14,1
3,33,47507,-574,-16354,-33,19,13,2
3,34,47512,-475,-16346,-71,18,7,4
3,35,47517,-407,-16267,-94,18,8,2
3,36,47522,-443,-16259,-70,19,12,0
3,37,47527,-593,-16258,-17,20,5,-1
3,38,47532,-542,-16266,-8,21,-8,1
3,39,47537,-420,-16256,79,17,-13,1
3,40,47542,-355,-16207,198,17,-16,1
3,41,47547,-344,-16243,153,20,-20,-1
3,42,47552,-434,-16263,73,19,-31,-1
3,43,47557,-448,-16257,89,18,-37,4
3,44,47562,-370,-16249,71,19,-42,3
3,45,47567,-353,-16307,-12,17,-33,2
3,46,47572,-351,-16326,-39,15,-18,1
3,47,47577,-391,-16327,-53,16,-7,1
3,48,47582,-394,-16334,-70,17,6,1
3,49,47587,-361,-16370,-4,14,14,1
3,50,47592,-339,-16429,12,13,17,-2
3,51,47597,-287,-16456,34,14,17,1
3,52,47602,-334,-16499,40,14,16,1
3,53,47607,-391,-16539,52,13,18,3
3,54,47612,-451,-16570,-93,14,15,4
3,55,47617,-535,-16620,-127,14,8,6
3,56,47622,-511,-16678,-114,12,1,8
3,57,47627,-485,-16720,-47,12,0,3
3,58,47632,-556,-16765,13,12,0,2
3,59,47637,-617,-16752,-30,12,2,2
3,60,47642,-583,-16767,-42,15,0,-1
3,61,47647,-545,-16726,70,12,-12,0
3,62,47652,-545,-16758,42,11,-19,0
3,63,47657,-528,-16749,-19,11,-20,2
3,64,47662,-518,-16700,-10,12,-19,2
3,65,47667,-519,-16704,-7,10,-18,-1
3,66,47672,-522,-16653,-10,12,-13,0
3,67,47677,-476,-16563,-11,10,-10,-1
3,68,47682,-419,-16591,3,6,-11,-2
3,69,47687,-401,-16580,22,7,-7,-2
3,70,47692,-402,-16603,30,5,0,-3
3,71,47697,-425,-16621,-30,6,8,-3
3,72,47702,-466,-16671,-76,5,12,-6
3,73,47707,-440,-16601,-92,4,16,-5
3,74,47712,-475,-16592,-4,6,18,-2
3,75,47717,-447,-16599,21,4,13,-3
3,76,47722,-420,-16553,51,3,10,-4
3,77,47727,-477,-16600,70,3,6,-3
3,78,47732,-428,-16556,92,3,-1,-3
3,79,47737,-426,-16521,111,2,-9,-2
3,80,47742,-433,-16567,69,0,-16,-4
3,81,47747,-447,-16510,-31,2,-25,-4
3,82,47752,-439,-16476,-16,-1,-25,-4
3,83,47757,-455,-16451,-50,1,-24,-3
3,84,47762,-385,-16452,-42,1,-23,-4
3,85,47767,-368,-16454,13,1,-19,-3
3,86,47772,-372,-16442,-14,-1,-15,-6
3,87,47777,-379,-16406,-81,-1,-11,-2
3,88,47782,-439,-16378,-67,-1,-4,-4
3,89,47787,-408,-16409,-25,-1,1,-2
3,90,47792,-382,-16408,21,-3,2,-1
3,91,47797,-350,-16408,11,-2,8,-3
3,92,47802,-369,-16426,7,-5,11,-3
3,93,47807,-361,-16412,61,-2,11,-3
3,94,47812,-330,-16404,60,-5,9,0
3,95,47817,-379,-16397,-2,-6,4,0
3,96,47822,-383,-16406,-37,-3,5,0
3,97,47827,-454,-16388,-83,-4,7,-3
3,98,47832,-495,-16452,-48,-7,12,-1
3,99,47837,-518,-16483,-16,-5,15,-3
3,100,47842,-518,-16498,-62,-7,18,-1
3,101,47847,-509,-16495,0,-6,18,-3
3,102,47852,-490,-16504,65,-5,12,-1
3,103,47857,-446,-16532,118,-6,2,0
3,104,47862,-450,-16506,43,-7,-11,-1
3,105,47867,-478,-16503,-29,-3,-22,-3
3,106,47872,-505,-16531,-104,1,-26,-1
3,107,47877,-517,-16500,-135,-3,-25,-2
3,108,47882,-450,-16449,-58,-6,-23,0
3,109,47887,-434,-16461,-73,-6,-20,-3
3,110,47892,-483,-16488,-93,-2,-8,-3
3,111,47897,-462,-16479,-129,-2,6,-6
3,112,47902,-490,-16434,-120,-4,18,-8
3,113,47907,-495,-16398,-88,-8,24,-7
3,114,47912,-467,-16386,-35,-4,24,-7
3,115,47917,-479,-16360,40,-3,25,-4
3,116,47922,-488,-16355,36,-5,24,-4
3,117,47927,-496,-16373,-3,-7,22,-7
3,118,47932,-498,-16353,-27,-2,21,-7
3,119,47937,-541,-16354,-61,-3,20,-5
3,120,47942,-613,-16377,-76,-6,14,-8
3,121,47947,-556,-16365,-32,-3,3,-8
3,122,47952,-531,-16368,-10,-4,-5,-8
3,123,47957,-480,-16359,-39,-1,-11,-5
3,124,47962,-415,-16309,-6,-2,-16,-7
3,125,47967,-412,-16322,18,-5,-25,-10
3,126,47972,-381,-16289,-20,-3,-33,-8
3,127,47977,-385,-16269,-69,-2,-37,-7
3,128,47982,-386,-16272,-63,-3,-33,-7
3,129,47987,-409,-16261,-9,-3,-24,-10
3,130,47992,-400,-16315,-26,-3,-15,-7
3,131,47997,-357,-16345,-10,-5,-12,-8
3,132,48002,-404,-16332,1,-5,-4,-7
3,133,48007,-436,-16349,56,-7,2,-9
3,134,48012,-444,-16384,81,-9,1,-8
3,135,48017,-448,-16362,91,-8,1,-9
3,136,48022,-446,-16403,-46,-8,4,-7
3,137,48027,-392,-16429,-58,-9,7,-8
3,138,48032,-420,-16528,6,-9,5,-7
3,139,48037,-433,-16577,3,-6,-3,-7
3,140,48042,-457,-16599,-73,-8,-9,-8
3,141,48047,-403,-16572,-107,-7,-10,-6
3,142,48052,-403,-16549,-142,-7,-3,-6
3,143,48057,-436,-16622,-88,-7,-1,-7
3,144,48062,-456,-16642,-113,-6,-4,-7
3,145,48067,-500,-16658,-165,-6,-5,-8
3,146,48072,-544,-16685,-157,-8,-2,-11
3,147,48077,-574,-16713,-116,-7,2,-10
3,148,48082,-515,-16662,-58,-7,4,-9
3,149,48087,-475,-16656,-5,-8,-2,-9
3,150,48092,-447,-16620,-28,-9,-9,-11
3,151,48097,-453,-16605,30,-7,-14,-9
3,152,48102,-461,-16630,-41,-6,-19,-9
3,153,48107,-477,-16654,-22,-6,-23,-5
3,154,48112,-434,-16658,-112,-7,-14,-9
3,155,48117,-464,-16645,-63,-7,-11,-6
3,156,48122,-419,-16619,-41,-6,-8,-8
3,157,48127,-396,-16621,-47,-7,-9,-7
3,158,48132,-404,-16579,-72,-9,-6,-11
3,159,48137,-452,-16618,-6,-8,2,-11
3,160,48142,-427,-16628,-72,-8,5,-10
3,161,48147,-425,-16582,-66,-8,5,-8
3,162,48152,-472,-16648,0,-6,7,-7
3,163,48157,-466,-16624,66,-9,10,-12
3,164,48162,-455,-16588,46,-7,8,-7
3,165,48167,-478,-16601,-22,-9,5,-6
3,166,48172,-444,-16583,15,-11,5,-9
3,167,48177,-445,-16549,46,-9,-1,-9
3,168,48182,-480,-16576,52,-8,-7,-8
3,169,48187,-514,-16562,55,-8,-10,-8
3,170,48192,-478,-16531,31,-8,-13,-8
3,171,48197,-490,-16516,32,-11,-15,-5
3,172,48202,-542,-16481,30,-12,-16,-5
3,173,48207,-516,-16494,41,-10,-21,-7
3,174,48212,-514,-16525,-28,-8,-28,-6
3,175,48217,-455,-16489,-29,-9,-24,-9
3,176,48222,-456,-16482,-63,-10,-20,-8
3,177,48227,-491,-16518,-48,-10,-23,-8
3,178,48232,-463,-16491,-20,-10,-20,-7
3,179,48237,-423,-16514,-67,-9,-16,-9
3,180,48242,-410,-16512,-96,-9,-13,-8
3,181,48247,-412,-16488,-52,-7,-10,-5
3,182,48252,-376,-16500,-31,-8,-6,-6
3,183,48257,-360,-16468,-50,-7,-7,-7
3,184,48262,-342,-16481,-22,-9,-6,-9
3,185,48267,-380,-16473,-3,-7,-7,-5
3,186,48272,-351,-16468,-34,-7,-9,-4
3,187,48277,-370,-16464,-43,-8,-9,-5
3,188,48282,-377,-16455,-88,-6,-5,-6
3,189,48287,-349,-16480,-70,-5,-3,-7
3,190,48292,-374,-16471,-25,-4,-6,-4
3,191,48297,-389,-16462,-32,-5,-5,-1
3,192,48302,-370,-16415,-18,-6,-5,-1
3,193,48307,-349,-16398,-27,-5,-5,-1
3,194,48312,-325,-16391,-70,-4,-6,-1
3,195,48317,-384,-16397,-9,-2,-7,1
3,196,48322,-358,-16392,-63,-1,-7,3
3,197,48327,-390,-16379,-73,2,-6,1
3,198,48332,-403,-16367,-32,-1,-2,0
3,199,48337,-399,-16371,-51,0,1,0
3,200,48342,-407,-16389,4,-2,4,2
3,201,48347,-446,-16425,21,0,5,2
3,202,48352,-443,-16418,15,2,4,3
3,203,48357,-451,-16398,26,-1,5,6
3,204,48362,-430,-16377,-14,-2,7,4
3,205,48367,-411,-16411,-60,0,8,3
3,206,48372,-436,-16430,-86,2,5,4
3,207,48377,-459,-16374,-92,3,4,3
3,208,48382,-491,-16404,-61,1,-2,5
3,209,48387,-459,-16372,-59,4,-4,7
3,210,48392,-371,-16373,2,7,-7,5
3,211,48397,-339,-16352,120,6,-8,5
3,212,48402,-378,-16369,51,5,-12,8
3,213,48407,-421,-16382,-23,6,-17,8
3,214,48412,-448,-16404,-156,9,-18,10
3,215,48417,-510,-16438,-226,8,-12,9
3,216,48422,-536,-16431,-199,7,-4,7
3,217,48427,-504,-16437,-105,6,3,7
3,218,48432,-380,-16447,11,9,5,7
3,219,48437,-429,-16479,47,8,7,8
3,220,48442,-433,-16448,6,6,9,8
3,221,48447,-448,-16423,-8,9,8,9
3,222,48452,-480,-16442,2,11,7,12
3,223,48457,-485,-16444,-48,8,4,12
3,224,48462,-538,-16450,-133,11,10,11
3,225,48467,-565,-16474,-135,11,12,11
3,226,48472,-541,-16475,-71,13,12,10
3,227,48477,-453,-16468,24,14,0,10
3,228,48482,-425,-16469,70,15,-12,10
3,229,48487,-446,-16447,65,16,-25,10
3,230,48492,-526,-16435,-44,14,-32,14
3,231,48497,-562,-16424,-102,18,-28,12
3,232,48502,-577,-16415,-131,17,-19,11
3,233,48507,-581,-16451,-51,15,-18,14
3,234,48512,-547,-16457,5,14,-21,14
3,235,48517,-472,-16444,97,15,-24,11
3,236,48522,-413,-16452,146,18,-26,12
3,237,48527,-407,-16511,82,16,-26,12
3,238,48532,-446,-16444,-12,16,-23,12
3,239,48537,-471,-16424,-54,18,-21,12
3,240,48542,-528,-16440,-100,16,-20,14
3,241,48547,-571,-16445,-94,16,-17,14
3,242,48552,-514,-16464,-111,17,-9,14
3,243,48557,-484,-16498,-65,19,2,13
3,244,48562,-497,-16505,-31,20,6,13
3,245,48567,-451,-16522,18,17,7,14
3,246,48572,-449,-16557,35,15,1,15
3,247,48577,-521,-16581,-13,18,-4,15
3,248,48582,-533,-16553,-51,18,-3,12
3,249,48587,-520,-16550,-58,17,1,13
3,250,48592,-472,-16539,-48,18,-1,14
3,251,48597,-519,-16523,-5,17,-4,14
3,252,48602,-576,-16542,-10,18,-7,13
3,253,48607,-606,-16564,-92,20,-13,14
3,254,48612,-603,-16544,-62,19,-10,14
3,255,48617,-587,-16605,-17,19,-12,11
3,256,48622,-560,-16605,40,19,-20,14
3,257,48627,-613,-16625,53,17,-29,15
3,258,48632,-644,-16613,-9,18,-33,13
3,259,48637,-680,-16566,-37,18,-35,13
3,260,48642,-651,-16533,-51,16,-32,11
3,261,48647,-550,-16492,17,16,-28,11
3,262,48652,-491,-16478,-3,17,-31,13
3,263,48657,-509,-16459,29,19,-32,13
3,264,48662,-495,-16465,-20,17,-31,12
3,265,48667,-493,-16466,-39,16,-29,13
3,266,48672,-510,-16505,-48,17,-26,12
3,267,48677,-492,-16494,-26,18,-20,12
3,268,48682,-404,-16461,18,16,-15,12
3,269,48687,-425,-16495,38,14,-14,11
3,270,48692,-448,-16482,36,17,-17,18
3,271,48697,-496,-16444,-6,15,-22,14
3,272,48702,-527,-16490,-36,14,-24,14
3,273,48707,-563,-16505,-42,13,-22,15
3,274,48712,-597,-16492,-47,14,-23,17
3,275,48717,-632,-16468,-56,16,-21,16
3,276,48722,-640,-16480,-82,14,-21,14
3,277,48727,-616,-16457,24,16,-21,15
3,278,48732,-598,-16447,72,16,-26,17
3,279,48737,-557,-16424,133,15,-33,15
3,280,48742,-514,-16380,160,15,-38,16
3,281,48747,-543,-16330,162,14,-40,17
3,282,48752,-538,-16380,106,13,-42,16
3,283,48757,-596,-16388,-14,13,-40,19
3,284,48762,-573,-16400,-39,14,-34,18
3,285,48767,-513,-16404,38,10,-21,19
3,286,48772,-559,-16466,52,8,-14,18
3,287,48777,-583,-16391,-7,8,-12,16
3,288,48782,-594,-16405,-31,8,-7,16
3,289,48787,-708,-16521,3,8,-2,21
3,290,48792,-696,-16489,9,4,-7,18
3,291,48797,-620,-16543,40,7,-13,20
3,292,48802,-575,-16607,30,9,-21,22
3,293,48807,-623,-16560,2,10,-34,22
3,294,48812,-679,-16563,-32,10,-47,24
3,295,48817,-697,-16568,-115,11,-56,27
3,296,48822,-664,-16542,-129,12,-65,28
3,297,48827,-643,-16565,-14,11,-67,29
3,298,48832,-543,-16514,40,11,-71,28
3,299,48837,-559,-16566,31,18,-76,34
3,300,48842,-512,-16438,-26,14,-82,38
3,301,48847,-545,-16459,-33,12,-82,40
3,302,48852,-648,-16487,-197,14,-73,41
3,303,48857,-720,-16538,-241,15,-52,41
3,304,48862,-693,-16542,-150,16,-25,41
3,305,48867,-692,-16511,-156,14,1,46
3,306,48872,-714,-16506,-208,16,23,46
3,307,48877,-824,-16533,-316,13,36,45
3,308,48882,-798,-16547,-54,13,46,51
3,309,48887,-789,-16578,145,14,37,55
3,310,48892,-843,-16721,83,18,28,56
3,311,48897,-889,-16834,-174,19,23,60
3,312,48902,-746,-16907,-88,17,16,65
3,313,48907,-573,-16911,89,22,-16,70
3,314,48912,-584,-16861,364,20,-67,76
3,315,48917,-823,-17004,279,23,-126,81
3,316,48922,-1049,-17041,-196,27,-169,87
3,317,48927,-1043,-17153,-515,31,-186,97
3,318,48932,-768,-17132,-398,29,-190,104
3,319,48937,-710,-16965,136,29,-207,106
3,320,48942,-640,-16829,402,34,-260,114
3,321,48947,-688,-16703,205,40,-309,124
3,322,48952,-759,-16674,-131,42,-313,133
3,323,48957,-839,-16525,-121,35,-276,132
3,324,48962,-840,-16487,105,33,-240,142
3,325,48967,-771,-16439,78,38,-216,148
3,326,48972,-713,-16294,-114,40,-174,150
3,327,48977,-784,-16265,-80,36,-113,155
3,328,48982,-979,-16175,145,30,-56,158
3,329,48987,-1067,-16176,226,31,-15,165
3,330,48992,-890,-16258,60,32,23,173
3,331,48997,-846,-16232,81,29,66,178
3,332,49002,-923,-16252,384,26,78,185
3,333,49007,-1145,-16216,544,29,52,194
3,334,49012,-1176,-16179,479,30,16,203
3,335,49017,-1163,-16118,451,30,1,214
3,336,49022,-1263,-16069,554,26,-7,220
3,337,49027,-1416,-16114,480,29,-29,225
3,338,49032,-1456,-16157,177,35,-62,234
3,339,49037,-1549,-16127,226,36,-79,244
3,340,49042,-1518,-16029,431,33,-93,251
3,341,49047,-1425,-15987,354,30,-103,259
3,342,49052,-1530,-16008,264,33,-98,265
3,343,49057,-1485,-16024,120,36,-96,272
3,344,49062,-1400,-15932,289,36,-90,279
3,345,49067,-1230,-15881,276,35,-95,285
3,346,49072,-1379,-15899,412,38,-87,291
3,347,49077,-1486,-15938,305,40,-84,300
3,348,49082,-1472,-15871,260,37,-64,309
3,349,49087,-1393,-15828,197,35,-40,316
3,350,49092,-1468,-15877,426,36,-18,324
3,351,49097,-1535,-15912,362,38,-15,328
3,352,49102,-1633,-15926,285,37,-10,339
3,353,49107,-1704,-15964,182,38,-3,346
3,354,49112,-1702,-15984,214,39,14,352
3,355,49117,-1745,-16040,359,43,25,365
3,356,49122,-1868,-16107,404,41,30,368
3,357,49127,-1908,-16172,270,44,22,374
3,358,49132,-1912,-16207,133,47,17,381
3,359,49137,-2089,-16220,279,46,21,388
3,360,49142,-2187,-16209,421,46,2,394
3,361,49147,-2189,-16238,466,50,-22,402
3,362,49152,-2058,-16273,269,52,-43,409
3,363,49157,-2103,-16258,321,54,-58,417
3,364,49162,-2227,-16270,356,57,-79,422
3,365,49167,-2211,-16269,375,60,-107,432
3,366,49172,-2075,-16286,371,62,-131,441
3,367,49177,-2003,-16242,377,64,-145,447
3,368,49182,-2047,-16255,354,67,-152,456
3,369,49187,-2207,-16254,197,70,-158,460
3,370,49192,-2359,-16254,65,70,-153,470
3,371,49197,-2275,-16302,-14,74,-140,479
3,372,49202,-2289,-16242,134,74,-113,479
3,373,49207,-2446,-16210,334,79,-78,490
3,374,49212,-2511,-16213,206,81,-66,492
3,375,49217,-2603,-16168,243,82,-44,497
3,376,49222,-2708,-16260,339,84,-31,506
3,377,49227,-2758,-16224,548,83,-27,509
3,378,49232,-2686,-16298,598,85,-36,516
3,379,49237,-2658,-16284,640,89,-53,519
3,380,49242,-2820,-16239,623,91,-80,524
3,381,49247,-2999,-16206,678,93,-110,532
3,382,49252,-3016,-16181,697,94,-141,535
3,383,49257,-2917,-16171,719,96,-163,542
3,384,49262,-2930,-16249,596,98,-169,548
3,385,49267,-3061,-16243,523,102,-168,549
3,386,49272,-3147,-16150,604,100,-173,557
3,387,49277,-3094,-16119,537,100,-180,560
3,388,49282,-3070,-16113,468,104,-181,563
3,389,49287,-3160,-16147,490,105,-169,563
3,390,49292,-3290,-16124,458,100,-146,565
3,391,49297,-3482,-16107,378,104,-120,569
3,392,49302,-3421,-16154,349,105,-94,569
3,393,49307,-3450,-16197,473,103,-68,571
3,394,49312,-3430,-16300,710,105,-54,574
3,395,49317,-3361,-16255,781,107,-60,573
3,396,49322,-3410,-16259,679,106,-80,579
3,397,49327,-3485,-16290,714,108,-100,581
3,398,49332,-3583,-16296,736,109,-131,589
3,399,49337,-3536,-16230,927,112,-164,592
3,400,49342,-3492,-16148,800,116,-197,595
3,401,49347,-3698,-16261,703,117,-211,599
3,402,49352,-3775,-16306,537,118,-220,601
3,403,49357,-3696,-16248,483,118,-220,606
3,404,49362,-3680,-16274,637,118,-222,611
3,405,49367,-3847,-16357,662,125,-233,608
3,406,49372,-3954,-16344,525,125,-231,609
3,407,49377,-4050,-16236,368,124,-208,610
3,408,49382,-4105,-16208,585,124,-173,608
3,409,49387,-4068,-16206,665,127,-162,608
3,410,49392,-4089,-16228,668,129,-155,609
3,411,49397,-4150,-16298,544,129,-150,609
3,412,49402,-4228,-16279,728,129,-140,611
3,413,49407,-4159,-16158,977,128,-144,614
3,414,49412,-4061,-16057,1075,127,-167,614
3,415,49417,-4093,-16140,894,131,-193,615
3,416,49422,-4277,-16104,689,133,-204,615
3,417,49427,-4411,-16117,687,132,-200,617
3,418,49432,-4470,-16144,716,134,-196,620
3,419,49437,-4417,-16159,672,135,-189,620
3,420,49442,-4380,-16184,796,137,-176,617
3,421,49447,-4305,-16088,906,133,-172,618
3,422,49452,-4376,-16083,1160,134,-180,617
3,423,49457,-4587,-16082,1072,137,-222,618
3,424,49462,-4686,-16080,878,136,-243,622
3,425,49467,-4657,-15925,927,135,-239,624
3,426,49472,-4528,-15931,1020,138,-234,623
3,427,49477,-4614,-15861,956,136,-230,618
3,428,49482,-4682,-15741,752,136,-233,618
3,429,49487,-4871,-15761,721,137,-214,619
3,430,49492,-4934,-15751,584,138,-181,619
3,431,49497,-4894,-15764,724,135,-125,611
3,432,49502,-4988,-15751,837,135,-75,604
3,433,49507,-5025,-15774,983,137,-54,607
3,434,49512,-4923,-15726,1151,136,-61,607
3,435,49517,-4890,-15637,1392,134,-86,607
3,436,49522,-4970,-15667,1462,135,-119,605
3,437,49527,-5137,-15652,1377,136,-151,606
3,438,49532,-5139,-15610,1113,133,-177,607
3,439,49537,-5184,-15564,1083,132,-181,606
3,440,49542,-5175,-15554,974,130,-183,598
3,441,49547,-5321,-15531,935,130,-175,596
3,442,49552,-5414,-15558,828,133,-152,594
3,443,49557,-5446,-15506,738,130,-114,585
3,444,49562,-5411,-15540,862,132,-76,582
3,445,49567,-5336,-15537,1166,126,-60,578
3,446,49572,-5378,-15445,1209,125,-76,568
3,447,49577,-5544,-15465,1254,123,-76,567
3,448,49582,-5567,-15437,1277,121,-79,561
3,449,49587,-5465,-15363,1239,120,-92,558
3,450,49592,-5410,-15330,1191,115,-100,556
3,451,49597,-5585,-15330,1149,118,-95,546
3,452,49602,-5799,-15327,1014,118,-81,538
3,453,49607,-5856,-15312,948,117,-58,533
3,454,49612,-5781,-15319,991,111,-26,527
3,455,49617,-5632,-15266,1174,106,3,518
3,456,49622,-5657,-15281,1412,105,18,510
3,457,49627,-5872,-15289,1320,105,11,502
3,458,49632,-6004,-15272,1206,105,-2,494
3,459,49638,-5991,-15293,1143,98,-1,487
3,460,49644,-5799,-15392,1322,98,-10,483
3,461,49650,-5664,-15370,1450,95,-31,472
3,462,49655,-5741,-15309,1501,94,-72,464
3,463,49661,-6143,-15337,894,90,-106,445
3,464,49667,-6141,-15391,755,88,-81,437
3,465,49673,-5987,-15390,905,83,-47,424
3,466,49679,-5883,-15367,1115,82,-27,408
3,467,49685,-6141,-15323,993,80,-13,387
3,468,49691,-6245,-15303,1070,73,8,372
3,469,49697,-6212,-15253,1061,71,26,359
3,470,49703,-6182,-15306,1134,70,32,350
3,471,49709,-6114,-15359,1143,64,34,337
3,472,49715,-6122,-15261,1419,58,19,308
3,473,49721,-6238,-15236,1379,57,-3,296
3,474,49727,-6294,-15252,1150,51,-17,285
3,475,49733,-6321,-15297,1010,44,-14,271
3,476,49739,-6254,-15259,1152,43,-7,255
3,477,49745,-6275,-15297,1318,37,-21,227
3,478,49751,-6329,-15289,1212,35,-33,213
3,479,49756,-6241,-15323,1194,30,-40,199
3,480,49762,-6079,-15263,1356,23,-53,186
3,481,49768,-6017,-15226,1465,18,-78,172
3,482,49774,-6282,-15234,1095,15,-109,139
3,483,49780,-6261,-15243,1014,9,-96,126
3,484,49786,-6234,-15218,1046,4,-70,105
3,485,49792,-6125,-15149,1216,-3,-53,87
3,486,49798,-6172,-15094,1192,-7,-45,69
3,487,49804,-6339,-15066,1073,-14,1,31
3,488,49810,-6396,-14996,1212,-21,36,13
3,489,49816,-6320,-14944,1291,-28,67,-6
3,490,49822,-6333,-15011,1169,-31,86,-25
3,491,49828,-6517,-15109,961,-33,100,-45
3,492,49834,-6159,-15179,1507,-45,65,-79
3,493,49840,-5713,-15176,1889,-50,9,-92
3,494,49846,-5683,-15141,1973,-52,-52,-108
3,495,49852,-5969,-15157,1656,-55,-108,-128
3,496,49858,-6283,-15166,1079,-56,-151,-142
3,497,49864,-5873,-15235,809,-69,-153,-171
3,498,49870,-5684,-15267,952,-75,-120,-193
3,499,49876,-5820,-15331,1079,-79,-98,-220
3,500,49882,-6009,-15262,1044,-82,-83,-238
3,501,49888,-5926,-15228,898,-93,-9,-273
3,502,49894,-5775,-15169,1226,-101,35,-300
3,503,49899,-5809,-15063,1351,-109,53,-322
3,504,49905,-5913,-15089,1215,-113,62,-343
3,505,49911,-6120,-15098,898,-115,87,-365
3,506,49917,-6005,-15363,775,-131,183,-405
3,507,49923,-5751,-15472,1195,-137,205,-424
3,508,49929,-5358,-15543,1645,-135,156,-439
3,509,49935,-5046,-15518,1620,-135,65,-452
3,510,49941,-5167,-15557,1585,-137,-18,-467
3,511,49947,-5510,-15501,1119,-146,-140,-496
3,512,49953,-5412,-15573,841,-152,-172,-510
3,513,49959,-5247,-15707,515,-156,-170,-528
3,514,49965,-5164,-15789,391,-162,-132,-551
3,515,49971,-5165,-15824,500,-166,-91,-571
3,516,49977,-5045,-15755,640,-173,-26,-608
3,517,49978,-5045,-15755,640,-173,-26,-608
3,518,49978,-5045,-15755,640,-173,-26,-608
3,519,49979,-5045,-15755,640,-173,-26,-608
3,520,49980,-5045,-15755,640,-173,-26,-608
3,521,49981,-5045,-15755,640,-173,-26,-608
3,522,49981,-4812,-15697,732,-178,7,-627
3,523,49982,-4812,-15697,732,-178,7,-627
3,524,49983,-4812,-15697,732,-178,7,-627
3,525,49983,-4812,-15697,732,-178,7,-627
3,526,49984,-4812,-15697,732,-178,7,-627
3,527,49985,-4812,-15697,732,-178,7,-627
3,528,49986,-4812,-15697,732,-178,7,-627
3,529,49987,-4766,-15726,824,-186,44,-647
3,530,49992,-4910,-15678,866,-190,76,-664
3,531,49997,-5205,-15856,715,-189,105,-679
3,532,50002,-5264,-15963,424,-187,118,-695
3,533,50007,-4942,-16042,653,-193,123,-709
3,534,50012,-4434,-16088,1170,-197,96,-714
3,535,50017,-4167,-16062,1715,-197,24,-726
3,536,50022,-4304,-15986,1627,-197,-81,-742
3,537,50027,-4651,-16002,1090,-196,-169,-749
3,538,50032,-4767,-15981,594,-198,-203,-755
3,539,50037,-4559,-15972,417,-205,-192,-768
3,540,50042,-4305,-16086,413,-208,-168,-782
3,541,50047,-4222,-16139,404,-213,-141,-799
3,542,50052,-4338,-16116,340,-214,-102,-816
3,543,50057,-4490,-16059,234,-219,-53,-831
3,544,50062,-4383,-16035,343,-223,4,-847
3,545,50067,-4199,-16063,528,-227,60,-859
3,546,50072,-4063,-16093,704,-232,105,-874
3,547,50077,-4088,-15967,717,-231,135,-891
3,548,50082,-4285,-15975,716,-234,158,-903
3,549,50087,-4475,-16041,640,-234,180,-916
3,550,50092,-4464,-16075,541,-238,202,-927
3,551,50097,-4445,-16141,597,-240,216,-937
3,552,50102,-4379,-16285,797,-238,208,-948
3,553,50107,-4267,-16370,1065,-238,153,-957
3,554,50112,-3871,-16292,1400,-234,52,-957
3,555,50117,-3407,-16219,1626,-234,-73,-957
3,556,50122,-3323,-16136,1588,-237,-201,-967
3,557,50127,-3586,-16167,1098,-238,-307,-969
3,558,50132,-3791,-16197,507,-239,-370,-969
3,559,50137,-3620,-16260,-16,-243,-369,-972
3,560,50142,-3399,-16230,-250,-245,-307,-984
3,561,50147,-3342,-16248,-298,-246,-215,-1000
3,562,50152,-3381,-16276,-221,-250,-125,-1010
3,563,50157,-3301,-16135,-161,-252,-51,-1018
3,564,50162,-3089,-16121,65,-251,26,-1027
3,565,50167,-2828,-16123,259,-254,91,-1035
3,566,50172,-2677,-16098,537,-258,136,-1038
3,567,50177,-2680,-16056,713,-259,157,-1044
3,568,50182,-2797,-15989,744,-257,163,-1050
3,569,50187,-2972,-15923,545,-259,162,-1052
3,570,50192,-2991,-16016,427,-258,169,-1050
3,571,50197,-2807,-16101,445,-259,172,-1052
3,572,50202,-2566,-16188,688,-258,156,-1055
3,573,50207,-2446,-16219,897,-254,112,-1056
3,574,50212,-2309,-16210,918,-253,48,-1056
3,575,50217,-2176,-16228,718,-252,-17,-1053
3,576,50222,-2084,-16149,540,-252,-68,-1046
3,577,50227,-2091,-16085,440,-253,-106,-1044
3,578,50232,-2152,-16050,245,-257,-123,-1047
3,579,50237,-2156,-16048,-18,-258,-110,-1046
3,580,50242,-1915,-16030,-177,-258,-65,-1046
3,581,50247,-1618,-15974,-200,-259,0,-1047
3,582,50252,-1422,-16000,-194,-260,54,-1051
3,583,50257,-1412,-15942,-219,-263,112,-1057
3,584,50262,-1536,-15900,-247,-263,181,-1057
3,585,50267,-1645,-15979,-265,-261,254,-1059
3,586,50272,-1729,-15970,-279,-265,333,-1062
3,587,50277,-1562,-16039,-116,-265,395,-1059
3,588,50282,-1428,-16018,51,-266,428,-1059
3,589,50287,-1344,-16069,373,-262,426,-1058
3,590,50292,-1178,-16212,653,-257,379,-1055
3,591,50297,-1070,-16141,694,-260,316,-1048
3,592,50302,-865,-16138,626,-258,242,-1034
3,593,50307,-1088,-16096,251,-260,124,-1029
3,594,50312,-1005,-16085,-50,-259,81,-1017
3,595,50317,-800,-16126,-240,-257,69,-1012
3,596,50322,-665,-16189,-330,-262,87,-1009
3,597,50327,-590,-16209,-340,-261,118,-1008
3,598,50332,-602,-16238,-464,-258,140,-1007
3,599,50337,-2722,-13486,-856,-259,166,-999
3,600,50342,-6448,-18802,-19589,-162,451,-957
3,601,50347,-26745,-19829,-32768,-123,2261,-1203
3,602,50352,-6158,-15848,11822,-539,10903,-1037
3,603,50357,-14616,-8698,32767,-13,20728,-1224
3,604,50362,16015,-11235,26110,427,9610,-773
3,605,50367,32412,-18289,-8720,809,-1636,-6
3,606,50372,-12261,-19994,-4101,401,-472,-324
3,607,50377,-32768,-8053,-838,14,-4441,-57
3,608,50382,-14741,-17527,-1959,110,-6212,1052
3,609,50387,4159,-17984,-1977,170,-1937,634
3,610,50392,17568,-22159,-2645,230,1869,75
3,611,50397,4899,-16958,21033,94,1738,-349
3,612,50402,-12110,-12566,23466,256,-3247,5
3,613,50407,-15280,-12733,3456,457,-8326,872
3,614,50412,-1103,-19331,-15341,384,-8616,1138
3,615,50417,607,-20196,-16152,232,-4293,435
3,616,50422,-4448,-19143,-9859,155,-908,50
3,617,50427,-6825,-16908,-2160,76,-452,29
3,618,50432,-4159,-15361,-7914,234,-1773,257
3,619,50437,1088,-17725,-17061,265,-2023,335
3,620,50442,362,-18092,-11647,179,194,62
3,621,50447,-3075,-17753,-316,156,2615,-103
3,622,50452,-2325,-16615,5926,138,3334,-107
3,623,50457,2327,-15860,2939,182,2402,4
3,624,50462,5529,-15928,-32,198,1180,105
3,625,50467,2811,-16323,4465,144,647,100
3,626,50472,-1740,-16245,8332,126,406,92
3,627,50477,-2456,-16126,5186,173,132,150
3,628,50482,-117,-15908,-619,178,-54,195
3,629,50487,1667,-16539,-2578,168,-312,230
3,630,50492,738,-16271,368,134,-668,184
3,631,50497,-1344,-16128,1379,145,-1069,199
3,632,50502,-2245,-16596,-1625,172,-1036,237
3,633,50507,-1435,-16739,-4853,162,-453,205
3,634,50512,-128,-16569,-3960,122,199,153
3,635,50517,621,-16491,-260,95,382,134
3,636,50522,251,-16323,1079,108,118,137
3,637,50527,-506,-16542,132,130,-67,158
3,638,50532,-1156,-16665,-1083,123,104,153
3,639,50537,-1168,-16463,-559,90,413,128
3,640,50542,-386,-16297,1220,68,462,128
3,641,50547,356,-16384,1716,72,204,142
3,642,50552,331,-16321,930,84,-82,149
3,643,50557,-535,-16617,54,91,-173,166
3,644,50562,-1260,-16554,-417,75,-115,152
3,645,50567,-1072,-16502,-547,54,-44,146
3,646,50572,-403,-16671,-693,41,-11,147
3,647,50577,18,-16628,-817,42,6,135
3,648,50582,-323,-16622,-509,44,43,127
3,649,50587,-877,-16675,-431,39,79,128
3,650,50592,-1033,-16653,-594,27,121,127
3,651,50597,-593,-16643,-509,20,167,122
3,652,50602,-305,-16726,-16,10,199,120
3,653,50607,-429,-16731,407,5,181,116
3,654,50612,-741,-16637,274,3,125,110
3,655,50617,-963,-16558,-168,4,78,114
3,656,50622,-865,-16571,-272,-3,68,118
3,657,50627,-627,-16545,-24,-16,75,112
3,658,50632,-497,-16528,168,-21,63,109
3,659,50637,-652,-16547,39,-25,36,110
3,660,50642,-856,-16527,-333,-27,23,103
3,661,50647,-1002,-16449,-502,-34,47,99
3,662,50652,-1031,-16465,-258,-42,88,100
3,663,50657,-840,-16535,-82,-46,106,95
3,664,50662,-691,-16502,24,-48,112,88
3,665,50667,-715,-16417,-26,-52,105,87
3,666,50672,-971,-16390,126,-62,74,81
3,667,50677,-876,-16425,63,-68,71,82
3,668,50682,-782,-16486,-158,-71,77,82
3,669,50687,-854,-16423,-87,-74,95,72
3,670,50692,-937,-16411,42,-79,99,66
3,671,50697,-1063,-16462,-67,-81,78,71
3,672,50702,-1056,-16463,-194,-85,77,66
3,673,50707,-989,-16501,-177,-91,106,58
3,674,50712,-957,-16478,29,-94,129,53
3,675,50717,-900,-16390,220,-99,123,49
3,676,50722,-871,-16354,196,-99,91,53
3,677,50727,-848,-16356,179,-97,61,50
3,678,50732,-866,-16343,165,-101,42,50
3,679,50737,-896,-16343,152,-105,27,46
3,680,50742,-914,-16377,26,-107,14,47
3,681,50747,-821,-16341,-47,-109,5,44
3,682,50752,-795,-16313,-45,-110,-2,41
3,683,50757,-759,-16283,-18,-111,-3,38
3,684,50762,-761,-16293,-39,-113,-3,37
3,685,50767,-738,-16252,-128,-116,-1,37
3,686,50772,-787,-16226,-221,-114,12,33
3,687,50777,-859,-16248,-168,-119,28,28
3,688,50782,-926,-16238,-96,-119,47,25
3,689,50787,-920,-16234,-62,-119,61,22
3,690,50792,-847,-16262,-15,-120,72,21
3,691,50797,-838,-16348,-57,-121,82,17
3,692,50802,-859,-16379,-54,-122,86,15
3,693,50807,-932,-16388,-118,-122,77,11
3,694,50812,-946,-16388,-74,-124,68,10
3,695,50817,-961,-16380,-122,-121,59,9
3,696,50822,-988,-16435,-15,-119,60,5
3,697,50827,-1015,-16420,-16,-120,61,0
3,698,50832,-992,-16508,7,-117,61,-1
3,699,50837,-983,-16593,-12,-117,58,-1
3,700,50842,-1047,-16566,-53,-118,53,-7
3,701,50847,-1083,-16541,28,-116,43,-7
3,702,50852,-1037,-16549,91,-116,33,-13
3,703,50857,-1026,-16517,52,-116,27,-17
3,704,50862,-939,-16524,99,-115,18,-15
3,705,50867,-939,-16486,103,-112,7,-20
3,706,50872,-918,-16428,26,-113,-10,-20
3,707,50877,-903,-16459,-61,-111,-20,-20
3,708,50882,-934,-16404,-122,-107,-23,-22
3,709,50887,-870,-16470,-192,-109,-16,-24
3,710,50892,-816,-16458,-198,-109,0,-30
3,711,50897,-820,-16459,-235,-106,12,-28
3,712,50902,-821,-16500,-242,-104,22,-34
3,713,50907,-854,-16490,-214,-101,29,-37
3,714,50912,-773,-16452,-138,-98,30,-36
3,715,50917,-724,-16456,-46,-98,36,-42
3,716,50922,-729,-16478,13,-95,37,-41
3,717,50927,-752,-16454,8,-91,31,-41
3,718,50932,-736,-16452,-112,-90,26,-40
3,719,50937,-786,-16445,-143,-89,25,-41
3,720,50942,-783,-16471,-130,-88,19,-45
3,721,50947,-763,-16451,-119,-84,16,-46
3,722,50952,-744,-16482,-186,-82,17,-46
3,723,50957,-702,-16504,-215,-80,22,-47
3,724,50962,-730,-16473,-249,-76,28,-50
3,725,50967,-752,-16443,-186,-72,31,-49
3,726,50972,-726,-16448,-144,-71,32,-50
3,727,50977,-720,-16409,-225,-68,35,-53
3,728,50982,-717,-16389,-193,-66,43,-51
3,729,50987,-732,-16346,-171,-63,45,-52
3,730,50992,-709,-16325,-158,-60,39,-52
3,731,50997,-673,-16327,-139,-54,33,-48
3,732,51002,-643,-16351,-194,-54,35,-50
3,733,51007,-716,-16350,-184,-54,41,-52
3,734,51012,-708,-16337,-239,-51,50,-51
3,735,51017,-708,-16324,-254,-47,54,-53
3,736,51022,-721,-16355,-275,-44,58,-56
3,737,51027,-708,-16402,-243,-44,62,-54
3,738,51032,-665,-16363,-245,-39,61,-53
3,739,51037,-765,-16310,-188,-33,62,-54
3,740,51042,-731,-16310,-155,-31,55,-54
3,741,51047,-710,-16298,-180,-27,50,-52
3,742,51052,-708,-16314,-253,-27,47,-53
3,743,51057,-744,-16312,-221,-23,42,-55
3,744,51062,-771,-16320,-254,-20,37,-53
3,745,51067,-816,-16358,-324,-15,30,-54
3,746,51072,-813,-16385,-276,-15,29,-53
3,747,51077,-785,-16388,-181,-13,29,-52
3,748,51082,-706,-16421,-110,-11,23,-53
3,749,51087,-593,-16414,-57,-9,16,-52
3,750,51092,-672,-16410,-108,-5,7,-52
3,751,51097,-726,-16488,-197,-5,-3,-53
3,752,51102,-802,-16478,-334,1,-8,-50
3,753,51107,-792,-16495,-380,3,-7,-51
3,754,51112,-720,-16514,-353,4,-3,-47
3,755,51117,-678,-16522,-231,2,0,-46
3,756,51122,-603,-16497,-176,7,1,-50
3,757,51127,-658,-16509,-203,8,0,-48
3,758,51132,-692,-16494,-280,9,-3,-46
3,759,51137,-711,-16559,-364,11,0,-43
3,760,51142,-719,-16593,-403,12,4,-46
3,761,51147,-771,-16624,-433,16,15,-45
3,762,51152,-770,-16631,-397,15,22,-47
3,763,51157,-724,-16607,-311,19,28,-45
3,764,51162,-719,-16530,-286,24,39,-44
3,765,51167,-670,-16560,-263,24,44,-42
3,766,51172,-712,-16550,-238,23,40,-45
3,767,51177,-747,-16490,-216,26,32,-42
3,768,51182,-769,-16516,-211,28,27,-41
3,769,51187,-772,-16528,-263,28,27,-40
3,770,51192,-750,-16514,-230,32,31,-36
3,771,51197,-752,-16539,-229,28,38,-38
3,772,51202,-712,-16509,-174,26,38,-35
3,773,51207,-715,-16493,-145,32,28,-31
3,774,51212,-742,-16473,-140,31,17,-33
3,775,51217,-760,-16456,-199,33,15,-28
3,776,51222,-759,-16448,-243,33,21,-30
3,777,51227,-773,-16490,-244,30,23,-32
3,778,51232,-780,-16558,-337,33,23,-30
3,779,51237,-794,-16608,-428,36,27,-29
3,780,51242,-773,-16624,-422,37,26,-27
3,781,51247,-731,-16593,-358,35,24,-27
3,782,51252,-733,-16571,-286,38,18,-26
3,783,51257,-705,-16551,-264,37,9,-21
3,784,51262,-694,-16548,-329,40,8,-22
3,785,51267,-670,-16509,-364,41,5,-22
3,786,51272,-661,-16522,-273,42,1,-21
3,787,51277,-656,-16500,-200,42,-3,-15
3,788,51282,-654,-16505,-241,43,-4,-12
3,789,51287,-652,-16545,-353,44,2,-14
3,790,51292,-686,-16562,-336,44,15,-12
3,791,51297,-647,-16549,-321,42,26,-12
3,792,51302,-635,-16564,-277,42,25,-12
3,793,51307,-679,-16525,-248,42,21,-9
3,794,51312,-700,-16518,-226,39,21,-9
3,795,51317,-683,-16513,-266,43,19,-5
3,796,51322,-704,-16475,-284,39,20,-4
3,797,51327,-718,-16460,-251,36,21,-3
3,798,51332,-723,-16487,-303,38,16,1
3,799,51337,-727,-16536,-329,42,17,0
3,800,51342,-772,-16554,-363,41,17,0
3,801,51347,-718,-16591,-288,37,18,4
3,802,51352,-731,-16507,-246,38,12,5
3,803,51357,-728,-16498,-264,39,7,6
3,804,51362,-672,-16529,-329,39,4,6
3,805,51367,-674,-16454,-355,39,2,9
3,806,51372,-655,-16441,-289,37,-3,11
3,807,51377,-676,-16445,-252,37,-8,11
3,808,51382,-667,-16415,-291,36,-13,14
3,809,51387,-620,-16405,-331,38,-10,14
3,810,51392,-621,-16400,-351,38,-3,17
3,811,51397,-690,-16415,-371,36,12,19
3,812,51402,-738,-16446,-393,33,27,21
3,813,51407,-747,-16454,-316,33,39,20
3,814,51412,-741,-16428,-275,32,47,23
3,815,51417,-738,-16445,-205,29,49,27
3,816,51422,-781,-16442,-188,25,45,26
3,817,51427,-750,-16496,-199,31,38,30
3,818,51432,-784,-16478,-240,32,28,31
3,819,51437,-799,-16471,-311,30,22,32
3,820,51442,-827,-16445,-333,27,15,33
3,821,51447,-829,-16433,-262,27,6,37
3,822,51452,-841,-16462,-275,25,5,34
3,823,51457,-826,-16491,-283,24,4,36
3,824,51462,-826,-16463,-247,26,4,39
3,825,51467,-801,-16462,-264,24,6,38
3,826,51472,-827,-16470,-300,18,10,35
3,827,51477,-827,-16475,-347,22,5,38
3,828,51482,-839,-16514,-318,21,1,41
3,829,51487,-856,-16529,-237,18,2,40
3,830,51492,-821,-16527,-232,16,6,41
3,831,51497,-781,-16517,-252,16,7,40
3,832,51502,-783,-16470,-290,16,4,42
3,833,51507,-774,-16457,-242,15,1,45
3,834,51512,-840,-16456,-243,12,-12,47
3,835,51517,-817,-16455,-280,10,-19,46
3,836,51522,-826,-16504,-333,12,-17,48
3,837,51527,-815,-16538,-408,9,-8,49
3,838,51532,-832,-16501,-305,9,4,50
3,839,51537,-809,-16526,-204,7,6,47
3,840,51542,-825,-16510,-207,5,4,48
3,841,51547,-790,-16478,-292,4,5,47
3,842,51552,-814,-16478,-356,4,11,49
3,843,51557,-813,-16513,-319,4,11,52
3,844,51562,-789,-16500,-275,2,4,51
3,845,51567,-798,-16490,-330,2,0,51
3,846,51572,-805,-16505,-370,2,0,53
3,847,51577,-814,-16466,-333,-2,2,53
3,848,51582,-835,-16427,-266,-3,1,53
3,849,51587,-862,-16480,-322,-1,-2,53
3,850,51592,-854,-16499,-394,-1,-2,53
3,851,51597,-910,-16503,-335,-4,0,53
3,852,51602,-878,-16485,-282,-6,3,54
3,853,51607,-846,-16501,-256,-6,6,52
3,854,51612,-856,-16501,-247,-6,0,51
3,855,51617,-797,-16449,-260,-6,-10,54
3,856,51622,-790,-16413,-227,-5,-19,57
3,857,51627,-744,-16415,-204,-7,-28,54
3,858,51632,-717,-16396,-275,-9,-30,56
3,859,51637,-712,-16382,-355,-9,-22,58
3,860,51642,-675,-16332,-359,-13,-15,55
3,861,51647,-611,-16307,-323,-12,-12,57
3,862,51652,-570,-16331,-294,-10,-9,61
3,863,51657,-558,-16301,-305,-13,-2,59
3,864,51662,-527,-16302,-300,-17,9,60
3,865,51667,-615,-16334,-347,-18,20,60
3,866,51672,-690,-16373,-419,-17,30,60
3,867,51677,-766,-16355,-400,-15,37,60
3,868,51682,-799,-16447,-346,-17,46,59
3,869,51687,-797,-16443,-306,-20,47,61
3,870,51692,-864,-16430,-251,-18,49,61
3,871,51697,-890,-16475,-229,-17,47,61
3,872,51702,-909,-16405,-225,-21,37,60
3,873,51707,-904,-16370,-177,-21,27,60
3,874,51712,-885,-16420,-137,-23,14,64
3,875,51717,-886,-16426,-203,-21,5,60
3,876,51722,-921,-16307,-221,-20,0,60
3,877,51727,-930,-16328,-242,-22,-3,59
3,878,51732,-910,-16331,-291,-27,-6,60
3,879,51737,-904,-16337,-281,-27,-2,58
3,880,51742,-915,-16306,-302,-24,1,57
3,881,51747,-928,-16356,-271,-24,5,55
3,882,51752,-928,-16277,-240,-24,7,53
3,883,51757,-965,-16286,-259,-28,10,54
3,884,51762,-926,-16354,-292,-31,16,52
3,885,51767,-1049,-16429,-332,-27,22,47
3,886,51772,-1129,-16439,-292,-30,22,47
3,887,51777,-1070,-16424,-265,-29,16,49
3,888,51782,-1001,-16425,-247,-28,9,48
3,889,51787,-970,-16425,-205,-28,1,43
3,890,51792,-974,-16444,-267,-27,-15,44
3,891,51797,-964,-16437,-309,-27,-27,44
3,892,51802,-1018,-16460,-346,-27,-32,43
3,893,51807,-1048,-16454,-376,-25,-36,40
3,894,51812,-1043,-16439,-319,-24,-31,41
3,895,51817,-970,-16455,-356,-25,-28,42
3,896,51822,-950,-16452,-292,-28,-24,37
3,897,51827,-908,-16431,-294,-25,-22,38
3,898,51832,-961,-16405,-285,-26,-24,36
3,899,51837,-976,-16407,-313,-28,-21,32
3,900,51842,-968,-16451,-337,-28,-19,32
3,901,51847,-1014,-16458,-342,-26,-15,30
3,902,51852,-973,-16486,-339,-25,-8,28
3,903,51857,-866,-16506,-356,-27,-6,28
3,904,51862,-873,-16451,-298,-25,-12,31
3,905,51867,-883,-16475,-227,-25,-17,28
3,906,51872,-876,-16443,-291,-22,-22,27
3,907,51877,-941,-16419,-341,-24,-23,28
3,908,51882,-974,-16461,-392,-23,-18,28
3,909,51887,-936,-16460,-380,-23,-13,26
3,910,51892,-1007,-16464,-340,-23,-6,24
3,911,51897,-1049,-16465,-339,-19,-1,22
3,912,51902,-1113,-16439,-353,-17,2,20
3,913,51907,-1142,-16476,-297,-19,5,19
3,914,51912,-1107,-16500,-236,-19,7,19
3,915,51917,-1117,-16515,-270,-20,5,15
3,916,51922,-1135,-16503,-200,-20,2,16
3,917,51927,-1188,-16535,-233,-18,-3,15
3,918,51932,-1156,-16503,-208,-17,-14,12
3,919,51937,-1046,-16509,-209,-15,-21,14
3,920,51942,-1011,-16511,-205,-15,-27,11
3,921,51947,-1029,-16526,-241,-14,-33,6
3,922,51952,-1065,-16494,-373,-13,-36,4
3,923,51957,-1044,-16494,-363,-11,-37,5
3,924,51962,-1058,-16515,-357,-12,-29,2
3,925,51967,-1034,-16490,-402,-13,-20,-2
3,926,51972,-1007,-16517,-311,-10,-14,-1
3,927,51977,-1033,-16552,-331,-8,-11,0
3,928,51982,-1040,-16478,-384,-7,-9,-1
3,929,51987,-1085,-16510,-347,-8,-11,-4
3,930,51992,-1064,-16536,-341,-6,-10,-4
3,931,51997,-1044,-16532,-320,-6,-10,-7
3,932,52002,-1007,-16541,-328,-4,-12,-9
3,933,52007,-1023,-16565,-360,-4,-9,-11
3,934,52012,-992,-16555,-372,-1,-8,-15
3,935,52017,-993,-16519,-322,0,-11,-12
3,936,52022,-987,-16479,-293,-3,-15,-12
3,937,52027,-904,-16496,-325,0,-18,-15
3,938,52032,-920,-16507,-320,3,-19,-13
3,939,52037,-950,-16451,-266,1,-19,-17
3,940,52042,-985,-16433,-278,1,-20,-17
3,941,52047,-987,-16484,-339,2,-15,-15
3,942,52052,-928,-16461,-413,2,-11,-20
3,943,52057,-913,-16447,-355,4,-4,-20
3,944,52062,-965,-16490,-277,3,-4,-17
3,945,52067,-970,-16484,-308,7,-10,-21
3,946,52072,-1016,-16499,-335,5,-10,-19
3,947,52077,-1001,-16495,-374,7,-5,-20
3,948,52082,-975,-16522,-338,7,-3,-20
3,949,52087,-988,-16483,-341,8,-6,-25
3,950,52092,-1039,-16474,-306,12,-7,-25
3,951,52097,-1070,-16505,-291,11,-16,-23
3,952,52102,-1081,-16449,-312,12,-21,-26
3,953,52107,-1104,-16427,-359,12,-21,-26
3,954,52112,-1115,-16504,-380,12,-18,-26
3,955,52117,-1029,-16454,-339,17,-22,-27
3,956,52122,-982,-16431,-272,18,-32,-28
3,957,52127,-945,-16393,-285,20,-38,-29
3,958,52132,-967,-16345,-291,18,-38,-33
3,959,52137,-866,-16324,-343,19,-34,-30
3,960,52142,-903,-16360,-361,19,-28,-27
3,961,52147,-858,-16366,-368,18,-25,-33
3,962,52152,-848,-16323,-315,19,-18,-32
3,963,52157,-884,-16291,-283,21,-13,-31
3,964,52162,-880,-16308,-263,22,-4,-28
3,965,52167,-993,-16309,-296,22,1,-28
3,966,52172,-977,-16317,-291,22,7,-30
3,967,52177,-925,-16308,-264,21,9,-33
3,968,52182,-886,-16361,-264,20,8,-35
3,969,52187,-941,-16409,-264,19,5,-35
3,970,52192,-1009,-16421,-263,22,0,-31
3,971,52197,-1034,-16425,-296,20,-7,-31
3,972,52202,-1012,-16445,-313,20,-8,-32
3,973,52207,-951,-16412,-242,21,-13,-30
3,974,52212,-910,-16438,-202,22,-19,-30
3,975,52217,-894,-16417,-182,21,-28,-26
3,976,52222,-852,-16420,-279,25,-35,-33
3,977,52227,-892,-16373,-385,26,-36,-34
3,978,52232,-900,-16434,-418,23,-31,-31
3,979,52237,-843,-16430,-442,24,-28,-28
3,980,52242,-794,-16422,-399,23,-23,-29
3,981,52247,-789,-16444,-327,26,-19,-28
3,982,52252,-756,-16421,-313,26,-18,-28
3,983,52257,-799,-16424,-343,24,-7,-27
3,984,52262,-805,-16463,-359,19,3,-26
3,985,52267,-824,-16431,-329,22,9,-26
3,986,52272,-821,-16437,-241,23,13,-25
3,987,52277,-841,-16431,-227,22,13,-26
3,988,52282,-849,-16468,-286,22,16,-23
3,989,52287,-870,-16484,-306,26,19,-23
3,990,52292,-884,-16492,-323,20,28,-22
3,991,52297,-905,-16506,-285,22,28,-22
3,992,52302,-955,-16508,-236,21,25,-20
3,993,52307,-982,-16567,-321,18,23,-19
3,994,52312,-1021,-16573,-362,22,21,-21
3,995,52317,-1035,-16517,-361,20,20,-21
3,996,52322,-1044,-16539,-301,19,16,-20
3,997,52327,-995,-16511,-158,18,6,-21
3,998,52332,-958,-16491,-169,19,-9,-21
3,999,52337,-934,-16471,-205,18,-22,-20
4,0,58882,-5079,-15440,910,-234,-25,-905
4,1,58887,-5382,-15482,948,-238,-49,-902
4,2,58892,-5602,-15509,779,-238,-95,-889
4,3,58897,-5414,-15612,542,-237,-123,-876
4,4,58902,-4923,-15634,549,-236,-122,-864
4,5,58907,-4516,-15607,761,-235,-125,-858
4,6,58912,-4382,-15485,560,-237,-158,-854
4,7,58917,-4598,-15571,667,-232,-210,-844
4,8,58922,-5494,-15788,1488,-235,-271,-830
4,9,58927,-5015,-15630,900,-231,-349,-801
4,10,58932,-4249,-15657,-145,-228,-293,-786
4,11,58937,-4361,-15650,-483,-232,-137,-802
4,12,58942,-4924,-15634,-145,-238,-44,-800
4,13,58947,-5258,-15532,169,-235,-35,-784
4,14,58952,-4943,-15565,-145,-229,-24,-768
4,15,58957,-4595,-15683,-99,-227,77,-757
4,16,58962,-4478,-15800,585,-231,190,-754
4,17,58967,-4522,-15760,1178,-232,197,-743
4,18,58972,-4617,-15688,1098,-222,111,-723
4,19,58977,-4638,-15725,633,-215,20,-707
4,20,58982,-4699,-15796,478,-216,-20,-691
4,21,58987,-4714,-15840,844,-218,-28,-676
4,22,58992,-4687,-15875,829,-217,-54,-662
4,23,58997,-4626,-15816,543,-213,-69,-652
4,24,59002,-4564,-15871,118,-210,-59,-639
4,25,59007,-4544,-15754,69,-209,-27,-626
4,26,59012,-4508,-15756,157,-208,-3,-613
4,27,59017,-4363,-15773,200,-206,18,-599
4,28,59022,-4412,-15736,56,-205,51,-585
4,29,59027,-4608,-15838,-2,-200,103,-574
4,30,59032,-4836,-15846,-14,-193,140,-558
4,31,59037,-4528,-15901,239,-194,147,-537
4,32,59042,-4277,-15860,720,-191,124,-522
4,33,59047,-4100,-15827,895,-182,72,-505
4,34,59052,-4357,-15811,706,-180,16,-486
4,35,59057,-4605,-15886,314,-175,-29,-466
4,36,59062,-4850,-15922,116,-172,-52,-448
4,37,59067,-4372,-15963,199,-170,-62,-424
4,38,59072,-4195,-15894,466,-168,-55,-410
4,39,59077,-4297,-15912,531,-161,-44,-397
4,40,59082,-4666,-15701,8,-156,12,-364
4,41,59087,-4656,-15635,139,-155,65,-351
4,42,59092,-4468,-15680,392,-154,103,-333
4,43,59097,-4263,-15676,558,-151,130,-319
4,44,59102,-4280,-15673,515,-143,146,-305
4,45,59107,-4558,-15642,335,-143,151,-287
4,46,59112,-4636,-15569,423,-142,138,-263
4,47,59117,-4270,-15586,705,-139,100,-241
4,48,59122,-3884,-15642,1061,-133,63,-216
4,49,59127,-3959,-15665,905,-127,31,-201
4,50,59132,-4447,-15743,404,-118,6,-185
4,51,59137,-4772,-15644,-96,-113,-13,-161
4,52,59142,-4747,-15779,-18,-116,-15,-141
4,53,59147,-4447,-15735,275,-115,-2,-123
4,54,59152,-4215,-15763,448,-104,7,-105
4,55,59157,-4489,-15817,397,-95,15,-93
4,56,59162,-4793,-15785,118,-94,14,-77
4,57,59167,-4851,-15736,113,-91,18,-56
4,58,59172,-4677,-15690,212,-87,27,-38
4,59,59177,-4485,-15718,409,-82,44,-24
4,60,59182,-4549,-15763,514,-77,48,-10
4,61,59187,-4613,-15766,402,-71,36,7
4,62,59192,-4613,-15719,330,-67,16,25
4,63,59197,-4520,-15811,246,-60,-4,47
4,64,59202,-4493,-15868,311,-53,-20,68
4,65,59207,-4418,-15942,238,-46,-41,87
4,66,59212,-4462,-16052,145,-38,-57,107
4,67,59217,-4435,-16019,108,-31,-76,126
4,68,59222,-4356,-15997,207,-24,-109,148
4,69,59227,-4303,-16036,291,-15,-148,166
4,70,59232,-4351,-16050,302,-7,-184,185
4,71,59237,-4434,-16072,78,-4,-208,206
4,72,59242,-4527,-16107,-149,4,-194,226
4,73,59247,-4581,-16247,-489,14,-154,236
4,74,59252,-4659,-16234,-402,24,-92,253
4,75,59257,-4698,-16197,-241,30,-44,266
4,76,59262,-4695,-16142,74,32,-9,280
4,77,59267,-4682,-16075,239,41,12,296
4,78,59272,-4751,-16000,301,48,28,310
4,79,59277,-4793,-15984,388,54,37,327
4,80,59282,-4833,-15942,460,60,26,343
4,81,59287,-4773,-15999,605,68,-4,363
4,82,59292,-4578,-15935,727,75,-51,383
4,83,59297,-4500,-15836,721,82,-108,396
4,84,59302,-4734,-15835,614,89,-157,418
4,85,59307,-4845,-15856,311,94,-189,434
4,86,59312,-4719,-15796,159,105,-195,453
4,87,59317,-4452,-15838,170,109,-194,475
4,88,59322,-4375,-15836,348,115,-196,489
4,89,59327,-4587,-15823,277,123,-211,498
4,90,59332,-4922,-15902,27,130,-210,518
4,91,59337,-5038,-15970,-309,140,-177,533
4,92,59342,-4941,-15994,-212,144,-117,542
4,93,59347,-4784,-15997,114,148,-67,557
4,94,59352,-4845,-15941,429,158,-48,568
4,95,59357,-5114,-15883,533,167,-54,581
4,96,59362,-5366,-15935,451,175,-72,597
4,97,59367,-5184,-15956,550,179,-94,616
4,98,59372,-4927,-15932,886,184,-131,633
4,99,59377,-4805,-15858,1118,194,-191,645
4,100,59382,-4997,-15840,933,204,-266,662
4,101,59387,-5226,-15767,452,210,-315,673
4,102,59392,-5439,-15811,78,216,-316,690
4,103,59397,-5348,-15718,32,220,-275,696
4,104,59402,-5259,-15685,255,225,-215,705
4,105,59407,-5163,-15730,420,233,-162,716
4,106,59412,-5274,-15697,380,237,-126,720
4,107,59417,-5502,-15640,371,242,-100,729
4,108,59422,-5675,-15664,505,244,-77,746
4,109,59427,-5521,-15750,742,250,-75,756
4,110,59432,-5129,-15701,995,257,-99,766
4,111,59437,-5085,-15687,1167,263,-147,781
4,112,59442,-5439,-15621,1007,271,-208,789
4,113,59447,-5826,-15626,680,279,-257,802
4,114,59452,-5693,-15649,311,290,-242,826
4,115,59457,-5506,-15637,485,291,-203,828
4,116,59462,-5644,-15554,677,299,-183,831
4,117,59467,-6008,-15448,676,305,-181,838
4,118,59472,-6201,-15429,568,309,-175,847
4,119,59477,-6059,-15474,631,311,-148,857
4,120,59482,-5833,-15430,929,311,-116,863
4,121,59487,-5775,-15347,1321,315,-103,863
4,122,59492,-5878,-15225,1378,319,-122,871
4,123,59497,-6025,-15186,1083,326,-149,881
4,124,59502,-6093,-15164,719,328,-147,886
4,125,59507,-6053,-15082,623,325,-110,893
4,126,59512,-6025,-15102,779,321,-68,893
4,127,59517,-6042,-15069,926,325,-38,896
4,128,59522,-6087,-14975,886,327,-18,899
4,129,59527,-6244,-15057,740,328,3,905
4,130,59532,-6264,-15126,665,328,32,905
4,131,59537,-6263,-15057,898,323,56,906
4,132,59542,-6367,-15135,981,325,66,918
4,133,59547,-6562,-15216,961,330,73,913
4,134,59552,-6707,-15197,850,329,72,915
4,135,59557,-6753,-15227,998,326,67,924
4,136,59562,-6782,-15290,1169,326,41,923
4,137,59567,-6632,-15344,1238,328,-4,928
4,138,59572,-6584,-15281,1103,331,-51,932
4,139,59577,-6733,-15291,908,333,-75,933
4,140,59582,-7057,-15308,821,330,-83,933
4,141,59587,-7056,-15254,745,327,-85,937
4,142,59592,-6940,-15194,581,326,-66,936
4,143,59597,-6945,-15274,498,329,-14,934
4,144,59602,-7150,-15308,573,326,41,921
4,145,59608,-7162,-15208,510,323,76,920
4,146,59614,-7015,-15241,648,319,108,922
4,147,59620,-7125,-15149,1276,314,123,913
4,148,59626,-7227,-15028,1177,309,115,914
4,149,59632,-7329,-15097,942,312,119,913
4,150,59638,-7485,-15026,980,304,132,905
4,151,59643,-7525,-14891,1048,298,138,902
4,152,59649,-7806,-14901,1022,289,150,892
4,153,59655,-7854,-14837,1028,285,160,888
4,154,59661,-7960,-14814,1152,278,169,879
4,155,59667,-8024,-14777,1400,275,165,872
4,156,59673,-8028,-14670,1501,272,136,866
4,157,59679,-8233,-14522,1209,261,111,847
4,158,59685,-8327,-14437,1286,256,112,837
4,159,59691,-8341,-14352,1457,247,100,833
4,160,59697,-8336,-14411,1400,246,85,827
4,161,59702,-8322,-14315,1099,242,95,806
4,162,59708,-8557,-14269,801,227,178,780
4,163,59714,-8427,-14173,1144,216,200,768
4,164,59720,-8304,-14139,1550,212,180,756
4,165,59726,-8403,-14238,1624,209,150,742
4,166,59732,-8594,-14259,1400,202,144,728
4,167,59738,-8654,-14128,1282,188,163,699
4,168,59744,-8699,-14034,1393,184,139,688
4,169,59750,-8790,-14074,1225,181,105,673
4,170,59756,-8806,-14090,1159,175,104,659
4,171,59762,-8782,-14069,1351,167,114,642
4,172,59768,-8759,-13968,1566,158,79,605
4,173,59774,-8964,-14010,1359,156,48,590
4,174,59780,-9205,-13919,1354,149,35,570
4,175,59785,-8997,-13755,991,140,41,551
4,176,59791,-8978,-13755,987,137,91,532
4,177,59797,-8821,-13676,1589,120,112,489
4,178,59803,-8646,-13625,1671,119,77,473
4,179,59809,-8564,-13600,1566,116,45,459
4,180,59815,-8614,-13500,1258,108,39,438
4,181,59821,-8783,-13576,1243,104,37,419
4,182,59827,-8666,-13500,1348,91,2,382
4,183,59833,-8650,-13460,1304,88,9,360
4,184,59839,-8763,-13476,1155,86,31,338
4,185,59845,-8844,-13403,1041,79,57,313
4,186,59851,-8822,-13294,1160,70,71,290
4,187,59857,-8591,-13210,1425,62,77,246
4,188,59863,-8631,-13040,1299,56,97,222
4,189,59869,-8752,-12958,1040,51,130,201
4,190,59875,-9039,-12991,1108,46,158,179
4,191,59881,-8964,-12966,1488,37,144,157
4,192,59887,-8118,-13003,2108,30,41,118
4,193,59893,-8301,-13029,1942,27,-11,95
4,194,59898,-8715,-13028,1590,21,-64,74
4,195,59904,-8869,-12975,1267,17,-115,59
4,196,59910,-8671,-12932,1148,9,-138,40
4,197,59916,-8252,-13033,1375,2,-99,-12
4,198,59922,-8414,-12931,1249,-1,-73,-36
4,199,59928,-8597,-12856,1033,-6,-48,-60
4,200,59934,-8511,-12766,961,-9,-21,-80
4,201,59940,-8308,-12679,1628,-24,39,-128
4,202,59946,-8316,-12634,1702,-27,40,-153
4,203,59952,-8304,-12653,1556,-28,32,-171
4,204,59958,-8298,-12721,1315,-35,27,-193
4,205,59964,-8220,-12849,1355,-37,13,-210
4,206,59970,-7866,-12975,1592,-44,-82,-246
4,207,59976,-7942,-13017,1366,-46,-118,-265
4,208,59982,-8311,-13067,1041,-49,-131,-289
4,209,59988,-8497,-13199,757,-50,-119,-305
4,210,59994,-8279,-13256,764,-56,-94,-326
4,211,60000,-7911,-13378,1188,-64,-36,-375
4,212,60006,-8079,-13416,1134,-62,-19,-397
4,213,60012,-8351,-13467,965,-64,2,-419
4,214,60018,-8402,-13515,864,-69,33,-438
4,215,60024,-8279,-13560,1042,-75,69,-459
4,216,60030,-8222,-13624,1263,-77,105,-504
4,217,60035,-8305,-13668,1139,-81,106,-526
4,218,60041,-8286,-13770,1184,-85,109,-543
4,219,60047,-8117,-13852,1366,-85,96,-561
4,220,60053,-7860,-13971,1624,-86,63,-578
4,221,60059,-8036,-14053,1574,-88,-40,-610
4,222,60065,-8336,-14043,1445,-90,-84,-628
4,223,60071,-8292,-14163,1350,-94,-134,-637
4,224,60077,-8050,-14169,1482,-99,-174,-651
4,225,60083,-7846,-14205,1438,-103,-205,-671
4,226,60089,-8323,-14182,1107,-108,-189,-712
4,227,60095,-8306,-14182,1019,-113,-158,-728
4,228,60101,-8060,-14190,1017,-116,-114,-744
4,229,60107,-7727,-14142,1170,-120,-64,-764
4,260,60291,-5973,-15621,1488,-225,186,-1017
4,261,60297,-5713,-15619,1729,-222,117,-1004
4,262,60303,-5652,-15731,1926,-223,30,-993
4,263,60309,-5688,-15742,1608,-223,-42,-987
4,264,60315,-5837,-15714,620,-230,-77,-972
4,265,60321,-5936,-15902,555,-230,-74,-968
4,266,60327,-5826,-15915,785,-229,-74,-961
4,267,60333,-5443,-15895,833,-231,-66,-949
4,268,60339,-5402,-15952,795,-228,-40,-944
4,269,60345,-5854,-15970,761,-231,-3,-933
4,270,60351,-5764,-15950,1084,-234,-19,-918
4,271,60352,-5764,-15950,1084,-234,-19,-918
4,272,60352,-5764,-15950,1084,-234,-19,-918
4,273,60353,-5764,-15950,1084,-234,-19,-918
4,274,60357,-5496,-15895,1081,-230,-44,-907
4,275,60363,-5195,-15918,983,-229,-41,-899
4,276,60369,-5287,-15880,1082,-229,-25,-891
4,277,60374,-5342,-15888,982,-232,-72,-865
4,278,60380,-4994,-15911,639,-228,-82,-846
4,279,60386,-4939,-15920,506,-229,-43,-839
4,280,60387,-4939,-15920,506,-229,-43,-839
4,281,60388,-4939,-15920,506,-229,-43,-839
4,282,60389,-4939,-15920,506,-229,-43,-839
4,283,60389,-5001,-15931,648,-233,12,-831
4,284,60390,-5001,-15931,648,-233,12,-831
4,285,60391,-5001,-15931,648,-233,12,-831
4,286,60392,-5001,-15931,648,-233,12,-831
4,287,60392,-5001,-15931,648,-233,12,-831
4,288,60393,-5001,-15931,648,-233,12,-831
4,289,60394,-5001,-15931,648,-233,12,-831
4,290,60394,-5133,-15814,682,-237,43,-823
4,291,60395,-5133,-15814,682,-237,43,-823
4,292,60396,-5133,-15814,682,-237,43,-823
4,293,60397,-5133,-15814,682,-237,43,-823
4,294,60397,-5133,-15814,682,-237,43,-823
4,295,60398,-5133,-15814,682,-237,43,-823
4,296,60399,-5094,-15883,474,-229,68,-806
4,297,60400,-5094,-15883,474,-229,68,-806
4,298,60400,-5094,-15883,474,-229,68,-806
4,299,60401,-5094,-15883,474,-229,68,-806
4,300,60402,-5094,-15883,474,-229,68,-806
4,301,60403,-5094,-15883,474,-229,68,-806
4,302,60403,-5094,-15883,474,-229,68,-806
4,303,60404,-4925,-15882,306,-226,109,-790
4,304,60405,-4925,-15882,306,-226,109,-790
4,305,60407,-4925,-15882,306,-226,109,-790
4,306,60412,-4872,-15940,677,-229,154,-781
4,307,60417,-4803,-15878,1126,-228,158,-769
4,308,60422,-4716,-15889,1135,-223,126,-752
4,309,60427,-4766,-15909,1004,-220,94,-733
4,310,60432,-4726,-15917,878,-221,81,-718
4,311,60437,-4847,-15936,743,-218,74,-706
4,312,60442,-4832,-15913,495,-215,71,-691
4,313,60447,-4961,-15881,259,-213,87,-675
4,314,60452,-4974,-15931,270,-210,115,-662
4,315,60457,-4882,-15784,530,-209,144,-647
4,316,60462,-4666,-15746,819,-207,161,-635
4,317,60467,-4774,-15736,856,-203,175,-625
4,318,60472,-5116,-15733,651,-198,176,-609
4,319,60477,-5184,-15805,572,-196,168,-591
4,320,60482,-4826,-15672,744,-197,146,-573
4,321,60487,-4546,-15723,1226,-198,108,-558
4,322,60492,-4606,-15649,1472,-191,42,-546
4,323,60497,-4777,-15659,892,-183,-14,-529
4,324,60502,-5021,-15730,144,-179,-17,-516
4,325,60507,-4982,-15681,-202,-183,32,-505
4,326,60512,-4765,-15686,199,-182,91,-490
4,327,60517,-4553,-15730,456,-179,124,-480
4,328,60522,-4542,-15765,472,-171,150,-469
