event_id,seq,ts_ms,ax,ay,az,gx,gy,gz
22,0,830771,-1509,-15887,-3847,24,-18,-9
22,1,830776,-1521,-15904,-3804,25,-10,-11
22,2,830781,-1453,-15925,-3802,23,-11,-14
22,3,830786,-1409,-15932,-3805,22,-9,-13
22,4,830791,-1393,-15904,-3727,24,-15,-12
22,5,830796,-1400,-15925,-3746,23,-23,-15
22,6,830801,-1423,-15968,-3805,21,-30,-14
22,7,830806,-1409,-15978,-3796,26,-29,-12
22,8,830811,-1346,-15973,-3802,27,-28,-13
22,9,830816,-1379,-15952,-3851,24,-23,-14
22,10,830821,-1405,-15935,-3882,27,-18,-15
22,11,830826,-1360,-15964,-3857,25,-11,-17
22,12,830831,-1347,-15966,-3844,21,-4,-17
22,13,830836,-1371,-15929,-3727,22,-4,-18
22,14,830841,-1383,-15889,-3687,26,-7,-14
22,15,830846,-1403,-15899,-3771,22,-5,-17
22,16,830851,-1410,-15894,-3720,22,-4,-15
22,17,830856,-1410,-15920,-3697,26,-6,-13
22,18,830861,-1431,-15887,-3701,22,-10,-15
22,19,830866,-1430,-15881,-3708,25,-16,-16
22,20,830871,-1420,-15902,-3770,21,-16,-14
22,21,830876,-1412,-15909,-3738,20,-15,-13
22,22,830881,-1394,-15875,-3720,20,-16,-10
22,23,830886,-1397,-15889,-3768,19,-21,-14
22,24,830891,-1397,-15898,-3795,19,-21,-14
22,25,830896,-1371,-15901,-3834,18,-19,-13
22,26,830901,-1407,-15860,-3766,17,-19,-13
22,27,830906,-1415,-15874,-3708,16,-21,-14
22,28,830911,-1393,-15874,-3745,17,-21,-12
22,29,830916,-1429,-15884,-3797,16,-16,-13
22,30,830921,-1436,-15885,-3711,14,-16,-15
22,31,830926,-1452,-15867,-3721,13,-16,-15
22,32,830931,-1452,-15911,-3731,13,-20,-15
22,33,830936,-1447,-15928,-3768,13,-21,-11
22,34,830941,-1450,-16007,-3703,11,-24,-12
22,35,830946,-1464,-16006,-3666,10,-28,-13
22,36,830951,-1436,-16019,-3710,10,-35,-12
22,37,830956,-1407,-16002,-3717,9,-36,-10
22,38,830961,-1446,-15949,-3661,8,-38,-12
22,39,830966,-1434,-15957,-3658,8,-48,-13
22,40,830971,-1464,-15944,-3651,6,-60,-11
22,41,830976,-1526,-15930,-3703,5,-68,-12
22,42,830981,-1455,-15913,-3741,4,-77,-9
22,43,830986,-1484,-15910,-3702,3,-81,-10
22,44,830991,-1479,-15902,-3707,2,-85,-12
22,45,830996,-1512,-15935,-3689,2,-89,-7
22,46,831001,-1489,-15933,-3715,1,-91,-6
22,47,831006,-1408,-15926,-3655,0,-96,-11
22,48,831011,-1448,-15954,-3538,0,-105,-11
22,49,831016,-1402,-15946,-3492,-3,-118,-9
22,50,831021,-1441,-15912,-3526,-3,-134,-7
22,51,831026,-1470,-15871,-3555,-3,-150,-3
22,52,831031,-1410,-15829,-3642,-1,-164,-3
22,53,831036,-1383,-15807,-3688,-3,-175,-5
22,54,831041,-1363,-15774,-3854,-2,-176,-6
22,55,831046,-1412,-15732,-4017,-1,-169,-4
22,56,831051,-1383,-15702,-4129,-2,-156,-7
22,57,831056,-1368,-15698,-4241,-4,-139,-6
22,58,831061,-1345,-15748,-4314,-4,-122,-3
22,59,831066,-1337,-15779,-4371,-2,-99,-4
22,60,831071,-1348,-15756,-4395,-2,-72,-7
22,61,831078,-1383,-15709,-4484,2,-38,-7
22,62,831082,-1436,-15674,-4508,5,-1,-10
22,63,831087,-1415,-15631,-4477,6,34,-12
22,64,831092,-1413,-15646,-4263,6,69,-14
22,65,831096,-1448,-15714,-4154,6,90,-13
22,66,831101,-1413,-15717,-4109,8,98,-15
22,67,831106,-1424,-15687,-4017,9,100,-14
22,68,831111,-1462,-15698,-3909,9,99,-12
22,69,831116,-1499,-15743,-3798,11,88,-11
22,70,831121,-1489,-15814,-3748,11,75,-9
22,71,831126,-1456,-15916,-3677,12,44,-7
22,72,831131,-1374,-15954,-3652,15,36,-6
22,73,831136,-1392,-16004,-3645,16,24,-6
22,74,831141,-1466,-16051,-3695,14,11,-8
22,75,831146,-1446,-16096,-3764,14,4,-4
22,76,831151,-1392,-16114,-3808,14,4,-2
22,77,831156,-1429,-16120,-3785,14,4,-2
22,78,831161,-1397,-16131,-3693,14,6,-3
22,79,831166,-1341,-16095,-3686,11,5,-1
22,80,831171,-1355,-16093,-3692,12,1,0
22,81,831176,-1366,-16074,-3674,10,0,0
22,82,831181,-1382,-16078,-3652,8,-6,2
22,83,831186,-1420,-16025,-3651,8,-12,4
22,84,831191,-1420,-15990,-3689,3,-10,4
22,85,831196,-1428,-15975,-3607,2,-4,8
22,86,831201,-1429,-15920,-3539,1,1,6
22,87,831206,-1438,-15916,-3505,-3,1,6
22,88,831211,-1461,-15902,-3486,1,-1,9
22,89,831216,-1471,-15929,-3434,-3,5,10
22,90,831221,-1438,-15893,-3414,-5,2,10
22,91,831226,-1378,-15859,-3402,-7,-5,10
22,92,831231,-1405,-15842,-3359,-10,-17,10
22,93,831236,-1450,-15856,-3402,-13,-28,9
22,94,831241,-1476,-15840,-3483,-13,-37,14
22,95,831246,-1428,-15831,-3561,-17,-49,13
22,96,831251,-1456,-15810,-3649,-19,-55,12
22,97,831256,-1466,-15787,-3691,-19,-51,14
22,98,831261,-1463,-15807,-3804,-22,-45,11
22,99,831266,-1458,-15865,-3865,-19,-29,12
22,100,831271,-1444,-15872,-3897,-22,-11,12
22,101,831276,-1423,-15880,-3898,-24,9,9
22,102,831281,-1384,-15904,-3773,-22,26,7
22,103,831286,-1400,-15943,-3722,-23,36,8
22,104,831291,-1365,-15938,-3690,-23,40,5
22,105,831296,-1396,-15939,-3654,-23,41,6
22,106,831301,-1388,-15937,-3632,-25,39,6
22,107,831306,-1379,-15913,-3659,-23,30,5
22,108,831311,-1394,-15912,-3669,-22,20,4
22,109,831316,-1453,-15948,-3746,-21,11,6
22,130,831421,-1470,-16136,-3753,0,-72,-16
22,131,831426,-1422,-16096,-3800,1,-70,-16
22,132,831431,-1439,-16110,-3820,-2,-67,-15
22,133,831436,-1484,-16077,-3876,-3,-70,-16
22,134,831441,-1496,-16037,-3858,0,-67,-20
22,135,831446,-1496,-15998,-3850,-1,-59,-18
22,136,831451,-1517,-15984,-3817,1,-54,-19
22,137,831456,-1506,-15973,-3794,3,-51,-21
22,138,831461,-1500,-15970,-3797,3,-50,-21
22,139,831466,-1496,-15991,-3766,6,-48,-20
22,140,831471,-1465,-16026,-3807,8,-49,-21
22,141,831476,-1383,-16002,-3804,7,-53,-20
22,142,831481,-1355,-15997,-3811,10,-55,-20
22,143,831486,-1335,-15971,-3866,8,-59,-22
22,144,831491,-1421,-15871,-3948,8,-61,-22
22,145,831496,-1386,-15863,-3981,9,-58,-20
22,146,831501,-1373,-15874,-3980,10,-52,-20
22,147,831506,-1394,-15905,-3904,10,-44,-20
22,148,831511,-1354,-15847,-3917,11,-35,-20
22,149,831516,-1358,-15795,-3915,13,-25,-18
22,150,831521,-1411,-15822,-3823,11,-16,-16
22,151,831526,-1372,-15829,-3729,12,-10,-19
22,152,831531,-1374,-15851,-3645,12,-11,-18
22,153,831536,-1356,-15810,-3628,10,-13,-16
22,154,831541,-1312,-15804,-3576,12,-24,-18
22,155,831546,-1303,-15826,-3572,12,-40,-14
22,156,831551,-1290,-15843,-3635,12,-54,-9
22,157,831556,-1260,-15825,-3695,11,-63,-11
22,158,831561,-1250,-15866,-3663,12,-73,-7
22,159,831566,-1260,-15864,-3679,9,-73,-7
22,160,831571,-1264,-15831,-3738,9,-68,-8
22,161,831576,-1326,-15817,-3789,10,-62,-4
22,162,831581,-1327,-15825,-3791,9,-50,-3
22,163,831586,-1311,-15823,-3794,7,-40,-4
22,164,831591,-1215,-15826,-3867,9,-28,-2
22,195,831746,-1454,-15901,-3688,2,5,7
22,196,831751,-1439,-15905,-3695,4,5,8
22,197,831756,-1392,-15937,-3707,1,7,5
22,198,831761,-1381,-15948,-3708,-3,11,4
22,199,831766,-1424,-15945,-3715,-2,9,2
22,200,831771,-1379,-15944,-3648,-1,6,2
22,201,831776,-1424,-15972,-3646,-1,4,4
22,202,831781,-1395,-16010,-3645,-5,3,0
22,203,831786,-1389,-16034,-3666,-3,-2,0
22,204,831791,-1407,-16010,-3705,-1,1,-2
22,205,831796,-1468,-15965,-3697,-4,-4,-3
22,206,831801,-1539,-15924,-3738,0,-9,-4
22,207,831806,-1535,-15879,-3785,-3,-5,-5
22,208,831811,-1488,-15900,-3740,-6,0,-8
22,209,831816,-1436,-15998,-3654,-4,3,-9
22,210,831821,-1435,-16027,-3666,-3,1,-9
22,211,831826,-1421,-15974,-3735,-4,-6,-10
22,212,831831,-1460,-15987,-3701,-3,-5,-8
22,213,831836,-1436,-16012,-3703,-6,0,-14
22,214,831841,-1402,-16013,-3682,-7,1,-13
22,215,831846,-1399,-16005,-3590,-5,-2,-12
22,216,831851,-1452,-15986,-3578,-4,-11,-14
22,217,831856,-1461,-15956,-3576,-6,-21,-15
22,218,831861,-1433,-15968,-3643,-5,-37,-16
22,219,831866,-1437,-15993,-3630,-7,-44,-17
22,220,831871,-1397,-15981,-3636,-5,-47,-15
22,221,831876,-1411,-16002,-3620,-4,-47,-17
22,222,831881,-1448,-15960,-3711,-5,-48,-19
22,223,831886,-1426,-15958,-3770,-5,-47,-18
22,224,831891,-1435,-15950,-3798,-6,-44,-16
22,225,831896,-1375,-15963,-3761,-8,-45,-20
22,226,831901,-1413,-15976,-3710,-4,-50,-20
22,227,831906,-1392,-15974,-3780,-3,-53,-24
22,228,831911,-1416,-16003,-3725,-3,-49,-23
22,229,831916,-1466,-15979,-3730,-3,-48,-24
22,230,831921,-1429,-15958,-3768,-5,-47,-24
22,231,831926,-1453,-15930,-3739,-2,-46,-24
22,232,831931,-1382,-15898,-3743,-1,-46,-23
22,233,831936,-1406,-15890,-3720,-3,-48,-26
22,234,831941,-1387,-15882,-3684,-3,-47,-26
22,240,831971,-1368,-15776,-3785,0,-13,-31
22,241,831976,-1328,-15805,-3883,0,-5,-27
22,242,831981,-1336,-15760,-3842,2,2,-28
22,243,831986,-1440,-15764,-3869,0,5,-31
22,244,831991,-1409,-15732,-3892,1,2,-30
22,245,831996,-1380,-15772,-3891,4,3,-31
22,246,832001,-1345,-15807,-3875,3,7,-30
22,247,832006,-1358,-15811,-3808,5,8,-31
22,248,832011,-1356,-15778,-3754,4,1,-33
22,249,832016,-1369,-15797,-3763,5,-8,-31
22,250,832021,-1419,-15826,-3795,7,-6,-28
22,251,832026,-1397,-15813,-3787,9,1,-30
22,252,832031,-1440,-15838,-3779,9,2,-28
22,253,832036,-1443,-15847,-3791,11,1,-28
22,254,832041,-1419,-15894,-3845,11,-3,-28
22,255,832046,-1447,-15920,-3805,12,-5,-26
22,256,832051,-1480,-15867,-3776,13,-12,-25
22,257,832056,-1455,-15894,-3838,14,-14,-25
22,258,832061,-1431,-15905,-3826,16,-19,-21
22,259,832066,-1422,-15966,-3762,15,-20,-23
22,260,832071,-1337,-15961,-3730,16,-22,-22
22,261,832076,-1319,-15942,-3744,17,-31,-21
22,262,832081,-1359,-15956,-3763,18,-38,-19
22,263,832086,-1396,-15895,-3770,17,-44,-19
22,264,832091,-1355,-15889,-3768,18,-44,-16
22,265,832096,-1367,-15888,-3757,13,-44,-16
22,266,832101,-1393,-15886,-3717,14,-42,-13
22,267,832106,-1349,-15892,-3757,17,-37,-12
22,268,832111,-1398,-15965,-3714,18,-24,-11
22,269,832116,-1375,-15963,-3672,13,-17,-11
22,270,832121,-1344,-15936,-3621,14,-13,-8
22,271,832126,-1358,-15932,-3547,15,-13,-7
22,272,832131,-1369,-15928,-3622,15,-20,-4
22,273,832136,-1332,-15892,-3670,11,-27,-4
22,274,832141,-1329,-15900,-3638,11,-31,0
22,275,832146,-1314,-15869,-3667,13,-38,1
22,276,832151,-1357,-15844,-3756,11,-46,2
22,277,832156,-1370,-15898,-3753,10,-50,9
22,278,832161,-1335,-15919,-3759,9,-43,8
22,279,832166,-1352,-15945,-3771,11,-32,12
22,280,832171,-1374,-15913,-3812,6,-22,11
22,281,832176,-1359,-15945,-3813,7,-15,8
22,282,832181,-1316,-15955,-3809,9,-1,10
22,283,832186,-1368,-15985,-3768,7,20,8
22,284,832191,-1378,-15965,-3708,4,33,9
22,285,832196,-1369,-15943,-3654,2,38,12
22,286,832201,-1357,-16003,-3590,3,39,12
22,287,832206,-1298,-15971,-3569,3,37,14
22,288,832211,-1327,-15959,-3573,1,31,15
22,289,832216,-1389,-15959,-3662,4,20,17
22,290,832221,-1359,-15951,-3684,2,13,17
22,291,832226,-1353,-15879,-3707,-2,13,20
22,292,832231,-1364,-15884,-3762,-1,14,21
22,293,832236,-1425,-15921,-3759,-3,17,19
22,294,832241,-1414,-15927,-3728,0,19,22
22,295,832246,-1358,-15944,-3724,1,21,21
22,296,832251,-1371,-15950,-3662,1,21,17
22,297,832256,-1458,-15959,-3709,-3,19,19
22,298,832261,-1387,-16000,-3724,-5,20,19
22,299,832266,-1347,-15992,-3696,-1,20,20
22,300,832271,-1376,-15978,-3668,-2,18,17
22,301,832276,-1359,-15979,-3670,-1,15,18
22,302,832281,-1336,-15985,-3788,-1,14,16
22,303,832286,-1390,-15955,-3769,-1,16,15
22,304,832291,-1395,-15948,-3787,1,16,17
22,520,833371,-1436,-15941,-3699,1,-36,-15
22,521,833376,-1389,-15931,-3739,2,-33,-15
22,522,833381,-1371,-15948,-3775,1,-24,-14
22,523,833386,-1371,-15954,-3727,0,-14,-17
22,524,833391,-1389,-15940,-3743,1,-18,-19
22,525,833396,-1474,-15941,-3752,-1,-14,-13
22,526,833401,-1438,-16000,-3763,-3,-10,-16
22,527,833406,-1413,-16016,-3745,-3,-1,-15
22,528,833411,-1414,-15957,-3699,-2,3,-13
22,529,833416,-1364,-15984,-3697,-2,-3,-16
22,530,833421,-1375,-15994,-3720,-5,-6,-15
22,531,833426,-1407,-15976,-3715,-5,-11,-12
22,532,833431,-1394,-15934,-3673,-5,-14,-9
22,533,833436,-1415,-15904,-3655,-5,-21,-11
22,534,833441,-1432,-15901,-3784,-5,-23,-9
22,535,833446,-1437,-15895,-3773,-2,-18,-8
22,536,833451,-1442,-15884,-3711,-4,-15,-11
22,537,833456,-1461,-15897,-3720,-7,-14,-11
22,538,833461,-1487,-15853,-3785,-6,-13,-10
22,539,833466,-1488,-15870,-3799,-4,-5,-9
22,540,833471,-1464,-15867,-3763,-4,3,-7
22,541,833476,-1406,-15906,-3773,-3,8,-6
22,542,833481,-1355,-15930,-3728,-3,11,-8
22,543,833486,-1422,-15885,-3677,-4,8,-8
22,544,833491,-1460,-15858,-3658,-6,2,-7
22,545,833496,-1429,-15882,-3722,-5,2,-10
22,546,833501,-1394,-15920,-3690,-5,-1,-6
22,547,833506,-1373,-15945,-3646,-4,-2,-3
22,548,833511,-1314,-15954,-3655,-4,-7,-4
22,549,833516,-1335,-15913,-3668,-5,-14,-1
22,550,833521,-1363,-15907,-3650,-3,-20,-2
22,551,833526,-1380,-15952,-3751,-4,-20,-2
22,552,833531,-1447,-15932,-3833,-4,-13,0
22,553,833536,-1461,-15935,-3796,-3,-7,1
22,554,833541,-1400,-15920,-3769,-4,-4,-1
22,590,833721,-1439,-15905,-3828,6,-17,-4
22,591,833726,-1462,-15901,-3784,6,-12,-7
22,592,833731,-1472,-15956,-3836,8,-7,-6
22,593,833736,-1467,-15937,-3803,10,-4,-2
22,594,833741,-1423,-15913,-3724,10,0,-1
22,595,833746,-1409,-15950,-3666,9,1,-6
22,596,833751,-1412,-15947,-3683,8,-7,-4
22,597,833756,-1421,-15930,-3686,10,-15,-3
22,598,833761,-1435,-15915,-3705,9,-21,-4
22,599,833766,-1437,-15911,-3692,11,-24,-4
22,600,833771,-1433,-15935,-3734,9,-27,-4
22,601,833776,-1469,-15939,-3783,10,-30,-4
22,602,833781,-1454,-15925,-3787,11,-28,-5
22,603,833786,-1505,-15933,-3824,10,-23,-5
22,604,833791,-1459,-15961,-3839,12,-16,-5
22,720,834371,-1257,-15995,-3641,0,11,-8
22,721,834376,-1351,-15973,-3684,1,6,-8
22,722,834381,-1377,-15956,-3751,1,1,-8
22,723,834386,-1357,-15944,-3765,1,8,-7
22,724,834391,-1365,-15979,-3797,-2,19,-9
22,725,834396,-1373,-15979,-3740,1,25,-8
22,726,834401,-1375,-16006,-3675,1,28,-8
22,727,834406,-1354,-15997,-3712,-2,29,-10
22,728,834411,-1349,-16028,-3690,0,29,-10
22,729,834416,-1339,-15997,-3587,-1,28,-7
22,730,834421,-1283,-16024,-3613,1,12,-8
22,731,834426,-1265,-15992,-3619,3,10,-8
22,732,834431,-1312,-15991,-3665,1,13,-10
22,733,834436,-1341,-15941,-3732,-1,17,-8
22,734,834441,-1335,-15903,-3753,0,22,-8
22,735,834446,-1322,-15871,-3718,2,33,-9
22,736,834451,-1342,-15906,-3728,3,42,-11
22,737,834456,-1324,-15931,-3672,3,46,-10
22,738,834461,-1311,-15863,-3683,2,51,-11
22,739,834466,-1355,-15841,-3752,6,51,-8
22,740,834471,-1381,-15799,-3801,8,56,-9
22,741,834476,-1263,-15775,-3906,10,70,-5
22,742,834481,-1245,-15864,-3912,8,96,-8
22,743,834486,-1480,-16004,-3631,11,119,-8
22,744,834491,-1663,-16151,-3629,15,118,-3
22,745,834496,-1882,-16247,-3450,14,130,-4
22,746,834501,-2066,-16303,-3141,15,144,-2
22,747,834506,-2052,-16321,-2781,15,141,2
22,748,834511,-2187,-16452,-2342,17,120,3
22,749,834516,-2337,-16595,-2104,20,84,4
22,750,834521,-2492,-16371,-2023,21,42,9
22,751,834526,-2708,-16117,-1951,22,4,12
22,752,834531,-3011,-15966,-1888,23,-46,18
22,753,834536,-2945,-15873,-2006,20,-98,26
22,754,834541,-2811,-15721,-1944,23,-126,33
22,755,834546,-2842,-15612,-1809,26,-153,35
22,756,834551,-2825,-15610,-1920,29,-200,39
22,757,834556,-2802,-15621,-2204,32,-251,52
22,758,834561,-2725,-15681,-2497,38,-285,60
22,759,834566,-2681,-15748,-2608,41,-295,69
22,760,834571,-2694,-15755,-2814,44,-301,77
22,761,834576,-2782,-15761,-3166,51,-295,84
22,762,834581,-2988,-15888,-3419,57,-267,93
22,763,834586,-2973,-15902,-3588,62,-231,106
22,764,834591,-2986,-15875,-3548,71,-188,118
22,765,834596,-3193,-15822,-3406,80,-163,124
22,766,834601,-3416,-15812,-3312,89,-159,136
22,767,834606,-3458,-15783,-3492,98,-159,152
22,768,834611,-3531,-15762,-3216,106,-144,163
22,769,834616,-3680,-15773,-3235,124,-159,173
22,770,834621,-3765,-15835,-3369,137,-175,185
22,771,834626,-3869,-15807,-3642,144,-170,194
22,772,834631,-4085,-15754,-3605,157,-131,204
22,773,834636,-4217,-15688,-3579,166,-79,213
22,774,834641,-4281,-15673,-3745,175,-23,222
22,775,834646,-4194,-15703,-3759,183,41,232
22,776,834651,-4099,-15668,-3651,191,117,237
22,777,834656,-4050,-15630,-3496,194,177,244
22,778,834661,-4002,-15694,-3345,203,220,255
22,779,834666,-3940,-15729,-3244,208,242,266
22,780,834671,-3839,-15799,-3196,214,256,277
22,781,834676,-3776,-15794,-3075,221,266,287
22,782,834681,-3763,-15787,-3037,227,258,300
22,783,834686,-3744,-15737,-3004,234,250,310
22,784,834691,-3710,-15680,-3051,239,227,322
22,785,834696,-3784,-15584,-3009,247,200,336
22,786,834701,-3845,-15531,-2984,250,172,348
22,787,834706,-3895,-15548,-2887,252,152,358
22,788,834711,-3892,-15580,-2899,258,142,370
22,789,834716,-3853,-15597,-2709,261,137,381
22,790,834721,-3897,-15711,-2918,263,123,391
22,791,834726,-4039,-15755,-2629,265,117,397
22,792,834731,-3965,-15815,-2578,267,102,407
22,793,834736,-3990,-15874,-2625,269,97,416
22,794,834741,-4009,-15873,-2654,267,99,420
22,795,834746,-3842,-15834,-2624,263,93,431
22,796,834751,-3857,-15781,-2657,263,91,437
22,797,834756,-3821,-15870,-2590,261,78,444
22,798,834761,-3676,-15953,-2683,258,68,449
22,799,834766,-3708,-15967,-2662,259,71,457
22,800,834771,-3682,-16018,-2795,254,80,460
22,801,834776,-3695,-16047,-2728,249,102,464
22,802,834781,-3702,-16068,-2681,245,115,468
22,803,834786,-3747,-16086,-2668,240,140,480
22,804,834791,-3708,-16090,-2671,234,155,481
22,805,834796,-3664,-16039,-2585,230,161,485
22,806,834801,-3568,-16030,-2573,227,147,490
22,807,834806,-3520,-15987,-2629,221,131,492
22,808,834811,-3491,-16035,-2654,218,115,497
22,809,834816,-3380,-16024,-2696,218,101,503
22,810,834821,-3254,-15993,-2809,212,96,508
22,811,834826,-3221,-16016,-2838,211,96,512
22,812,834831,-3099,-16034,-2956,210,98,514
22,813,834836,-3116,-15982,-3086,206,108,518
22,814,834841,-3113,-15982,-3092,200,123,517
22,815,834846,-3079,-15983,-3043,199,133,516
22,816,834851,-3046,-15945,-3054,194,147,520
22,817,834856,-3092,-15915,-3032,194,157,523
22,818,834861,-3084,-15899,-3064,191,168,521
22,819,834866,-3105,-15892,-3025,188,180,526
22,820,834871,-3120,-15918,-3001,185,184,526
22,821,834876,-3109,-15965,-3146,185,189,528
22,822,834881,-3054,-16002,-3288,182,200,527
22,823,834886,-3055,-16015,-3261,183,210,529
22,824,834891,-3082,-16033,-3219,180,218,524
22,825,834896,-3053,-16106,-3170,177,224,524
22,826,834901,-3046,-16160,-3103,175,235,523
22,827,834906,-3068,-16165,-3046,172,249,520
22,828,834911,-3010,-16169,-3043,169,264,520
22,829,834916,-2954,-16167,-3045,165,276,513
22,830,834921,-2950,-16168,-2997,161,287,512
22,831,834926,-2971,-16104,-2995,158,297,510
22,832,834931,-2995,-16069,-2984,155,303,508
22,833,834936,-2974,-16093,-2968,150,302,505
22,834,834941,-2932,-16147,-2869,146,298,502
22,835,834946,-2952,-16149,-2837,145,290,497
22,836,834951,-2917,-16117,-2930,144,286,491
22,837,834956,-2831,-16126,-2915,142,290,491
22,838,834961,-2743,-16168,-2859,138,292,490
22,839,834966,-2597,-16198,-2801,131,285,484
22,840,834971,-2566,-16249,-2842,132,272,481
22,841,834976,-2565,-16281,-2955,128,262,478
22,842,834981,-2538,-16228,-2966,122,263,472
22,843,834986,-2584,-16175,-2985,118,272,469
22,844,834991,-2656,-16137,-2918,116,281,462
22,845,834996,-2679,-16119,-2921,112,288,457
22,846,835001,-2676,-16126,-2894,109,293,454
22,847,835006,-2601,-16100,-2864,107,299,445
22,848,835011,-2549,-16081,-2764,102,307,438
22,849,835016,-2592,-16071,-2710,96,310,433
22,850,835021,-2584,-16044,-2716,94,305,428
22,851,835026,-2590,-16008,-2729,94,302,423
22,852,835031,-2553,-15950,-2703,87,300,416
22,853,835036,-2460,-15943,-2697,87,293,412
22,854,835041,-2477,-15967,-2737,83,291,403
22,855,835046,-2517,-15906,-2715,79,289,395
22,856,835051,-2508,-15872,-2745,73,291,387
22,857,835056,-2595,-15783,-2768,73,295,382
22,858,835061,-2699,-15728,-2784,71,297,375
22,859,835066,-2740,-15718,-2815,70,295,368
22,860,835071,-2752,-15768,-2869,65,300,360
22,861,835076,-2742,-15816,-2902,62,309,352
22,862,835081,-2749,-15814,-2752,60,321,343
22,863,835086,-2737,-15770,-2581,54,333,333
22,864,835091,-2767,-15764,-2437,51,330,321
22,865,835096,-2833,-15735,-2338,52,321,314
22,866,835101,-2847,-15758,-2252,49,303,307
22,867,835106,-2844,-15814,-2111,48,276,297
22,868,835111,-2868,-15749,-2098,47,235,288
22,869,835116,-2987,-15697,-2087,42,186,279
22,870,835121,-3104,-15639,-2129,41,132,271
22,871,835126,-3242,-15638,-2260,37,87,265
22,872,835131,-3274,-15651,-2301,36,49,255
22,873,835136,-3310,-15715,-2378,39,14,246
22,874,835141,-3433,-15761,-2393,37,-4,235
22,875,835146,-3448,-15789,-2622,33,-13,222
22,876,835151,-3513,-15846,-2695,34,-15,198
22,877,835156,-3510,-15898,-2847,33,-6,185
22,878,835161,-3504,-15960,-2966,28,12,170
22,879,835166,-3480,-15932,-3016,27,34,157
22,880,835171,-3492,-15888,-2967,28,61,143
22,881,835176,-3501,-15823,-3018,28,81,130
22,882,835181,-3527,-15815,-2971,28,105,117
22,883,835186,-3645,-15799,-3031,27,138,101
22,884,835191,-3705,-15791,-3025,26,168,90
22,885,835196,-3750,-15761,-2879,27,186,79
22,886,835201,-3759,-15751,-2748,23,184,66
22,887,835206,-3777,-15775,-2575,19,167,53
22,888,835211,-3833,-15772,-2545,23,144,42
22,889,835216,-3803,-15794,-2476,22,107,32
22,890,835221,-3793,-15841,-2497,23,68,21
22,891,835226,-3770,-15824,-2659,25,30,13
22,892,835231,-3845,-15796,-2713,23,12,3
22,893,835236,-3908,-15774,-2716,23,1,-11
22,894,835241,-3934,-15743,-2712,22,-10,-19
22,895,835246,-4011,-15699,-2794,22,-19,-30
22,896,835251,-4063,-15686,-2904,22,-12,-38
22,897,835256,-4012,-15703,-2947,17,6,-46
22,898,835261,-3955,-15749,-2802,14,33,-59
22,899,835266,-3948,-15753,-2720,14,56,-71
22,900,835271,-4017,-15772,-2619,12,66,-82
22,901,835276,-4025,-15706,-2635,13,68,-89
22,902,835281,-3956,-15667,-2600,10,65,-99
22,903,835286,-3880,-15687,-2583,8,54,-107
22,904,835291,-3881,-15698,-2510,6,33,-114
22,905,835296,-3926,-15694,-2587,5,2,-117
22,906,835301,-3878,-15647,-2701,1,-20,-123
22,907,835306,-3888,-15606,-2611,1,-29,-130
22,908,835311,-3837,-15614,-2478,-4,-37,-137
22,909,835316,-3824,-15631,-2532,-7,-52,-143
22,910,835321,-3816,-15572,-2573,-7,-62,-146
22,911,835326,-3784,-15578,-2600,-9,-61,-154
22,912,835331,-3723,-15582,-2657,-14,-61,-159
22,913,835336,-3613,-15621,-2702,-16,-63,-164
22,914,835341,-3532,-15671,-2676,-18,-62,-168
22,915,835346,-3486,-15683,-2725,-22,-60,-174
22,916,835351,-3432,-15603,-2752,-24,-54,-180
22,917,835356,-3387,-15561,-2787,-30,-50,-183
22,918,835361,-3338,-15581,-2881,-31,-49,-186
22,919,835366,-3291,-15572,-2876,-34,-48,-190
22,920,835371,-3280,-15582,-2858,-38,-46,-192
22,921,835376,-3306,-15574,-2915,-40,-44,-195
22,922,835381,-3199,-15561,-2942,-42,-41,-197
22,923,835386,-3034,-15663,-2950,-42,-43,-199
22,924,835391,-2959,-15684,-2959,-50,-43,-205
22,925,835396,-2833,-15735,-3009,-53,-44,-209
22,926,835401,-2764,-15795,-3091,-56,-42,-210
22,927,835406,-2698,-15840,-3245,-56,-32,-214
22,928,835411,-2542,-15940,-3437,-63,-11,-218
22,929,835416,-2401,-16033,-3536,-67,17,-222
22,930,835421,-2430,-16033,-3483,-73,47,-229
22,931,835426,-2489,-15985,-3437,-80,81,-238
22,932,835431,-2389,-16002,-3554,-85,128,-246
22,933,835436,-2264,-16103,-3554,-90,184,-250
22,934,835441,-2016,-16214,-3318,-96,228,-255
22,935,835446,-1676,-16313,-2992,-102,242,-263
22,936,835451,-1417,-16279,-2860,-106,238,-274
22,937,835456,-1537,-16181,-2907,-111,218,-283
22,938,835461,-1690,-16133,-2997,-119,204,-288
22,939,835466,-1683,-16089,-3024,-125,198,-295
22,940,835471,-1449,-16137,-2973,-131,196,-303
22,941,835476,-1276,-16232,-2798,-139,187,-313
22,942,835481,-1149,-16262,-2841,-143,145,-327
22,943,835486,-1078,-16217,-2923,-147,88,-334
22,944,835491,-1167,-16226,-2782,-156,46,-345
22,945,835496,-1133,-16183,-2908,-159,1,-355
22,946,835501,-932,-16188,-3233,-162,-34,-362
22,947,835506,-776,-16165,-3342,-168,-53,-381
22,948,835511,-608,-16187,-3308,-175,-92,-390
22,949,835516,-408,-16178,-3171,-179,-142,-402
22,950,835521,-320,-16221,-3440,-184,-248,-432
22,951,835526,-342,-16283,-3354,-188,-275,-447
22,952,835531,-246,-16232,-3441,-192,-313,-458
22,953,835536,-265,-16291,-3653,-192,-343,-472
22,954,835541,-312,-16342,-3771,-198,-353,-490
22,955,835546,-170,-16275,-3837,-201,-350,-504
22,956,835551,-72,-16291,-3878,-203,-338,-520
22,957,835556,107,-16361,-3986,-210,-326,-537
22,958,835561,158,-16409,-3957,-215,-308,-556
22,959,835566,98,-16409,-3994,-213,-293,-576
22,960,835571,60,-16359,-4340,-213,-272,-596
22,961,835576,17,-16294,-4543,-215,-227,-614
22,962,835581,-8,-16216,-4649,-216,-175,-635
22,963,835586,-201,-16207,-4642,-212,-115,-658
22,964,835591,-231,-16234,-4579,-213,-50,-679
22,965,835596,-249,-16205,-4534,-211,32,-699
22,966,835601,-213,-16218,-4468,-210,114,-720
22,967,835606,-155,-16257,-3817,-211,173,-740
22,968,835611,41,-16282,-3372,-210,164,-759
22,969,835616,26,-16350,-3148,-206,125,-777
22,970,835621,-181,-16449,-3158,-203,84,-794
22,971,835626,-358,-16435,-2989,-202,38,-810
22,972,835631,-391,-16438,-2994,-198,-26,-824
22,973,835636,-417,-16513,-3093,-196,-96,-839
22,974,835641,-455,-16519,-3204,-195,-160,-852
22,975,835646,-443,-16597,-3424,-190,-202,-869
22,976,835651,-514,-16681,-3551,-189,-228,-886
22,977,835656,-502,-16812,-3745,-188,-249,-901
22,978,835661,-479,-16851,-3956,-185,-258,-918
22,979,835666,-436,-16871,-4088,-186,-236,-938
22,980,835671,-570,-16905,-3998,-184,-199,-956
22,981,835676,-757,-16960,-3908,-183,-173,-976
22,982,835681,-915,-16938,-3942,-179,-160,-991
22,983,835686,-1045,-16923,-3831,-177,-136,-1007
22,984,835691,-1155,-17025,-3611,-177,-115,-1024
22,985,835696,-1125,-17075,-3277,-173,-114,-1039
22,986,835701,-1108,-17097,-3083,-173,-137,-1051
22,987,835706,-1162,-17141,-3136,-170,-170,-1065
22,988,835711,-1279,-17134,-3176,-167,-203,-1080
22,989,835716,-1546,-17116,-3092,-166,-237,-1091
22,990,835721,-1903,-17089,-2972,-169,-269,-1101
22,991,835726,-2094,-16999,-2892,-169,-301,-1110
22,992,835731,-2247,-17004,-2994,-164,-314,-1116
22,993,835736,-2505,-17034,-3080,-162,-308,-1126
22,994,835741,-2676,-17060,-3023,-163,-293,-1131
22,995,835746,-2899,-16955,-2948,-163,-278,-1139
22,996,835751,-3069,-16888,-3122,-163,-260,-1142
22,997,835756,-3145,-16837,-3234,-163,-235,-1144
22,998,835761,-3147,-16742,-2940,-164,-200,-1147
22,999,835766,8197,-5045,-4514,-176,-246,-1106
22,1000,835771,-15524,8506,18155,-176,200,-1505
22,1001,835776,-4019,-12676,-5251,-2,-1465,-228
22,1002,835781,5221,-17050,-25631,-80,-2101,-305
22,1003,835786,4557,-20648,-6197,-73,2370,-888
22,1004,835791,-6707,-14406,15763,-139,2197,-1264
22,1005,835796,-2715,-14480,308,-74,-1166,-736
22,1006,835801,-5015,-17947,-5275,-42,-993,-688
22,1007,835806,-2491,-16360,-7241,-110,-372,-794
22,1008,835811,-2300,-17205,862,-106,397,-733
22,1009,835816,-2944,-15888,327,-90,-89,-830
22,1010,835821,-4070,-16269,-4739,-65,-735,-731
22,1011,835826,-4095,-16367,-7649,-75,-584,-701
22,1012,835831,-4207,-16029,-2987,-85,85,-724
22,1013,835836,-3438,-16510,-473,-63,207,-697
22,1014,835841,-2408,-16597,-1626,-54,-146,-675
22,1015,835846,-2293,-16652,-4815,-58,-368,-644
22,1016,835851,-3042,-16374,-4315,-60,-163,-644
22,1017,835856,-3623,-16138,-1937,-55,46,-627
22,1018,835861,-3151,-16337,-1393,-41,-42,-588
22,1019,835866,-2644,-16518,-2868,-34,-187,-554
22,1020,835871,-2624,-16408,-3979,-38,-137,-540
22,1021,835876,-2895,-16196,-2929,-44,49,-524
22,1022,835881,-3029,-16130,-1999,-45,104,-502
22,1023,835886,-2417,-16029,-3002,-35,-20,-437
22,1024,835891,-2313,-16033,-2915,-35,60,-418
22,1025,835896,-2440,-15829,-2264,-33,122,-398
22,1026,835901,-2360,-15780,-2112,-34,70,-366
22,1027,835906,-2216,-15833,-2644,-35,-4,-338
22,1028,835911,-2090,-15859,-3095,-36,4,-314
22,1029,835916,-2049,-15788,-2961,-35,69,-294
22,1030,835921,-1999,-15773,-2681,-34,95,-268
22,1031,835926,-1881,-15849,-2790,-33,72,-244
22,1032,835931,-1770,-15868,-3193,-34,68,-222
22,1033,835936,-1708,-15921,-3195,-34,116,-202
22,1034,835941,-1607,-15971,-2857,-35,163,-185
22,1035,835946,-1514,-15945,-2737,-35,168,-164
22,1036,835951,-1344,-15860,-3011,-35,155,-146
22,1037,835956,-1264,-15890,-3146,-35,166,-129
22,1038,835961,-1187,-15994,-3079,-38,192,-111
22,1039,835966,-1117,-15907,-2979,-40,207,-94
22,1040,835971,-1101,-15879,-3030,-42,209,-79
22,1041,835976,-1009,-15884,-3168,-42,209,-67
22,1042,835981,-904,-15770,-3114,-39,214,-52
22,1043,835986,-790,-15752,-3039,-41,209,-40
22,1044,835991,-722,-15732,-2963,-42,189,-25
22,1045,835996,-751,-15687,-3193,-40,170,-15
22,1046,836001,-793,-15726,-3351,-40,181,-9
22,1047,836006,-721,-15774,-3287,-42,204,3
22,1048,836011,-579,-15771,-3197,-40,210,14
22,1049,836016,-384,-15830,-3163,-36,188,21
22,1050,836021,-284,-15833,-3118,-37,159,27
22,1051,836026,-364,-15891,-3196,-40,138,31
22,1052,836031,-376,-15911,-3186,-40,136,36
22,1053,836036,-351,-15828,-3395,-35,130,44
22,1054,836041,-239,-15845,-3520,-34,127,49
22,1055,836046,-82,-15924,-3633,-34,127,50
22,1056,836051,-18,-15918,-3701,-33,128,50
22,1057,836056,66,-15929,-3767,-27,140,52
22,1058,836061,48,-15968,-3815,-24,153,54
22,1059,836066,44,-15983,-3827,-25,176,51
22,1060,836071,141,-15991,-3862,-23,204,50
22,1061,836076,198,-15971,-3867,-21,236,53
22,1062,836081,200,-15928,-3812,-18,268,51
22,1063,836086,164,-15865,-3679,-15,289,48
22,1064,836091,105,-15780,-3551,-9,285,49
22,1065,836096,132,-15774,-3489,-4,263,51
22,1066,836101,276,-15713,-3476,-2,228,57
22,1067,836106,424,-15755,-3322,-1,184,56
22,1068,836111,497,-15822,-3146,3,119,58
22,1069,836116,468,-15826,-3445,11,31,63
22,1070,836121,416,-15894,-3988,17,-22,63
22,1071,836126,467,-15945,-4270,21,-20,62
22,1072,836131,441,-15991,-4223,22,0,58
22,1073,836136,416,-15964,-4225,26,10,54
22,1074,836141,442,-15926,-4298,31,19,51
22,1075,836146,397,-15894,-4215,32,39,48
22,1076,836151,462,-15849,-3932,33,58,47
22,1077,836156,592,-15875,-3716,38,45,47
22,1078,836161,830,-15966,-3552,40,2,47
22,1079,836166,897,-16097,-3466,48,-52,47
22,1080,836171,965,-16127,-3500,45,-98,46
22,1081,836176,1091,-16159,-3603,46,-119,49
22,1082,836181,1155,-16246,-3734,52,-120,48
22,1083,836186,1062,-16229,-3878,53,-107,42
22,1084,836191,1038,-16144,-4102,49,-78,42
22,1085,836196,1053,-16098,-4259,49,-32,36
22,1086,836201,974,-16070,-4089,52,21,34
22,1087,836206,881,-15984,-3798,48,56,30
22,1088,836211,832,-15891,-3720,48,69,24
22,1089,836216,784,-15962,-3710,43,85,24
22,1090,836221,882,-15968,-3556,44,107,19
22,1091,836226,983,-15967,-3284,41,107,17
22,1092,836231,1066,-16023,-3181,43,79,16
22,1093,836236,1126,-16016,-3258,43,44,14
22,1094,836241,1148,-16024,-3451,41,16,12
22,1095,836246,1122,-16006,-3605,37,9,9
22,1096,836251,1123,-16043,-3643,30,17,3
22,1097,836256,1108,-16060,-3707,31,19,2
22,1098,836261,1101,-16066,-3679,30,23,-3
22,1099,836266,1095,-16029,-3570,25,24,-12
22,1100,836271,1076,-16019,-3454,22,14,-12
22,1101,836276,961,-16018,-3483,21,-1,-16
22,1102,836281,929,-16027,-3527,20,-2,-21
22,1103,836286,1050,-16076,-3475,17,6,-26
22,1104,836291,1129,-16083,-3445,17,11,-30
22,1105,836296,1179,-16164,-3463,14,1,-32
22,1106,836301,1197,-16166,-3524,13,-15,-36
22,1107,836306,1222,-16151,-3623,10,-30,-40
22,1108,836311,1200,-16265,-3624,7,-42,-42
22,1109,836316,1143,-16228,-3681,3,-46,-50
22,1110,836321,1021,-16134,-3811,2,-34,-57
22,1111,836326,979,-16109,-3850,-3,-13,-59
22,1112,836331,1023,-16128,-3779,-3,-3,-63
22,1113,836336,1166,-16132,-3714,-6,0,-67
22,1114,836341,1153,-16101,-3702,-8,3,-71
22,1115,836346,1059,-16082,-3803,-7,7,-75
22,1116,836351,1046,-16123,-3871,-10,19,-77
22,1117,836356,1122,-16122,-3772,-11,36,-80
22,1118,836361,1165,-16223,-3637,-16,41,-81
22,1119,836366,1208,-16199,-3678,-15,36,-83
22,1120,836371,1238,-16187,-3687,-17,33,-88
22,1121,836376,1258,-16145,-3623,-23,37,-87
22,1122,836381,1250,-16149,-3451,-25,32,-91
22,1123,836386,1221,-16087,-3359,-25,14,-90
22,1124,836391,1197,-16048,-3441,-28,-6,-87
22,1125,836396,1143,-16023,-3608,-30,-15,-90
22,1126,836401,1079,-15962,-3670,-33,-8,-90
22,1127,836406,1039,-15925,-3682,-34,0,-92
22,1128,836411,1009,-15841,-3693,-34,4,-89
22,1129,836416,1088,-15763,-3764,-35,6,-86
22,1130,836421,1201,-15777,-3815,-38,9,-84
22,1131,836426,1338,-15833,-3738,-38,8,-81
22,1132,836431,1333,-15799,-3645,-38,1,-80
22,1133,836436,1255,-15826,-3652,-39,-16,-77
22,1134,836441,1170,-15791,-3769,-40,-22,-76
22,1135,836446,1146,-15762,-3863,-40,-11,-77
22,1136,836451,1080,-15769,-3787,-37,-5,-70
22,1137,836456,1029,-15760,-3797,-38,-10,-68
22,1138,836461,1050,-15757,-3776,-38,-17,-70
22,1139,836466,1108,-15781,-3816,-38,-21,-66
22,1140,836471,1155,-15802,-3824,-34,-17,-62
22,1141,836476,1182,-15784,-3863,-33,-15,-62
22,1142,836481,1141,-15800,-3880,-33,-5,-60
22,1143,836486,1049,-15801,-3868,-30,3,-56
22,1144,836491,1025,-15781,-3820,-29,9,-53
22,1145,836496,1076,-15759,-3714,-29,4,-54
22,1146,836501,1033,-15772,-3629,-29,-11,-50
22,1147,836506,1028,-15819,-3641,-24,-33,-48
22,1148,836511,1019,-15802,-3731,-22,-44,-44
22,1149,836516,1053,-15862,-3807,-21,-45,-43
22,1150,836521,1058,-15838,-3779,-18,-46,-41
22,1151,836526,1011,-15887,-3782,-16,-50,-37
22,1152,836531,1016,-15871,-3840,-13,-61,-32
22,1153,836536,1080,-15863,-3940,-11,-61,-32
22,1154,836541,1016,-15871,-3896,-12,-54,-34
22,1155,836546,989,-15872,-3863,-12,-49,-34
22,1156,836551,939,-15871,-3872,-9,-49,-31
22,1157,836556,942,-15887,-3912,-5,-43,-28
22,1158,836561,999,-15894,-3874,-5,-30,-26
22,1159,836566,1089,-15903,-3765,-3,-26,-26
22,1160,836571,1097,-15918,-3798,1,-33,-28
22,1161,836576,1070,-15926,-3835,0,-38,-27
22,1162,836581,952,-15928,-3830,0,-38,-25
22,1163,836586,872,-15917,-3800,0,-31,-26
22,1164,836591,849,-15905,-3733,2,-23,-23
22,1165,836596,847,-15950,-3699,3,-9,-22
22,1166,836601,883,-15957,-3641,7,-2,-23
22,1167,836606,891,-15956,-3623,7,0,-22
22,1168,836611,895,-15960,-3591,7,-7,-22
22,1169,836616,964,-15936,-3711,9,-30,-17
22,1170,836621,979,-15990,-3728,12,-43,-16
22,1171,836626,1004,-16002,-3719,10,-55,-18
22,1172,836631,1051,-15950,-3847,10,-64,-14
22,1173,836636,1011,-15907,-3972,14,-67,-9
22,1174,836641,960,-15918,-3969,12,-60,-9
22,1175,836646,1007,-15913,-3979,14,-53,-10
22,1176,836651,1024,-15867,-3906,17,-45,-9
22,1177,836656,964,-15865,-3841,16,-42,-8
22,1178,836661,969,-15867,-3841,18,-42,-6
22,1179,836666,988,-15917,-3892,18,-36,-5
22,1180,836671,970,-15937,-3866,19,-22,-6
22,1181,836676,956,-15945,-3800,21,-23,-7
22,1182,836681,933,-15971,-3792,24,-22,-5
22,1183,836686,901,-15923,-3835,20,-14,-2
22,1184,836691,833,-15909,-3730,20,-11,-1
22,1185,836696,744,-15919,-3618,19,-8,-2
22,1186,836701,762,-15921,-3578,16,-6,-3
22,1187,836706,834,-15903,-3556,16,-6,-1
22,1188,836711,886,-15923,-3467,16,-13,0
22,1189,836716,967,-15942,-3385,15,-34,1
22,1190,836721,1027,-16003,-3480,16,-67,6
22,1191,836726,985,-16003,-3614,16,-87,3
22,1192,836731,1005,-16003,-3716,14,-86,4
22,1193,836736,1103,-16068,-3789,12,-79,8
22,1194,836741,1108,-16060,-3786,12,-67,8
22,1195,836746,1100,-16085,-3837,10,-56,7
22,1196,836751,1136,-16025,-3942,11,-42,6
22,1197,836756,1193,-15987,-3979,10,-22,9
22,1198,836761,1145,-15976,-3837,5,-7,8
22,1199,836766,1159,-15936,-3787,2,-3,8
22,1200,836771,1143,-15895,-3727,3,3,9
22,1201,836776,1069,-15897,-3729,0,19,8
22,1202,836781,1027,-15848,-3662,1,35,7
22,1203,836786,1034,-15819,-3580,-3,39,7
22,1204,836791,1125,-15857,-3523,-5,33,7
22,1205,836796,1178,-15871,-3518,-5,19,11
22,1206,836801,1110,-15841,-3561,-6,4,12
22,1207,836806,1078,-15797,-3669,-10,-10,13
22,1208,836811,1123,-15804,-3728,-10,-17,13
22,1209,836816,1122,-15832,-3811,-11,-23,17
22,1210,836821,1090,-15876,-3833,-12,-23,16
22,1211,836826,1069,-15858,-3892,-12,-26,15
22,1212,836831,1159,-15900,-3938,-8,-27,17
22,1213,836836,1202,-15930,-3932,-11,-21,16
22,1214,836841,1170,-15930,-3861,-13,-22,17
22,1215,836846,1251,-15953,-3858,-14,-27,18
22,1216,836851,1275,-16032,-3955,-15,-32,18
22,1217,836856,1315,-16069,-3986,-13,-29,19
22,1218,836861,1295,-16061,-3913,-15,-21,17
22,1219,836866,1209,-16038,-3818,-13,-12,15
22,1220,836871,1259,-16050,-3832,-13,-6,16
22,1221,836876,1313,-16086,-3822,-14,4,21
22,1222,836881,1304,-16080,-3796,-15,20,17
22,1223,836886,1239,-16030,-3704,-19,25,16
22,1224,836891,1159,-15961,-3731,-18,16,15
22,1225,836896,1151,-15906,-3779,-16,16,15
22,1226,836901,1176,-15852,-3745,-17,21,16
22,1227,836906,1223,-15820,-3678,-18,20,14
22,1228,836911,1214,-15797,-3683,-14,9,14
22,1229,836916,1228,-15738,-3810,-14,-3,16
22,1230,836921,1214,-15778,-3951,-13,-10,16
22,1231,836926,1228,-15819,-3934,-14,-11,14
22,1232,836931,1206,-15804,-3848,-13,-13,14
22,1233,836936,1155,-15849,-3902,-11,-18,14
22,1234,836941,1191,-15861,-3869,-11,-13,11
22,1235,836946,1149,-15828,-3881,-7,-6,11
22,1236,836951,1164,-15895,-3797,-7,-4,7
22,1237,836956,1181,-15872,-3792,-9,-11,6
22,1238,836961,1248,-15938,-3811,-5,-21,7
22,1239,836966,1244,-16020,-3736,-7,-27,8
22,1240,836971,1246,-16041,-3772,-6,-35,7
22,1241,836976,1225,-16030,-3759,-4,-46,6
22,1242,836981,1116,-16007,-3881,-6,-48,2
22,1243,836986,1133,-16034,-3887,-6,-41,3
22,1244,836991,1188,-16078,-3878,-1,-34,-1
22,1245,836996,1142,-16087,-3937,-3,-23,0
22,1246,837001,1078,-16015,-3908,-4,-7,-4
22,1247,837006,1024,-15954,-3850,-1,4,-5
22,1248,837011,1031,-15977,-3794,0,6,-4
22,1249,837016,1086,-15965,-3732,-3,5,-5
22,1250,837021,1186,-15969,-3724,-2,-2,-1
22,1251,837026,1246,-15928,-3768,1,-11,-2
22,1252,837031,1224,-15967,-3717,-1,-18,-5
22,1253,837036,1164,-15978,-3744,-1,-25,-4
22,1254,837041,1184,-15962,-3846,1,-23,-4
22,1255,837046,1166,-15881,-3843,-2,-5,-6
22,1256,837051,1163,-15890,-3825,1,14,-6
22,1257,837056,1144,-15912,-3797,0,27,-4
22,1258,837061,1154,-15881,-3720,-2,31,-5
22,1259,837066,1072,-15889,-3627,-1,26,-9
22,1260,837071,1031,-15883,-3560,-2,23,-6
22,1261,837076,1054,-15948,-3541,-3,21,-3
22,1262,837081,1108,-15989,-3543,-3,14,-6
22,1263,837086,1156,-16053,-3520,-3,8,-4
22,1264,837091,1146,-16070,-3579,-5,4,-2
22,1265,837096,1049,-16048,-3637,-4,-1,-4
22,1266,837101,1060,-16013,-3704,-4,2,-5
22,1267,837106,1160,-16009,-3740,-7,-1,-2
22,1268,837111,1229,-16058,-3728,-8,-12,2
22,1269,837116,1261,-16051,-3721,-9,-22,2
22,1270,837121,1212,-16030,-3631,-8,-34,1
22,1271,837126,1134,-16019,-3656,-9,-40,4
22,1272,837131,1168,-16044,-3703,-8,-40,7
22,1273,837136,1190,-16039,-3706,-6,-31,7
22,1274,837141,1194,-16020,-3642,-7,-28,5
22,1275,837146,1197,-16065,-3672,-8,-32,6
22,1276,837151,1142,-16025,-3759,-7,-36,8
22,1277,837156,1062,-15980,-3725,-8,-28,9
22,1278,837161,966,-15983,-3637,-9,-17,9
22,1279,837166,1015,-15976,-3655,-7,-11,11
22,1280,837171,1069,-15980,-3687,-7,-10,10
22,1281,837176,1080,-15996,-3698,-8,-6,9
22,1282,837181,1116,-15971,-3645,-7,-7,6
22,1283,837186,1145,-15967,-3686,-10,-13,6
22,1284,837191,1104,-15931,-3756,-8,-17,8
22,1285,837196,1122,-15945,-3781,-7,-10,10
22,1286,837201,1156,-15993,-3784,-6,0,9
22,1287,837206,1219,-15987,-3846,-5,3,6
22,1288,837211,1183,-15978,-3859,-3,3,5
22,1289,837216,1131,-15959,-3810,-2,3,5
22,1290,837221,1144,-15956,-3780,-3,5,5
22,1291,837226,1153,-15946,-3767,-3,12,6
22,1292,837231,1189,-15948,-3689,-2,12,8
22,1293,837236,1163,-16015,-3698,1,7,8
22,1294,837241,1227,-16027,-3649,-1,1,8
22,1295,837246,1188,-16025,-3579,0,-8,4
22,1296,837251,1207,-16088,-3684,4,-13,6
22,1297,837256,1251,-16076,-3700,2,-14,3
22,1298,837261,1186,-16028,-3711,3,-14,2
22,1299,837266,1083,-16033,-3792,6,-11,1
22,1300,837271,1064,-16025,-3804,6,0,-2
22,1301,837276,1072,-15971,-3780,6,11,-2
22,1302,837281,1105,-15937,-3822,7,20,-5
22,1303,837286,1103,-15936,-3849,8,29,-8
22,1304,837291,1168,-15892,-3794,8,34,-7
22,1305,837296,1192,-15909,-3751,12,33,-9
22,1306,837301,1161,-15887,-3743,11,29,-10
22,1307,837306,1159,-15934,-3789,12,25,-11
22,1308,837311,1167,-15934,-3819,11,25,-12
22,1309,837316,1225,-15924,-3737,13,26,-11
22,1310,837321,1242,-15952,-3639,14,22,-11
22,1311,837326,1244,-15961,-3617,16,13,-16
22,1312,837331,1201,-15935,-3711,15,0,-14
22,1313,837336,1176,-15942,-3730,15,0,-11
22,1314,837341,1190,-15916,-3750,18,3,-16
22,1315,837346,1097,-15910,-3755,16,2,-17
22,1316,837351,1054,-15928,-3759,18,3,-20
22,1317,837356,1053,-15957,-3782,17,11,-21
22,1318,837361,1121,-15940,-3721,16,16,-23
22,1319,837366,1138,-15914,-3689,18,14,-22
22,1320,837371,1052,-15938,-3714,19,7,-19
22,1321,837376,1094,-15925,-3731,17,2,-23
22,1322,837381,1191,-15965,-3726,18,-1,-25
22,1323,837386,1217,-16044,-3780,19,-6,-22
22,1324,837391,1229,-16029,-3840,19,-8,-26
22,1325,837396,1264,-15960,-3891,16,-10,-26
22,1326,837401,1289,-15905,-3822,19,-10,-23
22,1327,837406,1264,-15943,-3819,20,-11,-20
22,1328,837411,1226,-15981,-3826,18,-10,-21
22,1329,837416,1273,-15959,-3824,18,-1,-20
22,1330,837421,1220,-15974,-3820,17,10,-21
22,1331,837426,1232,-16011,-3737,15,22,-25
22,1332,837431,1190,-16017,-3634,14,27,-21
22,1333,837436,1161,-16004,-3628,12,26,-22
22,1334,837441,1153,-15934,-3643,16,30,-22
22,1335,837446,1171,-15921,-3566,12,36,-21
22,1336,837451,1159,-15921,-3416,8,38,-21
22,1337,837456,1166,-15911,-3385,9,24,-20
22,1338,837461,1163,-15883,-3443,7,5,-18
22,1339,837466,1218,-15895,-3515,3,-8,-15
22,1340,837471,1277,-15885,-3581,4,-14,-13
22,1341,837476,1225,-15836,-3548,2,-26,-14
22,1342,837481,1228,-15862,-3637,2,-37,-11
22,1343,837486,1264,-15958,-3732,4,-44,-6
22,1344,837491,1295,-15982,-3757,0,-34,-6
22,1345,837496,1276,-15949,-3694,-1,-19,-11
22,1346,837501,1190,-15953,-3723,-3,-16,-11
22,1347,837506,1144,-15941,-3782,-3,-19,-9
22,1348,837511,1056,-15920,-3772,-5,-8,-11
22,1349,837516,1081,-15910,-3750,-4,4,-7
22,1350,837521,1144,-15946,-3693,-5,9,-4
22,1351,837526,1200,-15969,-3674,-6,1,-3
22,1352,837531,1227,-15977,-3622,-8,-9,-4
22,1353,837536,1205,-15979,-3644,-6,-21,-3
22,1354,837541,1165,-16011,-3714,-5,-28,-2
22,1355,837546,1153,-15998,-3719,-7,-29,-5
22,1356,837551,1122,-16016,-3770,-7,-30,-4
22,1357,837556,1113,-15997,-3846,-5,-24,-2
22,1358,837561,1125,-15963,-3816,-6,-12,-4
22,1359,837566,1133,-16008,-3788,-6,-2,-3
22,1360,837571,1120,-15967,-3735,-4,1,-3
22,1361,837576,1113,-15963,-3723,-5,0,-2
22,1362,837581,1071,-15939,-3781,-6,-4,-2
22,1363,837586,1133,-15960,-3849,-6,-2,2
22,1364,837591,1170,-16005,-3801,-8,-5,0
22,1365,837596,1150,-16018,-3815,-6,-11,-2
22,1366,837601,1094,-16022,-3838,-7,-5,-6
22,1367,837606,1058,-15961,-3881,-6,0,-5
22,1368,837611,1074,-15977,-3839,-4,10,-7
22,1369,837616,1079,-15975,-3762,-4,7,-5
22,1370,837621,1054,-15941,-3727,-7,-6,-6
22,1371,837626,1027,-15909,-3763,-4,-15,-5
22,1372,837631,1033,-15916,-3777,-3,-16,-8
22,1373,837636,1037,-15932,-3755,-1,-15,-10
22,1374,837641,1105,-15975,-3759,1,-12,-7
22,1375,837646,1133,-15939,-3781,0,-13,-8
22,1376,837651,1170,-15917,-3800,-2,-17,-9
22,1377,837656,1159,-15944,-3848,-1,-18,-11
22,1378,837661,1171,-15942,-3881,1,-18,-9
22,1379,837666,1170,-15953,-3909,1,-18,-9
22,1380,837671,1134,-15911,-3851,1,-13,-11
22,1381,837676,1100,-15902,-3768,0,-7,-12
22,1382,837681,1066,-15963,-3715,1,-10,-14
22,1383,837686,1117,-15918,-3720,3,-13,-15
22,1384,837691,1106,-15959,-3707,4,-16,-15
22,1385,837696,959,-15979,-3719,3,-18,-16
22,1386,837701,942,-15996,-3829,1,-17,-15
22,1387,837706,1034,-15988,-3826,4,-11,-15
22,1388,837711,1060,-15930,-3757,3,-10,-19
22,1389,837716,1131,-16051,-3766,6,-37,-17
22,1390,837721,1172,-16000,-3844,6,-41,-18
22,1391,837726,1155,-16042,-3856,4,-31,-16
22,1392,837731,1140,-16053,-3885,4,-30,-17
22,1393,837736,1108,-16029,-3881,6,-24,-17
22,1394,837741,1063,-15982,-3874,6,-22,-18
22,1395,837746,1104,-15974,-3883,6,-16,-19
22,1396,837751,1159,-15933,-3875,7,-8,-17
22,1397,837756,1105,-15981,-3785,9,-2,-17
22,1398,837761,1103,-15955,-3816,8,-7,-17
22,1399,837766,1129,-15893,-3838,5,-2,-16
22,1400,837771,1174,-15951,-3793,3,3,-15
22,1401,837776,1261,-15966,-3753,4,0,-14
22,1402,837781,1305,-15966,-3688,2,-10,-10
22,1403,837786,1227,-15962,-3724,5,-19,-12
22,1404,837791,1133,-15878,-3754,4,-18,-12
22,1405,837796,1125,-15873,-3737,2,-12,-11
22,1406,837801,1159,-15860,-3750,1,-6,-10
22,1407,837806,1165,-15909,-3675,0,-9,-9
22,1408,837811,1194,-15903,-3656,2,-12,-8
22,1409,837816,1251,-15966,-3674,0,-18,-6
22,1410,837821,1257,-15983,-3674,-1,-21,-1
22,1411,837826,1278,-15965,-3627,0,-25,1
22,1412,837831,1300,-15972,-3706,-4,-31,1
22,1413,837836,1269,-15964,-3739,-4,-34,0
22,1414,837841,1261,-15928,-3738,-6,-31,0
22,1415,837846,1250,-15915,-3720,-7,-24,3
22,1416,837851,1242,-15944,-3745,-8,-16,3
22,1417,837856,1221,-15923,-3785,-8,-10,3
22,1418,837861,1174,-15900,-3696,-11,-6,2
22,1419,837866,1133,-15906,-3708,-12,-2,2
22,1420,837871,1168,-15900,-3697,-11,-10,4
22,1421,837876,1239,-15890,-3719,-11,-14,9
22,1422,837881,1264,-15952,-3807,-11,-14,8
22,1423,837886,1245,-15929,-3855,-13,-10,10
22,1424,837891,1210,-15905,-3853,-13,-5,10
22,1425,837896,1237,-15914,-3823,-17,0,7
22,1426,837901,1261,-15890,-3854,-20,0,8
22,1427,837906,1296,-15907,-3882,-15,1,9
22,1428,837911,1335,-15924,-3860,-14,8,8
22,1429,837916,1238,-15911,-3763,-14,11,8
22,1430,837921,1169,-15891,-3785,-15,2,7
22,1431,837926,1201,-15937,-3817,-17,-5,9
22,1432,837931,1213,-15955,-3804,-18,-3,9
22,1433,837936,1239,-15935,-3774,-14,-6,11
22,1434,837941,1254,-15933,-3788,-15,-9,9
22,1435,837946,1235,-15945,-3834,-15,-8,8
22,1436,837951,1252,-15934,-3835,-13,-4,7
22,1437,837956,1240,-15937,-3770,-14,1,6
22,1438,837961,1247,-15936,-3735,-13,-1,9
22,1439,837966,1226,-15969,-3754,-14,-3,7
22,1440,837971,1177,-15951,-3826,-14,-2,6
22,1441,837976,1182,-15925,-3725,-14,3,3
22,1442,837981,1144,-15938,-3675,-14,-4,5
22,1443,837986,1087,-15962,-3795,-12,-10,2
22,1444,837991,1095,-15938,-3914,-11,-6,0
22,1445,837996,1126,-15956,-3868,-9,1,0
22,1446,838001,1212,-15970,-3796,-9,3,-2
22,1447,838006,1098,-15981,-3728,-10,-6,-4
22,1448,838011,1076,-15961,-3718,-6,-13,-7
22,1449,838016,1071,-15952,-3806,-6,-15,-6
22,1450,838021,1068,-15926,-3853,-5,-9,-11
22,1451,838026,1105,-15922,-3838,-7,-12,-11
22,1452,838031,1096,-15908,-3900,-6,-22,-12
22,1453,838036,1065,-15929,-3926,-4,-33,-13
22,1454,838041,1072,-15909,-3936,-3,-33,-16
22,1455,838046,1076,-15884,-3932,-2,-22,-17
22,1456,838051,1125,-15928,-3903,-2,-22,-17
22,1457,838056,1162,-15936,-3834,-1,-25,-20
22,1458,838061,1148,-15964,-3809,-1,-34,-21
22,1459,838066,1137,-15963,-3834,1,-42,-21
22,1460,838071,1123,-15993,-3847,3,-41,-21
22,1461,838076,1186,-15968,-3861,2,-39,-21
22,1462,838081,1168,-15904,-3827,3,-35,-23
22,1463,838086,1118,-15915,-3857,4,-38,-24
22,1464,838091,1137,-15903,-3897,-1,-35,-21
22,1465,838096,1142,-15872,-3839,0,-27,-20
22,1466,838101,1112,-15911,-3756,-2,-26,-22
22,1467,838106,1129,-15955,-3733,-2,-22,-21
22,1468,838111,1130,-15944,-3755,-2,-18,-19
22,1469,838116,1161,-15934,-3702,-1,-11,-18
22,1470,838121,1151,-15909,-3730,-6,-1,-16
22,1471,838126,1152,-15923,-3726,-6,4,-16
22,1472,838131,1162,-15973,-3636,-6,6,-14
22,1473,838136,1166,-15970,-3538,-7,2,-13
22,1474,838141,1147,-16006,-3505,-9,-5,-11
22,1475,838146,1151,-16014,-3461,-10,-16,-7
22,1476,838151,1222,-16052,-3517,-13,-28,-5
22,1477,838156,1323,-16125,-3513,-16,-33,-1
22,1478,838161,1335,-16180,-3511,-16,-39,-1
22,1479,838166,1297,-16165,-3598,-16,-51,1
22,1480,838171,1229,-16046,-3768,-21,-52,2
22,1481,838176,1249,-16024,-3849,-21,-38,7
22,1482,838181,1275,-16052,-3805,-22,-25,8
22,1483,838186,1265,-16021,-3764,-20,-11,11
22,1484,838191,1311,-16000,-3784,-23,-3,12
22,1485,838196,1266,-15950,-3796,-25,4,13
22,1486,838201,1222,-15909,-3751,-26,15,14
22,1487,838206,1212,-15905,-3746,-24,19,19
22,1488,838211,1241,-15924,-3700,-23,20,19
22,1489,838216,1237,-15894,-3712,-23,18,22
22,1490,838221,1204,-15905,-3750,-22,11,20
22,1491,838226,1150,-15864,-3791,-21,9,19
22,1492,838231,1090,-15860,-3868,-20,15,24
22,1493,838236,1132,-15861,-3894,-21,18,23
22,1494,838241,1117,-15816,-3894,-20,20,21
22,1495,838246,1092,-15805,-3890,-20,19,20
22,1496,838251,1100,-15771,-3835,-17,12,18
22,1497,838256,1082,-15821,-3820,-15,10,16
22,1498,838261,1023,-15782,-3813,-13,5,16
22,1499,838266,989,-15744,-3781,-13,-3,14
22,1500,838271,980,-15750,-3747,-10,-13,12
22,1501,838276,1014,-15747,-3654,-7,-31,13
22,1502,838281,1055,-15715,-3638,-8,-51,10
22,1503,838286,1082,-15725,-3703,-5,-70,8
22,1504,838291,1067,-15683,-3800,-5,-87,8
22,1505,838296,1081,-15663,-3818,-3,-95,7
22,1506,838301,1146,-15622,-3848,-1,-106,6
22,1507,838306,1182,-15577,-3772,0,-116,3
22,1508,838311,1176,-15612,-3825,1,-128,3
22,1509,838316,1177,-15641,-4025,5,-128,3
22,1510,838321,1261,-15647,-4185,7,-114,2
22,1511,838326,1312,-15664,-4269,7,-86,-1
22,1512,838331,1293,-15707,-4257,8,-66,-6
22,1513,838336,1289,-15688,-4326,8,-52,-9
22,1514,838341,1211,-15687,-4307,9,-30,-12
22,1515,838346,1101,-15713,-4178,8,-20,-16
22,1516,838351,1076,-15769,-3972,9,-14,-18
22,1517,838356,1123,-15791,-3850,8,-18,-21
22,1518,838361,1100,-15853,-3786,9,-31,-23
22,1519,838366,1054,-15900,-3805,12,-40,-22
22,1520,838371,1037,-15857,-3940,14,-47,-23
22,1521,838376,1118,-15866,-4037,10,-55,-28
22,1522,838381,1128,-15941,-4091,9,-67,-26
22,1523,838386,1098,-15964,-4127,13,-76,-28
22,1524,838391,1106,-16031,-4191,9,-77,-33
22,1525,838396,1143,-16122,-4225,8,-71,-31
22,1526,838401,1250,-16116,-4256,11,-61,-32
22,1527,838406,1244,-16096,-4240,10,-43,-34
22,1528,838411,1226,-16129,-4249,8,-28,-38
22,1529,838416,1372,-16093,-4198,8,-14,-40
22,1530,838421,1460,-16123,-4127,3,-4,-38
22,1531,838426,1438,-16102,-3992,0,-9,-37
22,1532,838431,1407,-16081,-3930,-1,-28,-37
22,1533,838436,1407,-16137,-3990,-4,-41,-36
22,1534,838441,1407,-16122,-3965,-4,-46,-33
22,1535,838446,1424,-16123,-3850,-10,-50,-34
22,1536,838451,1364,-16037,-3889,-9,-59,-34
22,1537,838456,1339,-16004,-3917,-12,-55,-30
22,1538,838461,1349,-16038,-3909,-15,-44,-26
22,1539,838466,1412,-16059,-3881,-17,-36,-26
22,1540,838471,1433,-16073,-3897,-21,-31,-27
22,1541,838476,1458,-16063,-3942,-22,-32,-23
22,1542,838481,1485,-16031,-3903,-28,-28,-22
22,1543,838486,1482,-15983,-3871,-28,-24,-22
22,1544,838491,1443,-15993,-3871,-33,-22,-19
22,1545,838496,1399,-16001,-3924,-36,-16,-19
22,1546,838501,1374,-15955,-3942,-40,0,-15
22,1547,838506,1356,-15941,-3908,-40,20,-17
22,1548,838511,1353,-15905,-3812,-45,34,-14
22,1549,838516,1346,-15903,-3710,-45,35,-12
22,1550,838521,1353,-15900,-3698,-44,30,-12
22,1551,838526,1348,-15865,-3667,-47,28,-11
22,1552,838531,1329,-15838,-3659,-50,26,-6
22,1553,838536,1355,-15813,-3690,-51,16,-7
22,1554,838541,1360,-15843,-3822,-52,7,-7
22,1555,838546,1314,-15862,-3833,-53,-7,-3
22,1556,838551,1259,-15839,-3827,-52,-19,-2
22,1557,838556,1221,-15830,-3866,-51,-18,-1
22,1558,838561,1179,-15752,-3924,-50,-12,-1
22,1559,838566,1188,-15745,-3946,-50,0,-1
22,1560,838571,1129,-15780,-3974,-52,15,-2
22,1561,838576,1114,-15780,-3926,-50,21,-1
22,1562,838581,1155,-15804,-3915,-49,22,1
22,1563,838586,1173,-15861,-3916,-46,27,1
22,1564,838591,1196,-15887,-3892,-46,24,-3
22,1565,838596,1157,-15819,-3808,-44,20,-4
22,1566,838601,1145,-15841,-3872,-38,3,-2
22,1567,838606,1098,-15817,-4006,-36,-10,-1
22,1568,838611,1058,-15788,-4060,-33,-10,-2
22,1569,838616,969,-15798,-4067,-30,-8,-3
22,1570,838621,864,-15784,-4118,-26,-7,-1
22,1571,838626,818,-15804,-4105,-25,-2,-5
22,1572,838631,819,-15835,-4118,-21,3,-11
22,1573,838636,882,-15818,-4081,-15,13,-9
22,1574,838641,955,-15827,-4049,-12,13,-10
22,1575,838646,975,-15809,-4059,-10,5,-12
22,1576,838651,981,-15883,-4068,-4,1,-12
22,1577,838656,977,-15889,-3976,0,-1,-14
22,1578,838661,954,-15906,-3925,1,0,-16
22,1579,838666,941,-15937,-3915,6,0,-18
22,1580,838671,981,-15987,-3801,6,2,-17
22,1581,838676,974,-16029,-3728,9,3,-16
22,1582,838681,963,-16016,-3721,10,-1,-19
22,1583,838686,918,-16000,-3711,12,-8,-21
22,1584,838691,883,-16001,-3683,13,-14,-21
22,1585,838696,844,-16042,-3649,15,-17,-19
22,1586,838701,835,-16045,-3612,17,-13,-21
22,1587,838706,866,-16052,-3687,17,-10,-19
22,1588,838711,929,-16114,-3669,18,-5,-19
22,1589,838716,991,-16145,-3709,18,1,-23
22,1590,838721,1016,-16159,-3708,18,5,-23
22,1591,838726,1022,-16187,-3663,14,8,-22
22,1592,838731,906,-16133,-3579,15,15,-23
22,1593,838736,851,-16122,-3588,15,20,-26
22,1594,838741,893,-16106,-3653,14,32,-23
22,1595,838746,931,-16120,-3633,13,42,-20
22,1596,838751,1009,-16108,-3493,14,48,-20
22,1597,838756,1102,-16091,-3540,10,40,-19
22,1598,838761,1098,-16088,-3605,8,33,-17
22,1599,838766,1062,-16067,-3656,6,31,-18
