event_id,seq,ts_ms,ax,ay,az,gx,gy,gz
22,0,301300,-2771,-15752,-3773,11,-40,4
22,1,301305,-2557,-15703,-3912,9,-42,0
22,2,301310,-2673,-15801,-3877,9,-29,-4
22,3,301315,-2952,-15758,-3912,4,-24,-7
22,4,301320,-3117,-15727,-4051,4,-11,-7
22,5,301325,-3047,-15794,-4252,4,17,-7
22,6,301330,-3050,-15758,-4008,2,54,-11
22,7,301335,-2972,-15730,-3712,3,65,-11
22,8,301340,-2904,-15813,-3708,4,61,-8
22,9,301345,-3023,-15796,-3749,8,53,-13
22,10,301350,-3048,-15681,-3590,11,51,-13
22,11,301355,-2808,-15651,-3315,11,45,-6
22,12,301360,-2582,-15720,-3060,11,28,-4
22,13,301365,-2515,-15815,-3264,15,-8,-1
22,14,301370,-2534,-15773,-3582,16,-38,-1
22,15,301375,-2652,-15608,-3828,10,-57,-2
22,16,301380,-2744,-15516,-3947,4,-69,1
22,17,301385,-2790,-15501,-4013,3,-78,4
22,18,301390,-2758,-15539,-3969,2,-71,6
22,19,301395,-2631,-15498,-3878,2,-54,4
22,20,301400,-2612,-15514,-3874,3,-41,2
22,21,301405,-2629,-15704,-4028,5,-32,2
22,22,301410,-2704,-15797,-4102,2,-22,1
22,23,301415,-2623,-15684,-3983,-2,-1,-1
22,24,301420,-2493,-15633,-3829,-3,23,-2
22,25,301425,-2530,-15840,-3775,-3,36,-5
22,26,301430,-2613,-16031,-3798,-5,38,-5
22,27,301435,-2602,-15981,-3699,-6,44,-5
22,28,301440,-2616,-15927,-3536,-6,48,-5
22,29,301445,-2679,-15978,-3400,-6,45,-3
22,30,301450,-2723,-15994,-3451,-5,19,-3
22,31,301455,-2562,-15955,-3634,-4,-14,4
22,32,301460,-2368,-15874,-3654,-5,-31,6
22,33,301465,-2411,-15864,-3496,-9,-37,5
22,34,301470,-2429,-15898,-3629,-9,-48,5
22,35,301475,-2527,-15813,-3760,-13,-48,3
22,36,301480,-2634,-15695,-3721,-15,-40,0
22,37,301485,-2675,-15646,-3654,-16,-31,3
22,38,301490,-2589,-15705,-3664,-17,-18,0
22,39,301495,-2489,-15704,-3562,-19,-9,1
22,40,301500,-2531,-15603,-3587,-20,-11,-2
22,41,301505,-2761,-15471,-3584,-22,-22,-10
22,42,301510,-2843,-15458,-3719,-22,-42,-6
22,43,301515,-2743,-15560,-3896,-21,-50,-4
22,44,301520,-2512,-15581,-3787,-21,-43,-8
22,45,301525,-2457,-15595,-3575,-20,-45,-10
22,46,301530,-2456,-15722,-3721,-16,-68,-7
22,47,301535,-2493,-15758,-3892,-16,-91,-10
22,48,301540,-2633,-15817,-3938,-17,-93,-14
22,49,301545,-2668,-15829,-4112,-14,-88,-13
22,50,301550,-2738,-15859,-4369,-15,-69,-12
22,51,301555,-2775,-15925,-4431,-14,-42,-16
22,52,301560,-2815,-15893,-4209,-13,-13,-22
22,53,301565,-2745,-15902,-4028,-12,26,-24
22,54,301570,-2760,-15856,-3788,-11,72,-30
22,55,301575,-2682,-15740,-3462,-8,110,-34
22,56,301580,-2612,-15662,-3061,-8,115,-35
22,57,301585,-2461,-15730,-3136,-3,77,-32
22,58,301590,-2377,-15836,-3435,2,27,-26
22,59,301595,-2330,-15774,-3546,-2,-12,-27
22,60,301600,-2403,-15634,-3416,-5,-40,-27
22,61,301605,-2524,-15644,-3632,-2,-74,-24
22,62,301610,-2544,-15686,-3880,-2,-81,-23
22,63,301615,-2554,-15572,-3764,0,-60,-26
22,64,301620,-2715,-15510,-3450,2,-41,-29
22,65,301625,-2783,-15458,-3450,6,-51,-24
22,66,301630,-2723,-15498,-3640,7,-72,-25
22,67,301635,-2485,-15576,-3545,8,-95,-19
22,68,301640,-2383,-15654,-3406,8,-121,-18
22,69,301645,-2535,-15719,-3627,11,-150,-22
22,70,301650,-2589,-15795,-4058,11,-151,-23
22,71,301655,-2719,-15833,-4353,9,-107,-27
22,72,301660,-2879,-15851,-3939,5,20,-32
22,73,301665,-2918,-15898,-3741,4,59,-36
22,74,301670,-2865,-15915,-3672,9,88,-39
22,75,301675,-2842,-15801,-3494,7,113,-41
22,76,301680,-2717,-15769,-3180,3,100,-38
22,77,301685,-2490,-15825,-3088,5,56,-36
22,78,301690,-2398,-15842,-3197,5,15,-34
22,79,301695,-2411,-15797,-3318,4,-1,-29
22,80,301700,-2422,-15811,-3438,1,4,-27
22,81,301705,-2261,-15822,-3445,2,26,-28
22,82,301710,-2116,-15831,-3384,0,52,-24
22,83,301715,-2171,-15895,-3324,-1,70,-21
22,84,301720,-2263,-15886,-3339,-1,65,-19
22,85,301725,-2304,-15884,-3365,-3,34,-15
22,86,301730,-2448,-15895,-3304,-8,-8,-14
22,87,301735,-2612,-15913,-3423,-8,-55,-9
22,88,301740,-2651,-15900,-3641,-5,-88,2
22,89,301745,-2675,-15853,-3824,-8,-85,3
22,90,301750,-2668,-15919,-3789,-8,-67,3
22,91,301755,-2703,-15953,-3651,-9,-48,1
22,92,301760,-2762,-15956,-3608,-10,-35,-5
22,93,301765,-2719,-15837,-3629,-11,-26,-6
22,94,301770,-2809,-15747,-3569,-10,-15,-7
22,95,301775,-2788,-15735,-3529,-10,-10,-8
22,96,301780,-2656,-15666,-3483,-13,-8,-7
22,97,301785,-2558,-15604,-3403,-11,-8,-10
22,98,301790,-2465,-15520,-3458,-9,-13,-11
22,99,301795,-2420,-15544,-3659,-4,-21,-9
22,100,301800,-2497,-15554,-3871,-3,-20,-8
22,101,301805,-2696,-15579,-3910,-6,0,-11
22,102,301810,-2833,-15525,-3960,-6,40,-13
22,103,301815,-2789,-15536,-4125,-3,88,-11
22,104,301820,-2653,-15690,-4050,-4,127,-11
22,105,301825,-2519,-15697,-3708,-5,144,-18
22,106,301830,-2579,-15772,-3458,-1,131,-18
22,107,301835,-2712,-15800,-3436,1,96,-17
22,108,301840,-2692,-15777,-3677,2,70,-8
22,109,301845,-2704,-15784,-3765,-2,65,-5
22,110,301850,-2750,-15843,-3735,-2,62,-6
22,111,301855,-2813,-15843,-3654,-2,49,0
22,112,301860,-2823,-15772,-3612,-2,42,2
22,113,301865,-2751,-15773,-3744,2,46,6
22,114,301870,-2638,-15891,-3742,1,53,13
22,115,301875,-2685,-15871,-3519,-8,55,8
22,116,301880,-2623,-15775,-3444,-6,41,10
22,117,301885,-2558,-15729,-3675,-3,36,16
22,118,301890,-2590,-15706,-3835,-4,48,13
22,119,301895,-2615,-15724,-3794,-4,38,12
22,120,301900,-2679,-15687,-3725,-5,-4,11
22,121,301905,-2715,-15590,-3742,-6,-56,16
22,122,301910,-2694,-15608,-3895,-6,-77,18
22,123,301915,-2668,-15749,-3924,-2,-73,15
22,124,301920,-2615,-15744,-3788,-1,-68,10
22,125,301925,-2716,-15732,-3521,-3,-73,8
22,126,301930,-2904,-15794,-3690,1,-80,10
22,127,301935,-2909,-15830,-4029,3,-69,13
22,128,301940,-2788,-15864,-4251,3,-42,15
22,129,301945,-2801,-15867,-4183,-1,-29,13
22,130,301950,-2852,-15878,-4200,-1,-46,8
22,131,301955,-2942,-15879,-4280,0,-54,11
22,132,301960,-2893,-15889,-4220,2,-30,11
22,133,301965,-2773,-15820,-4058,-1,10,11
22,134,301970,-2732,-15842,-3885,1,35,7
22,135,301975,-2853,-15824,-3773,3,35,2
22,136,301980,-2859,-15702,-3863,7,32,0
22,137,301985,-2915,-15681,-3805,5,58,-6
22,138,301990,-2945,-15727,-3764,6,83,-8
22,139,301995,-2668,-15741,-3710,7,85,-3
22,140,302000,-2539,-15704,-3574,8,66,-6
22,141,302005,-2591,-15707,-3499,10,33,-10
22,142,302010,-2678,-15721,-3603,9,5,-6
22,143,302015,-2718,-15729,-3604,9,-15,-1
22,144,302020,-2621,-15780,-3573,10,-23,2
22,145,302025,-2408,-15766,-3601,9,-35,0
22,146,302030,-2470,-15711,-3626,11,-52,-3
22,147,302035,-3038,-15810,-4013,16,-78,-2
22,148,302040,-2926,-15819,-4312,9,-63,0
22,149,302045,-2830,-15886,-4136,5,-26,-3
22,150,302050,-2822,-15904,-3593,0,-11,-9
22,151,302055,-2754,-15974,-3469,4,-28,-8
22,152,302060,-2633,-15968,-3653,8,-32,-7
22,153,302065,-2628,-15898,-3627,3,-4,-7
22,154,302070,-2744,-15871,-3582,5,16,-7
22,155,302075,-2729,-15833,-3769,5,14,-10
22,156,302080,-2774,-15760,-3814,7,22,-13
22,157,302085,-2760,-15679,-3752,7,35,-20
22,158,302090,-2708,-15615,-3713,9,41,-17
22,159,302095,-2662,-15630,-3684,9,29,-17
22,160,302100,-2619,-15644,-3697,9,9,-18
22,161,302105,-2601,-15599,-3652,10,-4,-19
22,162,302110,-2656,-15577,-3564,6,-13,-18
22,163,302115,-2751,-15616,-3498,7,-24,-16
22,164,302120,-2680,-15675,-3369,10,-41,-15
22,165,302125,-2448,-15748,-3301,12,-53,-12
22,166,302130,-2337,-15809,-3298,11,-51,-13
22,167,302135,-2290,-15800,-3404,8,-45,-15
22,168,302140,-2371,-15746,-3461,6,-52,-14
22,169,302145,-2436,-15748,-3554,7,-77,-10
22,170,302150,-2478,-15752,-3605,6,-99,-2
22,171,302155,-2471,-15752,-3673,2,-104,0
22,172,302160,-2643,-15749,-3595,1,-99,-3
22,173,302165,-2741,-15708,-3534,-1,-100,-2
22,174,302170,-2752,-15730,-3558,0,-109,0
22,175,302175,-2742,-15777,-3763,2,-112,2
22,176,302180,-2701,-15770,-3877,0,-94,1
22,177,302185,-2659,-15683,-4076,-1,-64,-2
22,178,302190,-2617,-15746,-4217,0,-26,-3
22,179,302195,-2586,-15837,-4130,-3,13,-5
22,180,302200,-2393,-15924,-3869,-4,48,-2
22,181,302205,-2327,-15830,-3510,-2,75,-4
22,182,302210,-2402,-15797,-3355,1,80,-3
22,183,302215,-2402,-15844,-3408,0,59,0
22,184,302220,-2402,-15789,-3458,-2,32,-2
22,185,302225,-2372,-15706,-3444,0,9,0
22,186,302230,-2457,-15707,-3332,0,-13,0
22,187,302235,-2518,-15601,-3440,0,-36,4
22,188,302240,-2422,-15502,-3612,3,-49,6
22,189,302245,-2512,-15550,-3618,1,-49,5
22,190,302250,-2720,-15621,-3454,4,-62,3
22,191,302255,-2777,-15594,-3541,7,-89,4
22,192,302260,-2763,-15564,-3794,8,-99,7
22,193,302265,-2755,-15659,-3878,8,-94,6
22,194,302270,-2781,-15806,-3731,6,-94,4
22,195,302275,-2724,-15881,-3728,5,-107,8
22,196,302280,-2645,-15884,-3848,10,-109,7
22,197,302285,-2655,-15857,-3725,7,-84,0
22,198,302290,-2722,-15853,-3458,5,-68,-1
22,199,302295,-2556,-15833,-3554,9,-72,0
22,200,302300,-2330,-15845,-3749,8,-70,5
22,201,302305,-2252,-15907,-3927,8,-57,6
22,202,302310,-2382,-15925,-3978,6,-43,2
22,203,302315,-2581,-15815,-4109,5,-38,2
22,204,302320,-2659,-15734,-4176,3,-22,6
22,205,302325,-2691,-15697,-3944,-2,20,6
22,206,302330,-2589,-15675,-3749,1,53,6
22,207,302335,-2503,-15758,-3864,3,67,6
22,208,302340,-2519,-15755,-3854,5,60,1
22,209,302345,-2614,-15632,-3644,2,39,0
22,210,302350,-2715,-15619,-3686,5,23,0
22,211,302355,-2744,-15675,-3781,8,40,-1
22,212,302360,-2759,-15725,-3687,3,68,-1
22,213,302365,-2697,-15728,-3462,2,78,-3
22,214,302370,-2523,-15724,-3544,5,55,3
22,215,302375,-2580,-15766,-3765,10,36,1
22,216,302380,-2639,-15792,-3864,9,19,-2
22,217,302385,-2622,-15690,-3758,5,-11,1
22,218,302390,-2608,-15685,-3837,8,-49,4
22,219,302395,-2688,-15738,-4021,9,-66,1
22,220,302400,-2869,-15595,-3825,7,-50,-3
22,221,302405,-2873,-15538,-3632,6,-59,-3
22,222,302410,-2863,-15572,-3792,9,-87,-2
22,223,302415,-2745,-15667,-4142,8,-108,4
22,224,302420,-2651,-15606,-4139,5,-101,3
22,225,302425,-2752,-15569,-4101,3,-96,2
22,226,302430,-2911,-15656,-4269,4,-87,5
22,227,302435,-2928,-15689,-4417,-3,-57,7
22,228,302440,-2955,-15677,-4090,-4,-3,6
22,229,302445,-3002,-15663,-3718,-4,37,7
22,230,302450,-2944,-15673,-3653,1,57,8
22,231,302455,-2929,-15827,-3671,5,72,6
22,232,302460,-2884,-15965,-3538,-1,82,3
22,233,302465,-2635,-16003,-3423,0,74,-1
22,234,302470,-2508,-15869,-3280,2,49,-3
22,235,302475,-2642,-15794,-3376,3,8,-6
22,236,302480,-2719,-15791,-3687,4,-19,-5
22,237,302485,-2765,-15794,-3831,4,-14,-3
22,238,302490,-2754,-15756,-3725,1,-1,-1
22,239,302495,-2701,-15777,-3616,-2,5,0
22,240,302500,-2611,-15716,-3547,-2,-1,-1
22,241,302505,-2690,-15695,-3652,3,-15,-4
22,242,302510,-2839,-15761,-3860,5,-25,-1
22,243,302515,-2930,-15747,-3871,3,-25,1
22,244,302520,-2915,-15695,-3820,1,-19,-1
22,245,302525,-2825,-15704,-3815,2,-18,-1
22,246,302530,-2707,-15693,-3882,2,-8,-2
22,247,302535,-2719,-15694,-3936,2,1,-3
22,248,302540,-2866,-15789,-3903,4,6,-7
22,249,302545,-2913,-15797,-3850,2,4,-6
22,250,302550,-2755,-15772,-3865,1,4,0
22,251,302555,-2638,-15749,-3730,0,4,-1
22,252,302560,-2674,-15769,-3668,2,-7,0
22,253,302565,-2722,-15883,-3914,5,-21,-3
22,254,302570,-2646,-15834,-3990,5,-14,-3
22,255,302575,-2524,-15707,-3799,1,7,-7
22,256,302580,-2448,-15756,-3743,4,16,-4
22,257,302585,-2449,-15836,-3837,6,14,-4
22,258,302590,-2669,-15772,-3801,6,10,-9
22,259,302595,-2863,-15670,-3556,6,5,-10
22,260,302600,-2823,-15636,-3471,7,1,-5
22,261,302605,-2738,-15689,-3574,6,0,-4
22,262,302610,-2706,-15741,-3704,7,-7,-2
22,263,302615,-2691,-15640,-3736,5,-24,-8
22,264,302620,-2728,-15654,-3720,4,-35,-10
22,265,302625,-2750,-15764,-3729,5,-36,-4
22,266,302630,-2697,-15797,-3726,6,-31,0
22,267,302635,-2629,-15806,-3839,6,-31,0
22,268,302640,-2614,-15725,-3878,6,-26,-1
22,269,302645,-2756,-15722,-3800,6,-12,-5
22,270,302650,-2854,-15747,-3790,3,12,-4
22,271,302655,-2774,-15685,-3656,3,40,-4
22,272,302660,-2649,-15655,-3606,3,53,-9
22,273,302665,-2528,-15773,-3595,6,44,-8
22,274,302670,-2450,-15777,-3652,5,25,-9
22,275,302675,-2426,-15691,-3581,2,4,-8
22,276,302680,-2380,-15633,-3596,2,-18,-5
22,277,302685,-2378,-15683,-3723,4,-30,-5
22,278,302690,-2496,-15674,-3742,0,-30,-9
22,279,302695,-2631,-15736,-3503,-4,-25,-12
22,280,302700,-2612,-15754,-3254,-2,-20,-8
22,281,302705,-2561,-15798,-3361,4,-13,-6
22,282,302710,-2666,-15858,-3623,5,-18,-4
22,283,302715,-2817,-15831,-3756,2,-25,-9
22,284,302720,-2886,-15755,-3787,-1,-31,-5
22,285,302725,-2964,-15782,-3907,-1,-30,-5
22,286,302730,-2998,-15846,-3969,2,-16,-4
22,287,302735,-2943,-15858,-3830,2,-6,-2
22,288,302740,-2807,-15807,-3670,2,-7,-2
22,289,302745,-2698,-15756,-3612,1,-8,-2
22,290,302750,-2582,-15813,-3550,4,4,4
22,291,302755,-2484,-15804,-3361,4,19,3
22,292,302760,-2416,-15768,-3514,3,19,-1
22,293,302765,-2304,-15748,-3554,0,13,2
22,294,302770,-2326,-15693,-3381,-1,0,-1
22,295,302775,-2349,-15779,-3429,3,-22,2
22,296,302780,-2352,-15785,-3680,3,-34,4
22,297,302785,-2477,-15789,-3756,3,-26,3
22,298,302790,-2668,-15783,-3654,-2,-11,-1
22,299,302795,-2772,-15744,-3616,-3,-7,-2
22,300,302800,-2842,-15723,-3809,-3,-12,-2
22,301,302805,-3029,-15777,-4092,-1,-17,-3
22,302,302810,-3185,-15780,-4054,-5,-12,-4
22,303,302815,-3173,-15647,-3721,-6,-13,-8
22,304,302820,-3066,-15638,-3602,-2,-20,-2
22,305,302825,-2926,-15808,-3749,2,-20,2
22,306,302830,-2727,-15822,-3775,0,-10,1
22,307,302835,-2659,-15798,-3690,0,-5,0
22,308,302840,-2666,-15832,-3705,1,-11,1
22,309,302845,-2639,-15783,-3867,0,-17,2
22,310,302850,-2590,-15783,-3768,0,-15,1
22,311,302855,-2526,-15733,-3556,0,-23,2
22,312,302860,-2574,-15688,-3600,2,-42,0
22,313,302865,-2676,-15698,-3820,4,-52,1
22,314,302870,-2751,-15666,-3837,4,-50,-1
22,315,302875,-2822,-15673,-3653,1,-36,-2
22,316,302880,-2698,-15727,-3630,1,-28,-4
22,317,302885,-2616,-15751,-3581,4,-21,-4
22,318,302890,-2588,-15703,-3660,7,-14,-7
22,319,302895,-2608,-15643,-3878,6,-20,-5
22,320,302900,-2701,-15673,-4063,6,-31,-7
22,321,302905,-2784,-15687,-3958,1,-32,-10
22,322,302910,-2979,-15705,-3813,0,-34,-9
22,323,302915,-2948,-15767,-3821,-3,-38,-7
22,324,302920,-2818,-15755,-3759,0,-35,-4
22,325,302925,-2729,-15756,-3506,-2,-35,-4
22,326,302930,-2742,-15784,-3322,-3,-42,-4
22,327,302935,-2789,-15836,-3318,3,-50,-4
22,328,302940,-2756,-15852,-3463,5,-49,-2
22,329,302945,-2602,-15850,-3585,2,-46,1
22,330,302950,-2630,-15787,-3667,2,-35,1
22,331,302955,-2822,-15804,-3863,7,-32,2
22,332,302960,-3019,-15855,-4147,7,-31,3
22,333,302965,-3146,-15880,-3995,2,-20,2
22,334,302970,-3222,-15865,-3619,-1,-12,1
22,335,302975,-3108,-15949,-3474,5,-16,5
22,336,302980,-2962,-16009,-3551,9,-22,6
22,337,302985,-2848,-16059,-3673,8,-21,-3
22,338,302990,-2936,-16140,-3504,9,-16,-3
22,339,302995,-3038,-16023,-3242,9,-28,-2
22,340,303000,-3065,-15886,-3330,14,-44,3
22,341,303005,-3029,-15826,-3717,15,-56,2
22,342,303010,-3182,-15864,-3691,14,-64,1
22,343,303015,-3500,-15715,-3442,12,-97,0
22,344,303020,-3611,-15563,-3425,15,-136,7
22,345,303025,-3556,-15535,-3740,18,-141,11
22,346,303030,-3619,-15560,-3771,18,-85,5
22,347,303035,-3612,-15648,-3579,21,-30,4
22,348,303040,-3595,-15553,-3325,20,-4,5
22,349,303045,-3448,-15402,-3376,25,-10,5
22,350,303050,-3441,-15425,-3507,26,-19,6
22,351,303055,-3473,-15581,-3696,27,-41,12
22,352,303060,-3525,-15609,-3703,30,-56,16
22,353,303065,-3690,-15508,-3710,30,-42,19
22,354,303070,-3810,-15552,-3774,33,-4,20
22,355,303075,-3886,-15659,-3448,34,39,23
22,356,303080,-3718,-15631,-2970,35,51,27
22,357,303085,-3477,-15561,-2739,37,24,35
22,358,303090,-3367,-15561,-2904,42,-9,42
22,359,303095,-3247,-15625,-3274,44,-36,53
22,360,303100,-3309,-15543,-3460,40,-50,56
22,361,303105,-3541,-15527,-3418,41,-66,60
22,362,303110,-3819,-15682,-3345,41,-75,68
22,363,303115,-3760,-15679,-3185,43,-50,74
22,364,303120,-3630,-15561,-2942,43,-10,82
22,365,303125,-3578,-15605,-2721,43,2,88
22,366,303130,-3883,-15633,-2791,45,-123,107
22,367,303135,-3880,-15544,-3014,47,-169,120
22,368,303140,-3893,-15460,-3278,49,-166,127
22,369,303145,-3993,-15581,-3575,52,-139,129
22,370,303150,-4129,-15713,-3757,55,-107,132
22,371,303155,-4180,-15654,-3750,50,-66,137
22,372,303160,-4246,-15585,-3590,54,-12,142
22,373,303165,-4179,-15695,-3640,57,32,153
22,374,303170,-3976,-15788,-3655,59,68,158
22,375,303175,-3942,-15692,-3474,57,101,153
22,376,303180,-4100,-15639,-3580,63,119,154
22,377,303185,-4349,-15644,-3922,64,142,162
22,378,303190,-4300,-15519,-4004,59,175,170
22,379,303195,-4063,-15477,-3525,60,202,174
22,380,303200,-4054,-15518,-2934,61,197,178
22,381,303205,-4183,-15557,-2677,61,162,183
22,382,303210,-4167,-15542,-2737,66,131,195
22,383,303215,-4002,-15493,-2790,65,136,203
22,384,303220,-3991,-15490,-2467,68,157,206
22,385,303225,-4006,-15524,-2294,70,129,214
22,386,303230,-3810,-15544,-2441,70,64,231
22,387,303235,-3671,-15572,-2627,69,3,241
22,388,303240,-3825,-15571,-2613,67,-37,245
22,389,303245,-4032,-15548,-2634,68,-83,255
22,390,303250,-4042,-15652,-2782,72,-122,264
22,391,303255,-4027,-15802,-2985,75,-126,272
22,392,303260,-4045,-15830,-3203,74,-98,272
22,393,303265,-4256,-15693,-3220,74,-67,271
22,394,303270,-4632,-15615,-3416,78,-63,280
22,395,303275,-4853,-15702,-3933,80,-71,286
22,396,303280,-4883,-15629,-4026,78,-50,288
22,397,303285,-4866,-15574,-3702,79,-2,286
22,398,303290,-4726,-15651,-3530,83,44,286
22,399,303295,-4533,-15700,-3640,90,79,287
22,400,303300,-4549,-15666,-3509,94,103,284
22,401,303305,-4625,-15595,-3112,94,109,281
22,402,303310,-4596,-15590,-3016,103,103,286
22,403,303315,-4516,-15662,-3168,108,110,292
22,404,303320,-4481,-15614,-3135,107,131,288
22,405,303325,-4485,-15524,-2976,108,131,289
22,406,303330,-4472,-15535,-2899,113,93,291
22,407,303335,-4668,-15541,-2682,114,60,293
22,408,303340,-4817,-15466,-2581,120,37,297
22,409,303345,-4784,-15417,-2650,124,27,302
22,410,303350,-4550,-15460,-2781,124,18,308
22,411,303355,-4383,-15599,-2531,124,-9,308
22,412,303360,-4498,-15665,-2329,128,-56,308
22,413,303365,-4708,-15602,-2579,134,-107,311
22,414,303370,-4796,-15512,-2953,134,-124,315
22,415,303375,-4838,-15573,-3147,137,-126,316
22,416,303380,-4694,-15766,-3083,136,-127,316
22,417,303385,-4736,-15887,-2900,138,-121,316
22,418,303390,-4822,-15773,-3217,145,-118,318
22,419,303395,-5048,-15615,-3358,151,-95,317
22,420,303400,-5327,-15588,-3297,149,-76,314
22,421,303405,-5341,-15665,-3323,150,-70,320
22,422,303410,-5158,-15690,-3509,153,-48,324
22,423,303415,-4995,-15625,-3524,155,7,321
22,424,303420,-5024,-15669,-3298,154,54,316
22,425,303425,-5055,-15724,-2954,159,70,317
22,426,303430,-4848,-15632,-2834,162,71,325
22,427,303435,-4665,-15657,-2868,160,98,329
22,428,303440,-4596,-15600,-2768,158,145,326
22,429,303445,-4569,-15577,-2508,156,156,330
22,430,303450,-4668,-15515,-1873,157,126,340
22,431,303455,-4417,-15545,-2207,166,47,355
22,432,303460,-4449,-15657,-2504,169,41,361
22,433,303465,-4645,-15694,-2327,160,53,364
22,434,303470,-4804,-15761,-2380,158,23,371
22,435,303475,-4845,-15789,-2598,157,-23,382
22,436,303480,-4860,-15883,-2921,160,-42,392
22,437,303485,-4942,-15883,-2855,159,-19,396
22,438,303490,-5011,-15801,-2395,158,6,403
22,439,303495,-4909,-15842,-2518,164,-4,409
22,440,303500,-4939,-15829,-2827,162,-27,415
22,441,303505,-5098,-15659,-2987,167,-41,423
22,442,303510,-5209,-15596,-3294,170,-38,431
22,443,303515,-5311,-15661,-3564,169,6,432
22,444,303520,-5210,-15750,-3478,165,80,431
22,445,303525,-4965,-15767,-3020,163,159,430
22,446,303530,-4892,-15693,-2629,167,201,430
22,447,303535,-4903,-15709,-2610,171,198,431
22,448,303540,-5056,-15637,-2560,172,175,431
22,449,303545,-5229,-15549,-2478,170,136,436
22,450,303550,-5291,-15532,-2469,170,102,445
22,451,303555,-5175,-15593,-2614,173,87,454
22,452,303560,-5039,-15572,-2820,173,104,455
22,453,303565,-4994,-15502,-2917,172,133,453
22,454,303570,-5050,-15572,-2753,175,151,455
22,455,303575,-5035,-15550,-2679,178,137,458
22,456,303580,-4922,-15535,-2811,176,104,465
22,457,303585,-4895,-15560,-2829,172,76,467
22,458,303590,-4902,-15570,-2582,172,58,465
22,459,303595,-5095,-15681,-2581,177,26,464
22,460,303600,-5076,-15790,-2809,181,-2,465
22,461,303605,-5082,-15779,-2856,179,6,467
22,462,303610,-5220,-15750,-2790,178,20,460
22,463,303615,-5295,-15843,-2918,179,18,458
22,464,303620,-5290,-15908,-3057,175,26,456
22,465,303625,-5169,-15855,-3027,172,52,455
22,466,303630,-5085,-15859,-2943,171,94,450
22,467,303635,-5109,-15814,-2845,172,134,447
22,468,303640,-5053,-15694,-2620,170,158,448
22,469,303645,-4983,-15547,-2405,169,160,446
22,470,303650,-5001,-15504,-2507,171,137,445
22,471,303655,-4915,-15362,-2737,169,103,445
22,472,303660,-4926,-15233,-2783,168,65,445
22,473,303665,-5127,-15169,-2799,164,29,443
22,474,303670,-5065,-15257,-3061,166,11,443
22,475,303675,-4830,-15203,-3224,164,25,441
22,476,303680,-4649,-15187,-3012,160,60,434
22,477,303685,-4664,-15215,-2551,156,75,423
22,478,303690,-4785,-15268,-2221,160,52,421
22,479,303695,-4818,-15290,-2546,164,26,424
22,480,303700,-4589,-15289,-3159,161,37,424
22,481,303705,-4578,-15272,-3106,151,68,414
22,482,303710,-4754,-15331,-2877,145,55,408
22,483,303715,-4887,-15481,-2901,145,14,406
22,484,303720,-4928,-15475,-3152,143,-2,400
22,485,303725,-4898,-15456,-3176,137,40,392
22,486,303730,-4770,-15458,-3102,136,83,388
22,487,303735,-4529,-15571,-3102,136,84,384
22,488,303740,-4501,-15595,-3194,137,67,379
22,489,303745,-4495,-15537,-3196,135,46,372
22,490,303750,-4453,-15387,-3240,136,31,364
22,491,303755,-4514,-15329,-3305,136,14,360
22,492,303760,-4548,-15391,-3512,134,-1,352
22,493,303765,-4517,-15408,-3707,129,8,342
22,494,303770,-4442,-15307,-3608,125,47,327
22,495,303775,-4283,-15266,-3260,122,88,317
22,496,303780,-4186,-15326,-3117,122,96,306
22,497,303785,-4143,-15373,-3040,117,83,296
22,498,303790,-4142,-15238,-3019,109,60,286
22,499,303795,-4082,-15202,-2928,108,49,283
22,500,303800,-4084,-15332,-3026,106,42,273
22,501,303805,-3958,-15361,-3133,98,30,263
22,502,303810,-3910,-15282,-3232,94,12,254
22,503,303815,-3840,-15193,-3271,92,-11,245
22,504,303820,-3854,-15160,-3249,89,-32,232
22,505,303825,-3920,-15154,-3311,87,-40,221
22,506,303830,-3900,-15240,-3550,87,-35,210
22,507,303835,-3823,-15275,-3728,82,-16,196
22,508,303840,-3741,-15203,-3577,73,5,181
22,509,303845,-3840,-15111,-3369,66,7,168
22,510,303850,-3779,-15145,-3488,64,-9,158
22,511,303855,-3569,-15338,-3787,59,-15,144
22,512,303860,-3517,-15425,-3720,54,10,124
22,513,303865,-3556,-15294,-3288,46,42,94
22,514,303870,-3448,-15224,-3428,39,45,80
22,515,303875,-3390,-15296,-3490,39,56,67
22,516,303880,-3405,-15354,-3402,34,51,50
22,517,303885,-3541,-15249,-3163,24,35,31
22,518,303890,-3490,-15170,-3140,23,10,21
22,519,303895,-3257,-15138,-3304,22,-8,13
22,520,303900,-3202,-15261,-3363,17,-17,-5
22,521,303905,-3276,-15347,-3207,9,-38,-25
22,522,303910,-3222,-15208,-3164,7,-73,-35
22,523,303915,-3188,-15099,-3334,5,-93,-48
22,524,303920,-3271,-15175,-3608,-2,-88,-65
22,525,303925,-3299,-15174,-3758,-12,-75,-85
22,526,303930,-3269,-15175,-3727,-19,-62,-100
22,527,303935,-3065,-15154,-3766,-19,-48,-114
22,528,303940,-2850,-15150,-3680,-23,-34,-132
22,529,303945,-2872,-15223,-3584,-27,-40,-153
22,530,303950,-2984,-15356,-3523,-33,-64,-167
22,531,303955,-2976,-15405,-3502,-37,-78,-182
22,532,303960,-2952,-15449,-3521,-39,-72,-194
22,533,303965,-2933,-15489,-3447,-43,-59,-211
22,534,303970,-2874,-15483,-3368,-50,-64,-228
22,535,303975,-2686,-15602,-3474,-53,-86,-240
22,536,303980,-2613,-15706,-3569,-57,-99,-254
22,537,303985,-2659,-15656,-3555,-65,-93,-273
22,538,303990,-2656,-15585,-3379,-76,-88,-284
22,539,303995,-2669,-15521,-3178,-85,-97,-298
22,540,304000,-2661,-15572,-3144,-87,-112,-309
22,541,304005,-2623,-15655,-3236,-88,-114,-320
22,542,304010,-2392,-15714,-3434,-96,-98,-342
22,543,304015,-2232,-15736,-3704,-102,-85,-354
22,544,304020,-2111,-15780,-3874,-108,-87,-371
22,545,304025,-2318,-15748,-3843,-117,-92,-389
22,546,304030,-2373,-15813,-3908,-127,-102,-404
22,547,304035,-2323,-15920,-3773,-134,-101,-419
22,548,304040,-2210,-15923,-3475,-138,-104,-432
22,549,304045,-2034,-16053,-3450,-138,-126,-446
22,550,304050,-1880,-16183,-3610,-143,-136,-465
22,551,304055,-1766,-16166,-3644,-149,-126,-483
22,552,304060,-1712,-16171,-3712,-155,-126,-497
22,553,304065,-1719,-16190,-3746,-161,-142,-512
22,554,304070,-1761,-16253,-4015,-166,-159,-526
22,555,304075,-1661,-16279,-4257,-171,-136,-541
22,556,304080,-1598,-16293,-4364,-180,-65,-563
22,557,304085,-1617,-16484,-4418,-190,5,-587
22,558,304090,-1377,-16604,-4071,-204,47,-606
22,559,304095,-1068,-16597,-3548,-215,62,-624
22,560,304100,-1065,-16770,-3156,-220,54,-642
22,561,304105,-1181,-16874,-3070,-220,18,-658
22,562,304110,-1268,-16860,-3356,-228,-40,-669
22,563,304115,-1256,-17063,-3639,-233,-100,-678
22,564,304120,-1038,-17207,-3684,-239,-130,-695
22,565,304125,-700,-17273,-3822,-243,-135,-719
22,566,304130,-608,-17259,-4158,-244,-129,-744
22,567,304135,-907,-17314,-4183,-250,-135,-775
22,568,304140,-1327,-17302,-4504,-257,-179,-802
22,569,304145,-1431,-17234,-5043,-262,-189,-819
22,570,304150,-1174,-17338,-5312,-270,-123,-839
22,571,304155,-850,-17440,-4911,-276,-25,-866
22,572,304160,-683,-17503,-4152,-281,40,-898
22,573,304165,-457,-17593,-3934,-280,27,-920
22,574,304170,-35,-17487,-4357,-282,11,-936
22,575,304175,-51,-17446,-4792,-288,31,-969
22,576,304180,-712,-17636,-4923,-297,77,-1009
22,577,304185,-836,-17740,-4923,-309,129,-1033
22,578,304190,-501,-17756,-4759,-319,243,-1052
22,579,304195,-219,-17691,-3975,-323,402,-1077
22,580,304200,-408,-17597,-3007,-325,466,-1112
22,581,304205,-1070,-17448,-2492,-319,345,-1141
22,582,304210,-1513,-17454,-2970,-313,100,-1156
22,583,304215,-1381,-17654,-4227,-313,-93,-1166
22,584,304220,-1222,-17822,-5110,-324,-121,-1195
22,585,304225,-1377,-17840,-5105,-338,-43,-1235
22,586,304230,-794,-17846,-5411,-335,86,-1267
22,587,304235,114,-18144,-5608,-338,180,-1289
22,588,304240,160,-18495,-5060,-347,282,-1330
22,589,304245,-240,-18511,-4876,-349,326,-1351
22,590,304250,-280,-18320,-5189,-352,350,-1359
22,591,304255,-272,-18269,-4854,-362,416,-1374
22,592,304260,-234,-18270,-3596,-364,453,-1394
22,593,304265,-163,-18480,-2593,-358,397,-1410
22,594,304270,-416,-18593,-2453,-345,261,-1418
22,595,304275,-962,-18492,-2571,-345,108,-1430
22,596,304280,-1387,-18429,-2337,-355,-26,-1439
22,597,304285,-1286,-18610,-2642,-356,-140,-1435
22,598,304290,-1041,-18803,-3331,-358,-173,-1447
22,599,304295,1059,-9618,-8424,-390,-132,-1484
22,600,304300,-14884,768,7677,-243,101,-1589
22,601,304305,-5680,-12035,7132,-400,744,-855
22,602,304310,17044,-13776,-19212,-100,-191,-232
22,603,304315,2673,-24461,11816,-278,2339,-1531
22,604,304320,-10461,-20325,9710,-265,-477,-1553
22,605,304325,-1906,-16145,-9007,-71,-3082,-723
22,606,304330,-7298,-13197,-16118,-259,-1668,-1066
22,607,304335,-7281,-17541,-11022,-366,263,-1206
22,608,304340,-2918,-18880,-207,-411,1238,-1226
22,609,304345,-67,-17088,1483,-354,756,-1262
22,610,304350,-929,-17901,-2903,-232,79,-1243
22,611,304355,-3516,-17559,-4272,-264,137,-1292
22,612,304360,-3834,-16055,-1887,-340,466,-1308
22,613,304365,-1968,-16368,-21,-343,440,-1274
22,614,304370,-867,-16895,-1880,-329,76,-1259
22,615,304375,-1758,-18115,-4723,-308,-194,-1200
22,616,304380,-2675,-17370,-5402,-322,-43,-1252
22,617,304385,-3648,-16516,-3479,-329,347,-1286
22,618,304390,-3071,-16248,-1970,-317,487,-1268
22,619,304395,-2218,-16489,-1552,-316,323,-1242
22,620,304400,-1873,-16879,-2210,-317,50,-1226
22,621,304405,-2285,-16844,-2463,-323,-80,-1228
22,622,304410,-3195,-16366,-2547,-321,-85,-1229
22,623,304415,-3597,-15959,-2943,-309,-97,-1214
22,624,304420,-3392,-15853,-3427,-296,-158,-1181
22,625,304425,-3166,-16137,-3823,-293,-200,-1160
22,626,304430,-3206,-16553,-4096,-292,-167,-1151
22,627,304435,-3004,-16308,-3762,-305,-70,-1158
22,628,304440,-2789,-15971,-2745,-315,4,-1145
22,629,304445,-2325,-16123,-2676,-297,-36,-1115
22,630,304450,-2160,-16654,-3328,-286,-91,-1087
22,631,304455,-2182,-16720,-3894,-280,-79,-1078
22,632,304460,-2232,-16472,-3873,-280,-8,-1061
22,633,304465,-1989,-16486,-3646,-276,67,-1037
22,634,304470,-1785,-16591,-3408,-271,121,-1018
22,635,304475,-1673,-16563,-3432,-262,145,-994
22,636,304480,-1399,-16382,-3800,-249,151,-966
22,637,304485,-1125,-16246,-3470,-251,147,-942
22,638,304490,-1257,-15961,-2844,-244,100,-913
22,639,304495,-1188,-15899,-3439,-225,15,-874
22,640,304500,-913,-15930,-4314,-216,11,-844
22,641,304505,-698,-15605,-4245,-223,103,-825
22,642,304510,-667,-15389,-3152,-230,175,-802
22,643,304515,-748,-15403,-2400,-220,148,-766
22,644,304520,-472,-15439,-2866,-202,63,-721
22,645,304525,-228,-15286,-3165,-193,25,-687
22,646,304530,-141,-15085,-2893,-193,-12,-665
22,647,304535,-257,-15272,-2767,-189,-119,-632
22,648,304540,-369,-15449,-3437,-178,-249,-593
22,649,304545,-347,-15440,-4520,-168,-291,-563
22,650,304550,-514,-15427,-4740,-165,-199,-552
22,651,304555,-822,-15537,-4115,-163,-106,-543
22,652,304560,-865,-15650,-3909,-158,-103,-521
22,653,304565,-709,-15599,-4093,-149,-117,-504
22,654,304570,-674,-15544,-4274,-141,-95,-493
22,655,304575,-693,-15462,-4282,-141,-71,-483
22,656,304580,-655,-15488,-3906,-140,-98,-469
22,657,304585,-315,-15558,-4321,-126,-169,-453
22,658,304590,-419,-15772,-4725,-121,-181,-435
22,659,304595,-822,-15394,-3979,-117,-101,-431
22,660,304600,-983,-15320,-3886,-107,-93,-414
22,661,304605,-932,-15277,-4150,-101,-92,-411
22,662,304610,-730,-15219,-4304,-100,-76,-403
22,663,304615,-495,-15158,-4156,-97,-58,-395
22,664,304620,-242,-15071,-4019,-100,-75,-393
22,665,304625,-208,-15100,-3833,-102,-111,-386
22,666,304630,-108,-15175,-3939,-99,-135,-375
22,667,304635,74,-15114,-4026,-101,-115,-370
22,668,304640,180,-14951,-3639,-104,-84,-361
22,669,304645,70,-14835,-3286,-108,-117,-351
22,670,304650,145,-14798,-3496,-104,-200,-338
22,671,304655,234,-14719,-4064,-95,-248,-325
22,672,304660,282,-14825,-4526,-94,-231,-317
22,673,304665,210,-14983,-4313,-105,-193,-313
22,674,304670,340,-14941,-3931,-108,-196,-302
22,675,304675,445,-14912,-3795,-106,-232,-281
22,676,304680,384,-14982,-3992,-102,-252,-272
22,677,304685,117,-14999,-3952,-105,-235,-266
22,678,304690,50,-14932,-3897,-108,-234,-250
22,679,304695,176,-14888,-4302,-103,-249,-239
22,680,304700,112,-15025,-4790,-100,-250,-228
22,681,304705,-37,-15203,-5024,-104,-231,-223
22,682,304710,53,-15353,-5139,-107,-207,-212
22,683,304715,118,-15265,-4995,-106,-163,-202
22,684,304720,100,-15052,-4711,-106,-108,-197
22,685,304725,128,-15007,-4583,-105,-69,-186
22,686,304730,311,-15129,-4635,-104,-62,-174
22,687,304735,452,-15125,-4335,-104,-77,-167
22,688,304740,453,-15099,-4012,-102,-130,-155
22,689,304745,513,-15075,-3849,-100,-210,-137
22,690,304750,689,-15068,-4051,-94,-274,-118
22,691,304755,969,-15178,-4472,-86,-307,-99
22,692,304760,1102,-15199,-4703,-86,-302,-89
22,693,304765,1146,-15067,-4806,-90,-301,-80
22,694,304770,1039,-15095,-5001,-86,-309,-69
22,695,304775,789,-15063,-5161,-86,-313,-61
22,696,304780,591,-15019,-5194,-91,-293,-49
22,697,304785,641,-15026,-5036,-92,-253,-39
22,698,304790,705,-15086,-4922,-91,-212,-33
22,699,304795,676,-15154,-4701,-92,-187,-26
22,700,304800,817,-15173,-4820,-89,-195,-14
22,701,304805,795,-15180,-4707,-91,-193,-3
22,702,304810,1033,-15121,-4834,-87,-216,13
22,703,304815,1271,-15045,-4992,-85,-226,25
22,704,304820,1393,-15114,-5224,-80,-214,36
22,705,304825,1348,-15206,-5375,-74,-180,42
22,706,304830,1339,-15141,-5325,-71,-147,57
22,707,304835,1485,-15034,-5112,-69,-139,72
22,708,304840,1627,-14933,-4901,-68,-144,82
22,709,304845,1681,-15087,-4822,-62,-161,99
22,710,304850,1833,-15263,-5048,-55,-188,114
22,711,304855,1871,-15145,-5420,-55,-196,123
22,712,304860,1605,-15094,-5496,-52,-168,127
22,713,304865,1295,-15046,-5391,-55,-123,132
22,714,304870,1188,-15086,-5238,-54,-67,145
22,715,304875,1092,-15077,-5024,-53,-9,153
22,716,304880,1071,-15026,-4851,-52,19,158
22,717,304885,1091,-14952,-4645,-50,-6,163
22,718,304890,1168,-14938,-4692,-43,-67,173
22,719,304895,1167,-14950,-4803,-38,-121,184
22,720,304900,1249,-14955,-4826,-33,-140,196
22,721,304905,1420,-14953,-5019,-29,-132,205
22,722,304910,1536,-14932,-5077,-24,-119,212
22,723,304915,1482,-14935,-5164,-17,-121,211
22,724,304920,1319,-15041,-5404,-10,-139,216
22,725,304925,1345,-14994,-5535,-10,-144,230
22,726,304930,1401,-14899,-5296,-9,-129,233
22,727,304935,1492,-15115,-5472,-2,-126,238
22,728,304940,1587,-15286,-5719,3,-101,238
22,729,304945,1568,-15235,-5470,-2,-60,235
22,730,304950,1490,-15224,-5129,0,-27,240
22,731,304955,1474,-15336,-4907,0,-10,245
22,732,304960,1560,-15367,-4657,4,-5,246
22,733,304965,1723,-15657,-4871,14,-33,260
22,734,304970,1659,-15710,-5075,14,-46,262
22,735,304975,1555,-15620,-5115,18,-56,265
22,736,304980,1586,-15517,-5206,25,-61,272
22,737,304985,1636,-15589,-5326,25,-50,276
22,738,304990,1648,-15689,-5297,26,-27,277
22,739,304995,1720,-15651,-5187,28,-6,276
22,740,305000,1565,-15535,-5150,33,-3,275
22,741,305005,1203,-15472,-5291,33,-23,278
22,742,305010,1050,-15439,-5498,34,-44,278
22,743,305015,1217,-15496,-5493,33,-41,283
22,744,305020,1426,-15447,-5182,32,-28,286
22,745,305025,1667,-15472,-5148,36,-34,288
22,746,305030,1798,-15509,-5177,42,-32,291
22,747,305035,1821,-15539,-5143,41,-15,292
22,748,305040,1646,-15487,-4977,44,14,291
22,749,305045,1628,-15396,-4992,48,52,291
22,750,305050,1697,-15393,-4936,52,85,295
22,751,305055,1846,-15367,-4805,48,87,298
22,752,305060,1887,-15353,-4557,50,52,298
22,753,305065,1965,-15435,-4549,55,-6,306
22,754,305070,2026,-15496,-4593,57,-52,311
22,755,305075,2152,-15449,-4737,59,-78,316
22,756,305080,2221,-15479,-5136,63,-95,315
22,757,305085,1965,-15550,-5619,61,-97,313
22,758,305090,1643,-15608,-5913,59,-80,314
22,759,305095,1542,-15586,-5832,54,-21,315
22,760,305100,1562,-15578,-5668,54,48,319
22,761,305105,1686,-15726,-5470,57,116,317
22,762,305110,1730,-15810,-5057,57,151,313
22,763,305115,1819,-15635,-4862,62,141,303
22,764,305120,1795,-15454,-4824,66,121,304
22,765,305125,1913,-15458,-5001,70,105,313
22,766,305130,2202,-15419,-5114,72,99,316
22,767,305135,2372,-15455,-5026,73,91,317
22,768,305140,2363,-15489,-4775,73,66,318
22,769,305145,2314,-15470,-4535,73,29,320
22,770,305150,2304,-15492,-4565,78,-19,327
22,771,305155,2443,-15546,-4964,78,-56,331
22,772,305160,2398,-15595,-5006,77,-57,326
22,773,305165,2216,-15549,-5016,75,-64,325
22,774,305170,2031,-15613,-5401,77,-80,327
22,775,305175,1926,-15551,-5419,76,-63,325
22,776,305180,2054,-15446,-5222,76,-18,325
22,777,305185,2329,-15676,-5206,80,28,324
22,778,305190,2406,-15732,-5142,77,50,316
22,779,305195,2228,-15644,-4936,74,32,311
22,780,305200,1975,-15512,-5247,78,-24,313
22,781,305205,1874,-15498,-5933,79,-48,312
22,782,305210,1874,-15552,-6216,81,3,308
22,783,305215,1971,-15629,-5965,80,76,299
22,784,305220,1924,-15647,-5460,82,124,293
22,785,305225,2002,-15683,-5524,87,136,298
22,786,305230,2093,-15609,-5378,84,181,291
22,787,305235,2334,-15645,-5244,87,204,288
22,788,305240,2384,-15802,-4911,88,200,281
22,789,305245,2423,-15807,-4828,89,151,276
22,790,305250,2396,-15797,-5160,90,87,275
22,791,305255,2090,-15695,-5478,90,64,270
22,792,305260,2057,-15590,-5549,85,81,265
22,793,305265,2073,-15548,-5424,84,120,258
22,794,305270,2119,-15506,-5508,85,153,246
22,795,305275,2139,-15615,-5438,85,179,241
22,796,305280,2242,-15628,-5247,80,172,233
22,797,305285,2138,-15484,-4941,77,149,226
22,798,305290,2018,-15525,-4829,81,103,223
22,799,305295,1934,-15670,-4811,79,74,217
22,800,305300,1962,-15665,-4869,77,41,214
22,801,305305,2135,-15690,-5152,80,7,211
22,802,305310,2070,-15767,-5270,79,-6,201
22,803,305315,1904,-15901,-5192,75,-13,190
22,804,305320,1891,-15857,-5313,74,-4,188
22,805,305325,1954,-15801,-5492,75,35,184
22,806,305330,1990,-15886,-5167,65,99,164
22,807,305335,2009,-15928,-5254,65,61,155
22,808,305340,1925,-15941,-5476,62,37,148
22,809,305345,1826,-15972,-5356,59,43,144
22,810,305350,1811,-15864,-5078,57,52,135
22,811,305355,1874,-15926,-4981,57,48,127
22,812,305360,1915,-15979,-4912,55,33,124
22,813,305365,1960,-16007,-4998,54,4,122
22,814,305370,1870,-15979,-4983,49,-5,111
22,815,305375,1695,-15914,-4857,45,4,108
22,816,305380,1794,-15829,-4933,44,9,110
22,817,305385,1918,-15790,-4978,41,12,108
22,818,305390,1891,-15757,-4916,35,-7,99
22,819,305395,1669,-15598,-4913,32,-55,93
22,820,305400,1500,-15557,-5375,32,-103,96
22,821,305405,1438,-15503,-5412,27,-95,92
22,822,305410,1543,-15539,-5235,28,-60,86
22,823,305415,1723,-15617,-5210,32,-32,84
22,824,305420,1770,-15725,-5307,31,-12,75
22,825,305425,1704,-15582,-5382,25,6,64
22,826,305430,1679,-15542,-5464,25,13,67
22,827,305435,1703,-15566,-5452,23,18,65
22,828,305440,1676,-15541,-5138,17,39,61
22,829,305445,1730,-15528,-5187,19,44,59
22,830,305450,1724,-15530,-5351,21,45,54
22,831,305455,1786,-15499,-5215,18,56,53
22,832,305460,1736,-15586,-5030,16,58,50
22,833,305465,1643,-15662,-5106,19,39,48
22,834,305470,1524,-15661,-5180,19,16,42
22,835,305475,1541,-15578,-5234,12,-2,40
22,836,305480,1605,-15573,-5082,9,-1,40
22,837,305485,1674,-15680,-5050,11,-7,40
22,838,305490,1753,-15778,-5200,13,-1,39
22,839,305495,1897,-15822,-5120,12,17,39
22,840,305500,1887,-15763,-4874,9,30,37
22,841,305505,1790,-15810,-4935,11,22,32
22,842,305510,1641,-15828,-4975,14,7,29
22,843,305515,1490,-15737,-4902,12,-13,27
22,844,305520,1326,-15547,-4990,10,-35,24
22,845,305525,1211,-15494,-5113,11,-45,24
22,846,305530,1219,-15510,-5310,10,-51,23
22,847,305535,1283,-15503,-5272,8,-49,19
22,848,305540,1277,-15484,-5292,10,-45,17
22,849,305545,1412,-15451,-5374,11,-31,16
22,850,305550,1499,-15424,-5374,8,1,12
22,851,305555,1303,-15559,-5297,10,18,5
22,852,305560,1098,-15556,-5420,8,19,0
22,853,305565,1031,-15501,-5417,4,37,0
22,854,305570,977,-15419,-5164,3,64,-4
22,855,305575,970,-15482,-4959,3,76,-5
22,856,305580,1170,-15539,-4808,3,83,-4
22,857,305585,1296,-15575,-4753,4,69,-7
22,858,305590,1254,-15536,-4597,2,48,-10
22,859,305595,1167,-15610,-4717,5,13,-9
22,860,305600,1133,-15647,-4915,4,18,-5
22,861,305605,1189,-15631,-5038,4,55,-6
22,862,305610,1110,-15588,-4971,3,76,-10
22,863,305615,1034,-15575,-4875,-1,64,-9
22,864,305620,1055,-15573,-4711,-3,31,-5
22,865,305625,1179,-15559,-4540,-5,-11,-5
22,866,305630,1140,-15565,-4476,-2,-36,-5
22,867,305635,986,-15569,-4613,0,-44,-7
22,868,305640,921,-15623,-4731,-3,-48,-7
22,869,305645,1034,-15475,-4848,-4,-55,-4
22,870,305650,1006,-15412,-4949,-6,-51,-1
22,871,305655,940,-15508,-5150,-3,-53,1
22,872,305660,960,-15535,-5179,-2,-44,0
22,873,305665,972,-15587,-5126,-5,-37,0
22,874,305670,837,-15627,-5006,-4,-27,-1
22,875,305675,781,-15666,-5062,-1,-23,1
22,876,305680,735,-15743,-5198,-3,-11,-1
22,877,305685,783,-15738,-5183,0,14,0
22,878,305690,855,-15759,-5140,3,28,1
22,879,305695,771,-15789,-5082,0,20,0
22,880,305700,960,-15785,-5129,4,16,9
22,881,305705,1118,-15807,-5046,8,27,10
22,882,305710,1088,-15831,-5011,10,25,13
22,883,305715,832,-15800,-5127,10,8,11
22,884,305720,738,-15701,-5193,10,-5,13
22,885,305725,699,-15708,-5246,11,-1,15
22,886,305730,680,-15758,-5140,8,15,12
22,887,305735,720,-15773,-4817,9,22,11
22,888,305740,832,-15696,-4519,9,4,16
22,889,305745,960,-15621,-4504,12,-29,21
22,890,305750,960,-15589,-4602,14,-53,23
22,891,305755,969,-15575,-4730,16,-68,26
22,892,305760,939,-15525,-4890,20,-75,32
22,893,305765,890,-15558,-5192,18,-82,35
22,894,305770,858,-15537,-5117,11,-71,32
22,895,305775,830,-15482,-5028,10,-50,27
22,896,305780,785,-15501,-5077,11,-21,29
22,897,305785,773,-15427,-5047,10,9,32
22,898,305790,762,-15452,-5084,7,25,28
22,899,305795,615,-15481,-4838,8,29,28
22,900,305800,447,-15513,-4914,8,12,32
22,901,305805,411,-15563,-5274,10,5,33
22,902,305810,395,-15563,-5277,11,23,38
22,903,305815,401,-15547,-4977,6,35,36
22,904,305820,566,-15658,-4920,8,26,31
22,905,305825,800,-15714,-5010,11,31,28
22,906,305830,847,-15783,-5156,13,50,26
22,907,305835,722,-15776,-5139,12,67,28
22,908,305840,653,-15748,-4890,9,74,29
22,909,305845,738,-15764,-4708,9,62,33
22,910,305850,792,-15853,-4517,8,50,33
22,911,305855,916,-15830,-4505,8,33,36
22,912,305860,976,-15676,-4508,7,23,34
22,913,305865,809,-15641,-4491,6,1,34
22,914,305870,690,-15625,-4652,5,-27,40
22,915,305875,734,-15597,-4969,3,-34,42
22,916,305880,631,-15596,-5068,4,-10,43
22,917,305885,578,-15599,-5043,2,1,44
22,918,305890,630,-15562,-4822,0,-5,44
22,919,305895,626,-15486,-4634,0,-15,40
22,920,305900,646,-15508,-4718,4,-30,44
22,921,305905,707,-15608,-4993,3,-31,43
22,922,305910,720,-15543,-4879,2,-5,36
22,923,305915,754,-15538,-4780,1,2,41
22,924,305920,865,-15641,-4989,6,-17,46
22,925,305925,785,-15685,-5199,1,-35,45
22,926,305930,663,-15688,-5089,-1,-42,44
22,927,305935,598,-15631,-4923,1,-57,43
22,928,305940,479,-15682,-4841,1,-56,41
22,929,305945,550,-15704,-4898,1,-43,43
22,930,305950,732,-15694,-4937,2,-14,46
22,931,305955,705,-15630,-4840,-1,7,40
22,932,305960,527,-15595,-4722,0,0,35
22,933,305965,354,-15603,-4687,2,-33,41
22,934,305970,410,-15583,-4847,4,-64,45
22,935,305975,325,-15590,-4731,0,-56,43
22,936,305980,374,-15617,-4370,-2,-52,44
22,937,305985,575,-15713,-4401,1,-67,48
22,938,305990,857,-15742,-4731,1,-81,45
22,939,305995,710,-15717,-4979,0,-82,41
22,940,306000,429,-15691,-5079,0,-86,40
22,941,306005,543,-15691,-5117,-1,-83,47
22,942,306010,962,-15737,-5321,-2,-59,51
22,943,306015,1069,-15814,-5197,-2,-14,45
22,944,306020,770,-15883,-4947,-3,-2,40
22,945,306025,432,-15751,-4987,-3,-24,41
22,946,306030,208,-15620,-4914,-5,-21,44
22,947,306035,255,-15624,-4906,-3,6,48
22,948,306040,714,-15694,-4838,0,48,48
22,949,306045,1125,-15777,-4686,1,75,42
22,950,306050,1129,-15836,-4566,0,50,42
22,951,306055,1082,-15774,-4926,1,-22,52
22,952,306060,530,-15661,-5342,2,-12,49
22,953,306065,430,-15649,-5211,4,21,52
22,954,306070,435,-15563,-5212,3,42,55
22,955,306075,373,-15617,-5081,6,52,56
22,956,306080,403,-15679,-5029,9,49,58
22,957,306085,461,-15626,-4790,9,49,57
22,958,306090,805,-15545,-4726,15,45,61
22,959,306095,898,-15576,-4767,19,36,60
22,960,306100,565,-15618,-4793,19,17,52
22,961,306105,338,-15576,-5204,22,-16,51
22,962,306110,199,-15554,-5361,19,-2,54
22,963,306115,182,-15516,-5224,13,34,54
22,964,306120,281,-15604,-4815,15,63,49
22,965,306125,455,-15731,-4444,17,41,51
22,966,306130,621,-15831,-4383,17,-7,52
22,967,306135,767,-15906,-4310,23,-47,55
22,968,306140,1022,-15820,-4510,24,-73,55
22,969,306145,920,-15698,-4861,29,-80,48
22,970,306150,550,-15681,-5160,29,-80,41
22,971,306155,348,-15690,-5317,25,-75,48
22,972,306160,438,-15553,-5299,21,-50,49
22,973,306165,480,-15593,-5183,24,-6,51
22,974,306170,465,-15646,-4842,23,37,48
22,975,306175,463,-15563,-4385,20,40,46
22,976,306180,581,-15577,-4393,23,-13,51
22,977,306185,645,-15591,-4456,25,-58,56
22,978,306190,695,-15639,-4813,26,-92,57
22,979,306195,568,-15531,-4945,22,-86,45
22,980,306200,450,-15528,-5121,24,-78,43
22,981,306205,381,-15552,-5240,23,-56,48
22,982,306210,547,-15554,-5220,18,-13,48
22,983,306215,593,-15583,-4973,16,25,46
22,984,306220,473,-15694,-4800,17,22,47
22,985,306225,296,-15705,-4822,13,-4,45
22,986,306230,164,-15667,-4952,14,-21,47
22,987,306235,115,-15663,-5092,14,-11,45
22,988,306240,230,-15667,-5193,12,16,46
22,989,306245,384,-15699,-5057,10,35,47
22,990,306250,499,-15782,-4901,8,29,44
22,991,306255,626,-15780,-4763,8,12,43
22,992,306260,685,-15672,-4810,10,3,45
22,993,306265,621,-15630,-4846,12,14,44
22,994,306270,550,-15595,-4636,9,22,45
22,995,306275,638,-15596,-4599,8,6,49
22,996,306280,767,-15667,-4771,10,-16,53
22,997,306285,745,-15695,-4911,7,-19,52
22,998,306290,636,-15728,-4941,6,-10,55
22,999,306295,513,-15703,-4959,6,-2,55
