event_id,seq,ts_ms,ax,ay,az,gx,gy,gz
11,0,103710,-5022,-15889,401,-124,416,60
11,1,103715,-4956,-15753,314,-127,361,63
11,2,103720,-4869,-15642,270,-132,297,67
11,3,103725,-4791,-15580,304,-136,227,72
11,4,103730,-4736,-15503,136,-136,150,80
11,5,103735,-4685,-15469,-148,-137,90,86
11,6,103740,-4774,-15436,-231,-139,65,91
11,7,103745,-4743,-15394,-373,-143,55,93
11,8,103750,-4794,-15357,-510,-145,60,93
11,9,103755,-4844,-15396,-465,-148,79,93
11,10,103760,-4972,-15364,-385,-150,89,95
11,11,103765,-5004,-15362,-518,-152,94,95
11,12,103770,-5029,-15341,-408,-158,107,95
11,13,103775,-5046,-15312,-269,-157,92,98
11,14,103780,-5260,-15360,-232,-160,54,94
11,15,103785,-5628,-15438,-370,-156,3,95
11,16,103790,-5811,-15494,-477,-154,-49,99
11,17,103795,-5928,-15493,-465,-158,-96,99
11,18,103800,-6020,-15491,-533,-153,-147,97
11,19,103805,-6069,-15493,-639,-150,-206,94
11,20,103810,-6049,-15517,-837,-147,-275,93
11,21,103815,-5921,-15529,-998,-141,-329,92
11,22,103820,-5851,-15565,-1048,-137,-364,88
11,23,103825,-5819,-15605,-1169,-134,-383,84
11,24,103830,-5790,-15603,-1383,-131,-384,81
11,25,103835,-5686,-15640,-1562,-128,-367,75
11,26,103840,-5664,-15686,-1748,-120,-340,69
11,27,103845,-5669,-15799,-2001,-114,-303,64
11,28,103850,-5668,-15799,-2138,-110,-254,61
11,29,103855,-5539,-15747,-2226,-105,-208,56
11,30,103860,-5542,-15724,-2275,-100,-147,47
11,31,103865,-5546,-15701,-2409,-96,-84,42
11,32,103870,-5541,-15743,-2411,-90,-22,35
11,33,103875,-5541,-15777,-2311,-83,31,30
11,34,103880,-5540,-15877,-2227,-76,72,27
11,35,103885,-5499,-16047,-2082,-67,112,24
11,36,103890,-5490,-16133,-1993,-64,141,19
11,37,103895,-5592,-16138,-2059,-55,160,15
11,38,103900,-5731,-16152,-2017,-51,175,12
11,39,103905,-5800,-16099,-2023,-43,183,12
11,40,103910,-5755,-16072,-1941,-38,190,7
11,41,103915,-5557,-16069,-1891,-32,192,4
11,42,103920,-5467,-16150,-1827,-22,193,4
11,43,103925,-5373,-16156,-1712,-15,199,4
11,44,103930,-5095,-16152,-1689,-11,202,4
11,45,103935,-4863,-16107,-1571,-9,230,1
11,46,103940,-4898,-16037,-1432,-5,261,-2
11,47,103945,-4871,-15891,-1481,-2,284,-1
11,48,103950,-4674,-15712,-1574,-4,303,4
11,49,103955,-4522,-15535,-1510,-5,332,6
11,50,103960,-4632,-15381,-1213,-4,351,2
11,51,103965,-4685,-15313,-1144,0,340,8
11,52,103970,-4619,-15219,-1166,0,325,16
11,53,103975,-4966,-15216,-995,2,312,16
11,54,103980,-5237,-15159,-924,1,288,21
11,55,103985,-5309,-15136,-784,-1,265,25
11,56,103990,-5379,-15043,-784,-1,255,28
11,57,103995,-5541,-14961,-827,-1,259,24
11,58,104000,-5776,-14830,-899,-7,263,21
11,59,104005,-5761,-14700,-918,-10,251,20
11,60,104010,-5679,-14612,-987,-11,238,22
11,61,104015,-5689,-14648,-1118,-10,230,19
11,62,104020,-5748,-14691,-1188,-15,222,16
11,63,104025,-5646,-14641,-1277,-15,209,14
11,64,104030,-5509,-14647,-1414,-14,208,12
11,65,104035,-5433,-14591,-1491,-17,223,8
11,66,104040,-5469,-14534,-1392,-20,244,3
11,67,104045,-5428,-14454,-1350,-21,256,2
11,68,104050,-5234,-14345,-1440,-23,266,3
11,69,104055,-4885,-14334,-1655,-25,286,1
11,70,104060,-4870,-14358,-1628,-26,310,-4
11,71,104065,-5098,-14383,-1440,-28,310,-4
11,72,104070,-5252,-14347,-1513,-24,273,-1
11,73,104075,-5171,-14284,-1740,-21,240,4
11,74,104080,-5204,-14111,-1835,-23,225,0
11,75,104085,-5316,-13988,-1812,-22,196,-2
11,76,104090,-5537,-13822,-1714,-19,137,-1
11,77,104095,-5571,-13665,-1991,-14,62,3
11,78,104100,-5495,-13604,-2352,-12,17,5
11,79,104105,-5561,-13546,-2435,-8,7,-2
11,80,104110,-5547,-13460,-2419,-3,-8,-5
11,81,104115,-5347,-13389,-2295,-2,-27,-5
11,82,104120,-5183,-13442,-2461,5,-35,-6
11,83,104125,-5123,-13552,-2570,10,-11,-12
11,84,104130,-5150,-13559,-2537,9,23,-16
11,85,104135,-5162,-13570,-2324,9,46,-17
11,86,104140,-5222,-13689,-2212,11,50,-21
11,87,104145,-5257,-13846,-2227,14,54,-23
11,88,104150,-5245,-13976,-2183,15,65,-25
11,89,104155,-5247,-14075,-1969,16,59,-28
11,90,104160,-5272,-14185,-1907,21,21,-30
11,91,104165,-5195,-14260,-2014,25,-44,-30
11,92,104170,-5090,-14385,-2138,29,-119,-26
11,93,104175,-5057,-14458,-2113,36,-197,-25
11,94,104180,-5098,-14484,-2198,41,-293,-23
11,95,104185,-5061,-14546,-2425,51,-396,-18
11,96,104190,-5089,-14503,-2652,57,-485,-16
11,97,104195,-5137,-14583,-2754,68,-550,-14
11,98,104200,-5118,-14774,-2845,72,-595,-12
11,99,104205,-4990,-14976,-3075,80,-623,-10
11,100,104210,-4914,-15150,-3482,86,-625,-11
11,101,104215,-5058,-15205,-3587,92,-598,-16
11,102,104220,-5218,-15249,-3900,98,-572,-23
11,103,104225,-5287,-15297,-4137,104,-520,-22
11,104,104230,-5244,-15372,-4113,110,-443,-26
11,105,104235,-5237,-15504,-4005,114,-347,-35
11,106,104240,-5324,-15642,-3860,118,-233,-42
11,107,104245,-5308,-15856,-3789,123,-110,-52
11,108,104250,-5273,-15950,-3565,121,31,-60
11,109,104255,-5300,-16027,-3144,119,165,-71
11,110,104260,-5335,-16016,-2884,120,246,-79
11,111,104265,-5339,-16023,-2888,121,298,-82
11,112,104270,-5257,-15996,-2662,121,363,-84
11,113,104275,-5233,-15930,-2025,120,420,-89
11,114,104280,-5250,-15840,-1645,119,445,-92
11,115,104285,-5253,-15809,-1521,119,440,-94
11,116,104290,-5238,-15710,-1251,117,421,-91
11,117,104295,-5033,-15606,-1014,116,383,-90
11,118,104300,-4970,-15525,-917,113,339,-89
11,119,104305,-4909,-15468,-901,107,284,-87
11,120,104310,-4730,-15561,-708,103,201,-80
11,121,104315,-4651,-15544,-364,103,92,-73
11,122,104320,-4664,-15646,-548,107,-36,-64
11,123,104325,-4747,-15772,-930,101,-107,-60
11,124,104330,-4735,-15839,-905,88,-119,-58
11,125,104335,-4669,-15811,-664,80,-118,-60
11,126,104340,-4729,-15816,-697,80,-132,-60
11,127,104345,-4804,-15974,-1101,64,-101,-56
11,128,104350,-4823,-16013,-1158,55,-46,-56
11,129,104355,-4595,-16073,-1226,50,-1,-54
11,130,104360,-4419,-16119,-1253,40,37,-53
11,131,104365,-4382,-16193,-1268,35,60,-54
11,132,104370,-4431,-16252,-1262,29,84,-54
11,133,104375,-4448,-16227,-1412,23,121,-54
11,134,104380,-4352,-16273,-1493,16,190,-50
11,135,104385,-4391,-16282,-1299,9,274,-52
11,136,104390,-4409,-16332,-1213,2,332,-51
11,137,104395,-4446,-16379,-997,-5,373,-48
11,138,104400,-4545,-16430,-948,-11,405,-46
11,139,104405,-4422,-16461,-930,-16,428,-42
11,140,104410,-4437,-16386,-761,-22,449,-45
11,141,104415,-4541,-16256,-535,-30,438,-43
11,142,104420,-4562,-16174,-663,-30,397,-36
11,143,104425,-4467,-16147,-974,-34,362,-32
11,144,104430,-4241,-16102,-940,-42,338,-26
11,145,104435,-4124,-16063,-707,-45,300,-22
11,146,104440,-4087,-16052,-635,-44,243,-19
11,147,104445,-4138,-16039,-912,-46,188,-10
11,148,104450,-4165,-15929,-1240,-53,155,-2
11,149,104455,-4145,-15772,-1291,-59,148,1
11,150,104460,-4235,-15696,-1047,-62,149,6
11,151,104465,-4290,-15707,-1157,-62,135,11
11,152,104470,-4464,-15801,-1390,-63,144,11
11,153,104475,-4564,-15834,-1369,-69,176,9
11,154,104480,-4757,-15797,-1342,-74,202,6
11,155,104485,-4934,-15748,-1389,-76,207,6
11,156,104490,-5100,-15767,-1655,-77,194,9
11,157,104495,-5260,-15851,-1776,-78,186,4
11,158,104500,-5379,-15995,-1872,-77,169,3
11,159,104505,-5428,-16060,-1902,-77,155,1
11,160,104510,-5438,-16095,-1849,-76,138,-2
11,161,104515,-5383,-16056,-2014,-73,126,-4
11,162,104520,-5361,-15978,-2232,-72,135,-12
11,163,104525,-5379,-15824,-2326,-71,164,-18
11,164,104530,-5384,-15627,-2363,-69,201,-25
11,165,104535,-5231,-15344,-2341,-74,236,-30
11,166,104540,-5040,-15125,-2417,-71,282,-35
11,167,104545,-5040,-14981,-2324,-70,324,-42
11,168,104550,-5087,-14977,-2295,-67,333,-48
11,169,104555,-5061,-15011,-2127,-66,343,-47
11,170,104560,-4854,-14981,-1930,-65,352,-48
11,171,104565,-4699,-15033,-1886,-63,357,-55
11,172,104570,-4781,-15064,-1639,-63,349,-58
11,173,104575,-4802,-15097,-1416,-59,306,-54
11,174,104580,-4805,-15202,-1347,-56,243,-53
11,175,104585,-4903,-15308,-1435,-53,181,-54
11,176,104590,-5077,-15476,-1498,-51,126,-56
11,177,104595,-5187,-15646,-1420,-53,60,-56
11,178,104600,-5227,-15828,-1476,-46,-27,-49
11,179,104605,-5311,-16059,-1705,-40,-117,-48
11,180,104610,-5355,-16311,-1942,-37,-188,-50
11,181,104615,-5245,-16516,-2054,-33,-232,-53
11,182,104620,-5238,-16712,-2176,-29,-256,-56
11,183,104625,-5360,-16781,-2295,-25,-267,-60
11,184,104630,-5475,-16792,-2545,-24,-265,-65
11,185,104635,-5549,-16712,-2703,-22,-231,-68
11,186,104640,-5376,-16677,-2800,-19,-180,-74
11,187,104645,-5218,-16654,-2794,-16,-124,-80
11,188,104650,-5075,-16698,-2716,-11,-84,-85
11,189,104655,-4936,-16771,-2744,-5,-61,-84
11,190,104660,-4791,-16827,-2634,-3,-43,-88
11,191,104665,-4656,-16764,-2584,-1,-32,-92
11,192,104670,-4538,-16728,-2523,1,-25,-91
11,193,104675,-4483,-16663,-2468,8,-23,-89
11,194,104680,-4478,-16603,-2529,12,-27,-86
11,195,104685,-4395,-16573,-2653,19,-32,-82
11,196,104690,-4357,-16412,-2475,20,-25,-84
11,197,104695,-4401,-16198,-2319,21,-19,-85
11,198,104700,-4532,-16106,-2354,26,-20,-80
11,199,104705,-4546,-16053,-2445,30,-7,-75
11,200,104710,-4578,-16057,-1977,27,30,-75
11,201,104715,-4661,-16042,-1746,30,25,-73
11,202,104720,-4798,-16083,-1755,30,9,-75
11,203,104725,-4874,-16048,-1730,29,1,-73
11,204,104730,-4995,-15911,-1704,30,-4,-72
11,205,104735,-5091,-15820,-1677,27,-10,-72
11,206,104740,-5196,-15704,-1516,24,-15,-72
11,207,104745,-5359,-15581,-1448,25,-24,-73
11,208,104750,-5401,-15535,-1461,27,-24,-72
11,209,104755,-5325,-15404,-1390,22,-5,-75
11,210,104760,-5304,-15389,-1295,15,4,-80
11,211,104765,-5220,-15374,-1204,12,-6,-80
11,212,104770,-5031,-15344,-1149,11,-36,-77
11,213,104775,-4953,-15340,-1167,8,-73,-77
11,214,104780,-4971,-15373,-1104,7,-108,-77
11,215,104785,-4953,-15392,-1102,5,-150,-76
11,216,104790,-4954,-15380,-1240,4,-197,-74
11,217,104795,-4838,-15495,-1313,-1,-228,-69
11,218,104800,-4804,-15565,-1266,-6,-244,-68
11,219,104805,-4862,-15675,-1236,-7,-262,-68
11,220,104810,-4860,-15732,-1388,-7,-283,-65
11,221,104815,-4871,-15801,-1645,-6,-299,-60
11,222,104820,-4951,-15878,-1688,-11,-302,-64
11,223,104825,-5198,-15824,-1725,-15,-306,-68
11,224,104830,-5495,-15851,-1838,-12,-323,-66
11,225,104835,-5557,-15928,-1964,-9,-335,-59
11,226,104840,-5533,-16023,-1929,-12,-327,-59
11,227,104845,-5481,-16130,-1810,-12,-316,-62
11,228,104850,-5494,-16298,-1819,-8,-314,-64
11,229,104855,-5491,-16394,-2013,-8,-322,-62
11,230,104860,-5489,-16433,-2104,-6,-323,-66
11,231,104865,-5449,-16422,-2158,-5,-322,-64
11,232,104870,-5421,-16434,-2123,-1,-326,-65
11,233,104875,-5410,-16480,-2304,0,-338,-66
11,234,104880,-5301,-16560,-2470,-1,-342,-62
11,235,104885,-5237,-16596,-2499,1,-335,-62
11,236,104890,-5178,-16563,-2604,6,-324,-62
11,237,104895,-5214,-16535,-2643,8,-301,-61
11,238,104900,-5293,-16479,-2703,10,-277,-64
11,239,104905,-5359,-16395,-2656,15,-244,-60
11,240,104910,-5397,-16374,-2602,17,-205,-57
11,241,104915,-5339,-16410,-2629,19,-169,-57
11,242,104920,-5272,-16386,-2538,20,-129,-56
11,243,104925,-5229,-16362,-2358,17,-99,-57
11,244,104930,-5343,-16377,-2286,22,-89,-58
11,245,104935,-5438,-16304,-2286,27,-78,-53
11,246,104940,-5367,-16166,-2330,26,-60,-49
11,247,104945,-5364,-16111,-2271,27,-28,-49
11,248,104950,-5420,-16049,-2168,26,-5,-48
11,249,104955,-5320,-16049,-2229,31,7,-45
11,250,104960,-5136,-16020,-2236,29,18,-43
11,251,104965,-5194,-15863,-2212,28,27,-42
11,252,104970,-5254,-15814,-2144,31,21,-40
11,253,104975,-5287,-15689,-2058,30,-3,-34
11,254,104980,-5251,-15570,-2001,30,-37,-29
11,255,104985,-5264,-15455,-1956,31,-73,-28
11,256,104990,-5320,-15357,-1898,35,-110,-24
11,257,104995,-5292,-15271,-1831,35,-159,-15
11,258,105000,-5311,-15194,-1851,37,-219,-7
11,259,105005,-5316,-15064,-1953,42,-271,-5
11,260,105010,-5338,-14998,-2041,41,-316,-1
11,261,105015,-5370,-14900,-2051,40,-344,2
11,262,105020,-5464,-14828,-2004,40,-370,8
11,263,105025,-5368,-14750,-2097,45,-394,15
11,264,105030,-5117,-14711,-2152,42,-396,18
11,265,105035,-5029,-14789,-2093,42,-394,23
11,266,105040,-4988,-14960,-1974,40,-398,25
11,267,105045,-5035,-15190,-1992,39,-411,29
11,268,105050,-5141,-15381,-2038,39,-424,32
11,269,105055,-5271,-15483,-1961,35,-429,35
11,270,105060,-5439,-15538,-1953,34,-436,40
11,271,105065,-5569,-15530,-2011,34,-451,43
11,272,105070,-5658,-15461,-2047,34,-467,44
11,273,105075,-5856,-15404,-2033,30,-482,45
11,274,105080,-5820,-15421,-2088,30,-471,44
11,275,105085,-5817,-15434,-2098,29,-438,42
11,276,105090,-5830,-15466,-1999,26,-401,40
11,277,105095,-5865,-15471,-1987,20,-371,40
11,278,105100,-5841,-15475,-1972,20,-334,38
11,279,105105,-5821,-15455,-1922,18,-296,34
11,280,105110,-5879,-15396,-1896,14,-263,31
11,281,105115,-5923,-15355,-1835,9,-241,34
11,282,105120,-5886,-15267,-1910,7,-226,33
11,283,105125,-5786,-15180,-1921,5,-208,30
11,284,105130,-5764,-15194,-1780,3,-189,28
11,285,105135,-5650,-15426,-1710,2,-178,31
11,286,105140,-5395,-15658,-1725,2,-169,33
11,287,105145,-5263,-15794,-1572,-6,-147,30
11,288,105150,-5322,-15803,-1374,-11,-140,30
11,289,105155,-5411,-15819,-1274,-12,-156,33
11,290,105160,-5322,-15744,-1283,-16,-185,36
11,291,105165,-5274,-15652,-1356,-21,-212,38
11,292,105170,-5415,-15533,-1337,-20,-236,38
11,293,105175,-5433,-15303,-1268,-23,-259,41
11,294,105180,-5348,-15136,-1437,-26,-282,48
11,295,105185,-5196,-15100,-1657,-26,-286,50
11,296,105190,-5185,-15091,-1660,-28,-265,47
11,297,105195,-5223,-14982,-1530,-32,-248,49
11,298,105200,-5109,-14855,-1596,-34,-242,54
11,299,105205,-4987,-14737,-1768,-35,-233,57
11,300,105210,-4939,-14632,-1878,-39,-218,58
11,301,105215,-4908,-14612,-1789,-42,-210,59
11,302,105220,-4761,-14589,-1757,-41,-218,65
11,303,105225,-4585,-14660,-1837,-40,-223,67
11,304,105230,-4535,-14647,-1846,-42,-212,68
11,305,105235,-4443,-14607,-1790,-47,-201,70
11,306,105240,-4333,-14518,-1738,-48,-194,75
11,307,105245,-4231,-14392,-1755,-47,-192,79
11,308,105250,-4124,-14248,-1791,-51,-186,81
11,309,105255,-4235,-14228,-1733,-52,-183,86
11,310,105260,-4313,-14191,-1746,-52,-180,87
11,311,105265,-4315,-14239,-1845,-54,-179,89
11,312,105270,-4274,-14333,-1956,-56,-168,95
11,313,105275,-4190,-14463,-1926,-57,-145,98
11,314,105280,-4077,-14618,-1899,-59,-123,94
11,315,105285,-4044,-14786,-1921,-59,-110,97
11,316,105290,-3992,-14900,-2232,-59,-99,99
11,317,105295,-3952,-14938,-2538,-60,-92,100
11,318,105300,-3947,-14897,-2715,-57,-84,99
11,319,105305,-3963,-14810,-2955,-53,-81,99
11,320,105310,-4022,-14778,-3163,-51,-77,96
11,321,105315,-4030,-14662,-3482,-49,-68,93
11,322,105320,-4039,-14568,-3673,-43,-34,92
11,323,105325,-4072,-14450,-3890,-36,20,90
11,324,105330,-4103,-14384,-3854,-35,93,80
11,325,105335,-4065,-14228,-3797,-32,163,76
11,326,105340,-4103,-14134,-3807,-28,242,69
11,327,105345,-4150,-13997,-3757,-25,335,59
11,328,105350,-4184,-13883,-3723,-24,419,51
11,329,105355,-4105,-13754,-3707,-20,503,43
11,330,105360,-4056,-13666,-3589,-20,582,31
11,331,105365,-4001,-13680,-3448,-18,650,20
11,332,105370,-3775,-13768,-3285,-12,715,16
11,333,105375,-3757,-14008,-2973,-17,774,10
11,334,105380,-3764,-14100,-2947,-13,805,0
11,335,105385,-3731,-14150,-2966,-15,846,-9
11,336,105390,-4059,-14139,-2795,-15,888,-21
11,337,105395,-3954,-14045,-2857,-15,912,-25
11,338,105400,-3539,-13904,-2874,-19,937,-34
11,339,105405,-3651,-13793,-2547,-17,979,-46
11,340,105410,-3617,-13806,-2727,-11,993,-47
11,341,105415,-3534,-13927,-2822,-13,1027,-54
11,342,105420,-3635,-13860,-2461,-24,1100,-69
11,343,105425,-3657,-13958,-2385,-27,1168,-75
11,344,105430,-3498,-13922,-2647,-27,1237,-88
11,345,105435,-3115,-13924,-2568,-32,1313,-99
11,346,105440,-3261,-13962,-2077,-39,1406,-118
11,347,105445,-3084,-14060,-2259,-42,1423,-123
11,348,105450,-2858,-14113,-2166,-51,1446,-120
11,349,105455,-2591,-14158,-1869,-57,1451,-127
11,350,105460,-2778,-14301,-1679,-54,1418,-134
11,351,105465,-3018,-14489,-1773,-52,1355,-136
11,352,105470,-2981,-14587,-1623,-56,1301,-136
11,353,105475,-2896,-14584,-1347,-61,1254,-139
11,354,105480,-2881,-14647,-1209,-63,1191,-141
11,355,105485,-3068,-14560,-1274,-59,1117,-145
11,356,105490,-3006,-14474,-1196,-60,1007,-142
11,357,105495,-2826,-14501,-1284,-60,895,-141
11,358,105500,-2813,-14526,-1341,-64,821,-148
11,359,105505,-2665,-14565,-1286,-64,743,-152
11,360,105510,-2662,-14525,-1293,-66,637,-152
11,361,105515,-2561,-14457,-1350,-61,498,-145
11,362,105520,-2502,-14493,-1687,-57,376,-144
11,363,105525,-2564,-14538,-1830,-57,290,-145
11,364,105530,-2852,-14579,-1420,-60,221,-147
11,365,105535,-3811,-14538,-532,-64,145,-154
11,366,105540,-4048,-14507,95,-67,40,-168
11,367,105545,-3983,-14232,467,-78,-34,-172
11,368,105550,-4193,-14196,109,-81,-94,-160
11,369,105555,-3454,-14384,-553,-80,-171,-177
11,370,105560,-2686,-14388,-106,-95,-276,-193
11,371,105565,-2718,-13848,-29,-98,-469,-168
11,372,105570,-4414,-13913,-872,-85,-668,-154
11,373,105575,-4117,-13998,-2357,-82,-816,-198
11,374,105580,-4098,-13848,-1714,-105,-826,-190
11,375,105585,-3667,-13932,-1504,-101,-849,-168
11,376,105590,-3068,-14529,-2540,-76,-881,-191
11,377,105595,-3492,-15098,-2980,-86,-849,-218
11,378,105600,-3876,-15042,-2917,-101,-804,-212
11,379,105605,-3348,-15187,-4111,-87,-756,-194
11,380,105610,-3230,-15286,-5535,-85,-598,-225
11,381,105615,-3452,-15099,-5707,-94,-431,-252
11,382,105620,-3015,-14827,-5386,-84,-350,-248
11,383,105625,-2070,-14964,-6128,-56,-285,-235
11,384,105630,-1790,-15369,-6206,-45,-93,-250
11,385,105635,-2251,-15626,-4961,-55,134,-274
11,386,105640,-2215,-15715,-4077,-53,260,-270
11,387,105645,-1567,-15968,-4546,-33,346,-254
11,388,105650,-1256,-16208,-5207,-26,489,-262
11,389,105655,-1702,-16043,-4475,-33,641,-282
11,390,105660,-1960,-15645,-3586,-30,677,-267
11,391,105665,-1917,-15342,-4074,-10,647,-244
11,392,105670,-2235,-15237,-4324,-1,696,-245
11,393,105675,-2581,-15121,-3630,-7,784,-250
11,394,105680,-2484,-15140,-2830,-2,823,-241
11,395,105685,-2276,-15483,-2559,14,834,-227
11,396,105690,-2422,-15851,-2489,18,857,-225
11,397,105695,-2764,-16093,-2053,12,871,-232
11,398,105700,-2819,-16139,-1865,12,857,-219
11,399,105705,-2825,-16123,-1967,13,818,-210
11,400,105710,-3087,-15969,-1900,11,759,-210
11,401,105715,-3506,-15746,-1526,7,676,-205
11,402,105720,-3605,-15574,-1596,12,567,-193
11,403,105725,-3596,-15601,-2106,20,477,-179
11,404,105730,-3670,-15587,-2110,15,414,-182
11,405,105735,-3723,-15621,-1795,13,322,-181
11,406,105740,-3675,-15684,-1893,17,206,-167
11,407,105745,-3543,-15872,-2564,27,104,-156
11,408,105750,-3614,-16068,-2963,23,58,-158
11,409,105755,-3699,-16094,-2891,20,13,-157
11,410,105760,-3408,-16082,-3133,24,-44,-142
11,411,105765,-3144,-16229,-3583,33,-60,-134
11,412,105770,-3540,-16318,-3786,31,-2,-144
11,413,105775,-4069,-16467,-3535,24,99,-148
11,414,105780,-4080,-16577,-3494,23,205,-143
11,415,105785,-3916,-16702,-3745,24,328,-146
11,416,105790,-3982,-16778,-3547,18,477,-160
11,417,105795,-4202,-16659,-2998,9,596,-167
11,418,105800,-4281,-16554,-2858,11,661,-163
11,419,105805,-4444,-16508,-2986,2,758,-171
11,420,105810,-4839,-16285,-2775,-2,786,-174
11,421,105815,-5053,-16126,-2747,-2,792,-171
11,422,105820,-5024,-16005,-2992,1,791,-170
11,423,105825,-5071,-16008,-2941,-1,796,-173
11,424,105830,-5361,-16076,-2635,-3,790,-177
11,425,105835,-5458,-16068,-2590,1,743,-174
11,426,105840,-5358,-16099,-2977,4,693,-172
11,427,105845,-5330,-16162,-3174,4,679,-175
11,428,105850,-5231,-16314,-3028,7,674,-178
11,429,105855,-4984,-16400,-2732,2,664,-181
11,430,105860,-4427,-16583,-2743,2,641,-180
11,431,105865,-4257,-16741,-2855,10,646,-181
11,432,105870,-4255,-16675,-2713,5,672,-182
11,433,105875,-4117,-16530,-2452,-4,694,-179
11,434,105880,-4071,-16334,-2308,-11,704,-179
11,435,105885,-4200,-16201,-2333,-13,710,-178
11,436,105890,-4284,-16111,-2314,-13,713,-177
11,437,105895,-4235,-16087,-2331,-19,704,-168
11,438,105900,-4161,-16067,-2315,-22,687,-162
11,439,105905,-4274,-16109,-2141,-26,665,-163
11,440,105910,-4483,-16194,-1967,-27,625,-162
11,441,105915,-4552,-16381,-1941,-28,583,-155
11,442,105920,-4406,-16657,-1848,-30,552,-151
11,443,105925,-4317,-16948,-1712,-38,532,-151
11,444,105930,-4345,-17230,-1584,-42,495,-146
11,445,105935,-4571,-17258,-1565,-45,428,-142
11,446,105940,-4902,-17160,-1769,-49,344,-140
11,447,105945,-5115,-16909,-2126,-50,262,-139
11,448,105950,-5217,-16672,-2291,-54,196,-135
11,449,105955,-5321,-16549,-2316,-54,133,-132
11,450,105960,-5305,-16665,-2509,-50,78,-136
11,451,105965,-5227,-16892,-2885,-48,47,-137
11,452,105970,-4810,-17070,-3196,-53,46,-136
11,453,105975,-4433,-17188,-3377,-55,73,-143
11,454,105980,-4239,-17237,-3699,-55,96,-147
11,455,105985,-4060,-17179,-3906,-55,126,-148
11,456,105990,-3881,-17068,-3926,-60,176,-149
11,457,105995,-3835,-16975,-3999,-60,244,-150
11,458,106000,-3978,-17001,-3979,-56,338,-157
11,459,106005,-3990,-17046,-3978,-54,440,-158
11,460,106010,-3737,-17046,-3724,-59,545,-155
11,461,106015,-3601,-17097,-3262,-67,653,-162
11,462,106020,-3586,-17171,-3024,-66,721,-164
11,463,106025,-3464,-17210,-2746,-69,757,-164
11,464,106030,-3184,-17167,-2372,-73,750,-159
11,465,106035,-2995,-17139,-2085,-76,708,-160
11,466,106040,-3004,-17076,-1936,-77,646,-153
11,467,106045,-3359,-16770,-1786,-76,561,-148
11,468,106050,-3526,-16350,-2001,-75,445,-139
11,469,106055,-3446,-16212,-2370,-76,339,-125
11,470,106060,-3237,-16260,-2713,-76,260,-117
11,471,106065,-3254,-16428,-2696,-75,206,-113
11,472,106070,-3410,-16648,-2420,-77,158,-113
11,473,106075,-3553,-16810,-2330,-77,126,-110
11,474,106080,-3530,-16837,-2543,-79,127,-111
11,475,106085,-3439,-16876,-2630,-88,166,-115
11,476,106090,-3435,-16948,-2227,-96,226,-122
11,477,106095,-4149,-16862,-1598,-103,264,-121
11,478,106100,-5046,-16477,-1713,-104,250,-121
11,479,106105,-6170,-15801,-2115,-108,247,-141
11,480,106110,-7118,-15001,-2314,-121,253,-164
11,481,106115,-7388,-14499,-2437,-129,245,-164
11,482,106120,-7070,-14339,-2828,-125,212,-169
11,483,106125,-7041,-14543,-3002,-126,179,-199
11,484,106130,-6700,-14783,-2911,-125,96,-210
11,485,106135,-5495,-14928,-2699,-124,-29,-204
11,486,106140,-4252,-15195,-2639,-119,-150,-209
11,487,106145,-3384,-15620,-2576,-113,-264,-220
11,488,106150,-2746,-16006,-2630,-113,-381,-215
11,489,106155,-1790,-16354,-3163,-110,-495,-199
11,490,106160,-924,-16708,-3583,-103,-542,-188
11,491,106165,-746,-16952,-3572,-103,-547,-188
11,492,106170,-525,-17187,-3758,-98,-569,-157
11,493,106175,-488,-17253,-4101,-97,-519,-142
11,494,106180,-1073,-17248,-4069,-103,-430,-142
11,495,106185,-942,-17310,-3905,-110,-373,-139
11,496,106190,-26,-17213,-3881,-119,-355,-113
11,497,106195,-769,-16970,-2700,-110,-323,-79
11,498,106200,-1067,-16822,-3337,-90,-395,-88
11,499,106205,-2200,-16468,-3979,-84,-469,-92
11,500,106210,-2717,-15814,-4619,-89,-574,-68
11,501,106215,-2500,-15468,-4622,-87,-620,-44
11,502,106220,-2830,-15654,-4602,-83,-601,-54
11,503,106225,-3879,-15778,-4214,-84,-545,-73
11,504,106230,-4320,-15711,-4333,-76,-541,-60
11,505,106235,-4009,-15456,-4987,-66,-511,-57
11,506,106240,-3744,-15355,-5263,-64,-411,-70
11,507,106245,-3639,-15447,-5190,-72,-290,-85
11,508,106250,-3081,-15647,-4935,-71,-191,-81
11,509,106255,-2058,-16077,-5016,-67,-94,-76
11,510,106260,-1401,-16545,-4510,-66,44,-88
11,511,106265,-1117,-16804,-3415,-71,147,-100
11,512,106270,-785,-16775,-3102,-73,176,-86
11,513,106275,-277,-16862,-3222,-72,199,-71
11,514,106280,165,-16779,-3134,-79,217,-66
11,515,106285,757,-16689,-2982,-81,184,-41
11,516,106290,618,-16762,-3404,-60,77,-18
11,517,106295,278,-17044,-4821,-45,-68,-3
11,518,106300,-569,-17312,-5402,-38,-161,15
11,519,106305,-906,-17318,-5819,-30,-252,36
11,520,106310,-1095,-16798,-5766,-31,-259,41
11,521,106315,-1779,-16054,-5055,-37,-197,39
11,522,106320,-2046,-15699,-5018,-17,-145,51
11,523,106325,-1926,-15615,-5247,-8,-70,64
11,524,106330,-2031,-15326,-4513,-16,34,56
11,525,106335,-2408,-14926,-3926,-8,88,47
11,526,106340,-2701,-14802,-4444,4,124,52
11,527,106345,-2755,-14879,-4844,5,212,51
11,528,106350,-2736,-14844,-4174,-11,333,40
11,529,106355,-2752,-14787,-2974,-16,420,30
11,530,106360,-2505,-14872,-2845,-3,419,36
11,531,106365,-2231,-14982,-3256,1,421,38
11,532,106370,-2012,-15061,-3256,-10,439,29
11,533,106375,-1808,-15145,-2726,-13,439,32
11,534,106380,-1332,-15447,-2276,-17,383,44
11,535,106385,-844,-15800,-2238,-19,304,54
11,536,106390,-699,-16192,-2623,-15,244,59
11,537,106395,-869,-16226,-2651,-20,196,60
11,538,106400,-1081,-16087,-2593,-19,109,69
11,539,106405,-1349,-15819,-2641,-18,-14,77
11,540,106410,-1599,-15643,-3183,-13,-139,86
11,541,106415,-2039,-15613,-3880,-10,-217,88
11,542,106420,-2486,-15601,-4218,-7,-262,94
11,543,106425,-2544,-15483,-4226,-6,-284,97
11,544,106430,-2497,-15605,-4181,0,-272,97
11,545,106435,-2487,-15883,-4190,4,-206,89
11,546,106440,-2253,-16135,-4445,7,-109,82
11,547,106445,-2043,-16218,-4422,8,1,73
11,548,106450,-1996,-16197,-4291,5,94,63
11,549,106455,-2066,-16147,-4154,5,161,61
11,550,106460,-1936,-15991,-4137,4,218,61
11,551,106465,-1750,-15954,-3983,2,284,57
11,552,106470,-1866,-15980,-3474,0,341,50
11,553,106475,-2012,-16063,-2852,5,339,48
11,554,106480,-2077,-16255,-2339,7,292,56
11,555,106485,-2008,-16359,-2043,5,236,55
11,556,106490,-1687,-16399,-2214,8,167,58
11,557,106495,-1493,-16291,-2265,5,86,59
11,558,106500,-1381,-16113,-2042,4,-50,68
11,559,106505,-1363,-16073,-2163,9,-226,83
11,560,106510,-1502,-16071,-2595,16,-385,90
11,561,106515,-1498,-16122,-3279,22,-501,99
11,562,106520,-1502,-16154,-3542,26,-560,102
11,563,106525,-1691,-16121,-3600,29,-590,102
11,564,106530,-2130,-16047,-3691,32,-578,96
11,565,106535,-2281,-16004,-4229,39,-518,96
11,566,106540,-2147,-16063,-4621,38,-249,75
11,567,106545,-2198,-16045,-4143,34,-151,67
11,568,106550,-2277,-15918,-3792,39,-106,64
11,569,106555,-2106,-15915,-4101,49,-69,64
11,570,106560,-1883,-15815,-4047,46,15,52
11,571,106565,-1857,-15739,-3485,44,76,44
11,572,106570,-1823,-15619,-2996,48,60,45
11,573,106575,-1666,-15662,-2982,60,-12,52
11,574,106580,-1641,-15835,-3096,66,-80,56
11,575,106585,-1621,-15878,-2662,65,-135,51
11,576,106590,-1471,-15900,-2176,73,-216,53
11,577,106595,-1313,-15878,-2207,84,-325,61
11,578,106600,-1248,-16177,-2652,97,-421,71
11,579,106605,-1364,-17228,-2989,105,-483,68
11,580,106610,-951,-21780,-3005,116,-522,59
11,581,106615,1356,-26286,-4429,126,-538,34
11,582,106620,862,-17571,-7982,48,-445,41
11,583,106625,-4374,-11366,-4465,-71,-319,71
11,584,106630,-4631,-13927,-2503,-52,-565,165
11,585,106635,-1570,-18459,-7259,57,-741,273
11,586,106640,-2967,-18113,-7521,19,-228,126
11,587,106645,-6150,-15728,-3252,-21,217,46
11,588,106650,-4819,-15904,-2436,38,91,152
11,589,106655,-2582,-16980,-5150,73,17,163
11,590,106660,-3309,-16485,-4548,35,235,80
11,591,106665,-4210,-15649,-2607,13,352,64
11,592,106670,-4078,-15573,-1914,24,285,91
11,593,106675,-3225,-15833,-2830,40,174,109
11,594,106680,-3127,-15979,-3248,39,190,90
11,595,106685,-3628,-16010,-2582,24,237,66
11,596,106690,-2744,-15978,-1897,21,164,80
11,597,106695,-1919,-15771,-2322,18,30,118
11,598,106700,-1414,-15885,-3598,38,-71,81
11,599,106705,-2757,-16419,-5313,44,-100,80
11,600,106710,-2837,-15822,-8210,47,-101,99
11,601,106715,-1809,-15503,-7755,65,46,78
11,602,106720,-2631,-15653,-3708,60,243,31
11,603,106725,-2134,-15413,-2886,44,235,63
11,604,106730,-2519,-15215,-3373,60,334,67
11,605,106735,-1614,-14196,-5658,70,444,51
11,606,106740,-2740,-16063,-5194,61,551,49
11,607,106745,-2977,-16658,-3098,29,471,44
11,608,106750,-2218,-15715,-2280,37,223,102
11,609,106755,-2861,-15425,-1510,58,128,67
11,610,106760,-2545,-15596,-3669,84,27,71
11,611,106765,-1349,-15427,-3565,53,79,107
11,612,106770,-1423,-15479,-2496,11,140,70
11,613,106775,-2027,-15946,-2808,29,53,98
11,614,106780,-2035,-16327,-4539,66,-8,118
11,615,106785,-1569,-16139,-5351,68,45,121
11,616,106790,-948,-16173,-5122,48,111,120
11,617,106795,-814,-15556,-5061,44,107,117
11,618,106800,-1264,-15823,-4997,80,44,146
11,619,106805,-1994,-15874,-4785,87,1,126
11,620,106810,-2562,-15715,-3928,73,30,126
11,621,106815,-2306,-15526,-3058,67,103,150
11,622,106820,-2538,-15655,-2416,76,185,141
11,623,106825,-3012,-15766,-2385,74,203,122
11,624,106830,-3526,-15630,-2453,58,196,123
11,625,106835,-3324,-15508,-3064,50,200,140
11,626,106840,-2870,-15798,-4030,56,270,137
11,627,106845,-2964,-15892,-4285,53,336,115
11,628,106850,-2770,-15711,-4401,52,301,116
11,629,106855,-2090,-15682,-4787,58,227,135
11,630,106860,-1499,-15818,-5371,74,220,136
11,631,106865,-1650,-15901,-5058,79,284,129
11,632,106870,-2040,-15780,-4003,76,291,133
11,633,106875,-1962,-15693,-3438,84,223,149
11,634,106880,-1705,-15877,-3678,91,199,157
11,635,106885,-1914,-15929,-3731,88,268,151
11,636,106890,-2492,-15757,-2745,80,335,148
11,637,106895,-2943,-15500,-1823,71,328,156
11,638,106900,-3095,-15577,-1621,68,300,160
11,639,106905,-3795,-15998,-3001,59,409,154
11,640,106910,-4082,-15877,-3066,54,442,152
11,641,106915,-4446,-15676,-2903,52,399,138
11,642,106920,-4664,-15678,-3221,56,339,132
11,643,106925,-4788,-15731,-3282,55,355,125
11,644,106930,-4935,-15666,-2846,48,423,112
11,645,106935,-5394,-15557,-2198,38,463,97
11,646,106940,-5801,-15501,-1963,33,444,82
11,647,106945,-5871,-15489,-2375,32,430,75
11,648,106950,-5325,-15591,-3194,29,472,64
11,649,106955,-4590,-15716,-3733,23,541,47
11,650,106960,-4213,-15630,-3055,12,572,31
11,651,106965,-4187,-15605,-2914,13,483,31
11,652,106970,-4226,-15723,-3619,24,409,39
11,653,106975,-4341,-15979,-4047,19,432,28
11,654,106980,-4422,-15997,-3400,5,480,15
11,655,106985,-4331,-15994,-2230,2,448,13
11,656,106990,-3588,-15862,-2519,8,323,20
11,657,106995,-3022,-15806,-2722,9,271,27
11,658,107000,-3174,-15829,-2310,-4,276,10
11,659,107005,-3316,-15760,-1650,-10,241,5
11,660,107010,-3641,-15767,-1525,-11,154,10
11,661,107015,-3815,-16009,-2210,-8,54,13
11,662,107020,-3825,-16078,-2879,-9,6,17
11,663,107025,-3947,-15630,-2702,-17,-10,5
11,664,107030,-3828,-15658,-3070,-14,-54,3
11,665,107035,-3802,-15873,-3632,-15,-66,0
11,666,107040,-3893,-15827,-4231,-23,-28,-7
11,667,107045,-3586,-15787,-4208,-27,22,-13
11,668,107050,-3213,-15797,-4164,-22,27,-17
11,669,107055,-2903,-15788,-4472,-15,-16,-16
11,670,107060,-2823,-15884,-4729,-15,-39,-17
11,671,107065,-2630,-15744,-4776,-12,-32,-20
11,672,107070,-2418,-15752,-4346,-4,-10,-21
11,673,107075,-1526,-15827,-3922,6,-2,-23
11,674,107080,-1200,-15584,-3712,10,20,-20
11,675,107085,-2915,-15801,-3604,14,39,-12
11,676,107090,-4727,-15773,-3750,20,-25,-15
11,677,107095,-5750,-15861,-3869,18,-105,-17
11,678,107100,-5823,-15931,-4078,9,-119,-21
11,679,107105,-5125,-15856,-3759,12,-46,-32
11,680,107110,-4303,-15833,-3104,11,29,-50
11,681,107115,-3574,-15688,-2475,6,20,-63
11,682,107120,-2971,-15714,-2574,4,-43,-62
11,683,107125,-2575,-15734,-2888,9,-71,-57
11,684,107130,-2461,-15712,-3517,5,-53,-57
11,685,107135,-2527,-15723,-3837,-5,-30,-67
11,686,107140,-2701,-15769,-4295,-12,-41,-60
11,687,107145,-2808,-15778,-4933,-1,-62,-54
11,688,107150,-2817,-15909,-5291,12,-58,-58
11,689,107155,-3096,-15953,-4747,13,-40,-62
11,690,107160,-3717,-15792,-3649,11,-50,-69
11,691,107165,-4107,-15795,-2836,14,-98,-68
11,692,107170,-4385,-15783,-2566,15,-123,-71
11,693,107175,-4559,-15739,-2285,6,-90,-78
11,694,107180,-4450,-15656,-1779,-3,-60,-88
11,695,107185,-4225,-15609,-1436,-1,-65,-94
11,696,107190,-3984,-15603,-1560,-5,-88,-96
11,697,107195,-3858,-15663,-2245,-12,-105,-99
11,698,107200,-3937,-15732,-2750,-23,-84,-110
11,699,107205,-4291,-15794,-3222,-28,-81,-120
11,700,107210,-4787,-15836,-3815,-24,-120,-128
11,701,107215,-4926,-15892,-4078,-22,-160,-138
11,702,107220,-4624,-15712,-3838,-25,-185,-147
11,703,107225,-3974,-15662,-3283,-24,-184,-150
11,704,107230,-3555,-15734,-2768,-27,-176,-156
11,705,107235,-3416,-15756,-2920,-28,-204,-165
11,706,107240,-3559,-15873,-3455,-25,-252,-166
11,707,107245,-3636,-15864,-3906,-23,-295,-168
11,708,107250,-3607,-15868,-3885,-26,-315,-169
11,709,107255,-3364,-15804,-3813,-27,-325,-172
11,710,107260,-3037,-15798,-3636,-27,-332,-176
11,711,107265,-2929,-15874,-3448,-25,-340,-182
11,712,107270,-3438,-15803,-2800,-36,-400,-183
11,713,107275,-2985,-15816,-3033,-39,-432,-178
11,714,107280,-2200,-15809,-3176,-41,-418,-177
11,715,107285,-1413,-15754,-3209,-46,-390,-172
11,716,107290,-1175,-15810,-3382,-43,-389,-169
11,717,107295,-1164,-15834,-3394,-44,-412,-169
11,718,107300,-1003,-15803,-3394,-45,-441,-155
11,719,107305,-846,-15765,-3198,-47,-429,-146
11,720,107310,-808,-15789,-3037,-47,-410,-139
11,721,107315,-920,-15638,-2684,-54,-415,-131
11,722,107320,-1172,-15588,-2346,-61,-453,-124
11,723,107325,-1246,-15604,-1942,-60,-501,-114
11,724,107330,-944,-15565,-2055,-61,-532,-98
11,725,107335,-729,-15546,-2187,-67,-542,-91
11,726,107340,-971,-15606,-2436,-72,-566,-88
11,727,107345,-1377,-15717,-2930,-74,-611,-84
11,728,107350,-1599,-15799,-3205,-80,-629,-83
11,729,107355,-1730,-15626,-3045,-87,-606,-82
11,730,107360,-1961,-15468,-2821,-90,-569,-79
11,731,107365,-1899,-15973,-4004,-86,-541,-81
11,732,107370,-2130,-16194,-4464,-84,-458,-78
11,733,107375,-2862,-15882,-3903,-98,-370,-72
11,734,107380,-2599,-15654,-3924,-94,-333,-77
11,735,107385,-1845,-16042,-5057,-76,-271,-67
11,736,107390,-1904,-15987,-5240,-88,-119,-90
11,737,107395,-2598,-15809,-4593,-99,0,-108
11,738,107400,-3105,-15797,-4282,-98,44,-101
11,739,107405,-3282,-15813,-4365,-95,73,-94
11,740,107410,-3056,-15898,-4212,-93,96,-93
11,741,107415,-2880,-16015,-4175,-83,78,-93
11,742,107420,-3098,-16037,-4316,-73,64,-97
11,743,107425,-3361,-15978,-4521,-64,66,-97
11,744,107430,-3835,-16089,-4512,-64,108,-101
11,745,107435,-4098,-16059,-4173,-69,163,-114
11,746,107440,-4035,-16145,-4400,-69,221,-123
11,747,107445,-3694,-16210,-5057,-68,315,-135
11,748,107450,-3477,-16162,-5224,-77,447,-154
11,749,107455,-3837,-16308,-4988,-83,593,-169
11,750,107460,-4356,-16485,-5157,-81,710,-174
11,751,107465,-4117,-16743,-6149,-77,856,-182
11,752,107470,-2980,-16985,-7221,-78,1083,-193
11,753,107475,-1721,-16739,-6806,-94,1371,-217
11,754,107480,-1816,-16067,-5107,-109,1547,-241
11,755,107485,-2497,-15539,-3976,-102,1519,-237
11,756,107490,-2413,-15464,-3099,-96,1420,-204
11,757,107495,-766,-15648,-2711,-96,1323,-179
11,758,107500,791,-15905,-1890,-89,1212,-166
11,759,107505,1231,-15849,-777,-79,971,-162
11,760,107510,705,-15891,-1136,-57,569,-136
11,761,107515,246,-16285,-3185,-38,232,-99
11,762,107520,25,-16622,-4379,-51,204,-96
11,763,107525,-520,-17029,-3080,-77,354,-113
11,764,107530,-834,-16952,-1211,-80,365,-127
11,765,107535,-1084,-16665,-1437,-67,157,-102
11,766,107540,-1336,-16535,-3234,-58,-52,-81
11,767,107545,-1686,-16669,-4694,-67,-103,-74
11,768,107550,-1602,-16862,-5094,-72,-55,-75
11,769,107555,-1755,-16683,-5041,-82,10,-93
11,770,107560,-1922,-16411,-4098,-96,23,-95
11,771,107565,-1596,-16018,-4670,-91,-70,-74
11,772,107570,-1271,-16001,-5793,-95,-77,-73
11,773,107575,-1353,-16199,-5172,-109,61,-87
11,774,107580,-1355,-16299,-4382,-111,138,-94
11,775,107585,-1116,-16351,-3769,-108,143,-90
11,776,107590,-955,-16407,-3896,-105,81,-83
11,777,107595,-1097,-16570,-4337,-111,11,-78
11,778,107600,-1093,-16344,-3734,-131,-16,-77
11,779,107605,-1002,-16078,-3116,-138,-62,-66
11,780,107610,-921,-16041,-2996,-134,-120,-55
11,781,107615,-573,-16137,-3339,-128,-160,-45
11,782,107620,-372,-16376,-3712,-131,-162,-43
11,783,107625,-354,-16546,-3617,-136,-161,-44
11,784,107630,-498,-16343,-3431,-146,-193,-41
11,785,107635,-976,-16077,-4721,-157,-306,-19
11,786,107640,-1364,-15897,-5134,-165,-318,-18
11,787,107645,-1658,-15885,-4811,-168,-328,-12
11,788,107650,-1744,-16109,-4433,-161,-355,-7
11,789,107655,-1197,-16029,-4312,-154,-380,10
11,790,107660,-793,-15834,-4150,-150,-392,14
11,791,107665,-868,-15793,-3989,-146,-418,10
11,792,107670,-867,-15927,-3942,-139,-485,20
11,793,107675,-647,-15909,-3951,-137,-560,30
11,794,107680,-468,-15936,-4072,-135,-625,35
11,795,107685,-504,-16131,-3923,-128,-666,40
11,796,107690,-470,-16236,-4147,-120,-689,47
11,797,107695,-545,-16290,-4936,-113,-649,53
11,798,107700,-860,-16301,-5571,-107,-521,53
11,799,107705,-1004,-16217,-5721,-111,-354,46
11,800,107710,-1102,-15963,-5323,-113,-209,46
11,801,107715,-1212,-15640,-4553,-111,-143,43
11,802,107720,-1379,-15545,-3954,-98,-171,52
11,803,107725,-1513,-15549,-3927,-77,-248,61
11,804,107730,-1542,-15556,-4276,-64,-321,72
11,805,107735,-1423,-15519,-4561,-56,-374,79
11,806,107740,-1372,-15351,-4691,-46,-400,75
11,807,107745,-1541,-15287,-4886,-36,-413,77
11,808,107750,-1709,-15335,-4936,-24,-391,83
11,809,107755,-1506,-15257,-5074,-10,-324,84
11,810,107760,-1393,-15066,-4882,-2,-228,82
11,811,107765,-1538,-15103,-4247,6,-177,80
11,812,107770,-1597,-15193,-3731,16,-218,82
11,813,107775,-1252,-15143,-3613,29,-315,95
11,814,107780,-922,-15120,-3837,37,-383,102
11,815,107785,-914,-15096,-4176,46,-413,106
11,816,107790,-1196,-15067,-4377,49,-419,105
11,817,107795,-1367,-14916,-4632,56,-395,110
11,818,107800,-1294,-14636,-4719,65,-306,115
11,819,107805,-1137,-14513,-4470,68,-176,111
11,820,107810,-943,-14562,-4158,77,-83,113
11,821,107815,-853,-14642,-4144,87,-68,113
11,822,107820,-1244,-14630,-4337,95,-101,116
11,823,107825,-1697,-14719,-4502,99,-117,117
11,824,107830,-2042,-14746,-4763,100,-76,113
11,825,107835,-2293,-14858,-5200,106,18,113
11,826,107840,-2318,-14862,-5394,113,143,106
11,827,107845,-2280,-14858,-5227,118,254,95
11,828,107850,-2055,-14890,-4479,118,324,89
11,829,107855,-1935,-15069,-3650,123,312,95
11,830,107860,-1847,-15298,-3504,132,230,101
11,831,107865,-1663,-15437,-3433,132,153,104
11,832,107870,-1362,-15493,-3703,137,95,108
11,833,107875,-1334,-15682,-3891,139,70,105
11,834,107880,-1744,-15834,-3705,139,47,102
11,835,107885,-1981,-15788,-3723,143,6,99
11,836,107890,-1784,-15748,-4072,149,-15,109
11,837,107895,-1709,-15864,-4401,146,20,106
11,838,107900,-1906,-15836,-4334,140,73,97
11,839,107905,-1930,-15651,-4125,139,97,95
11,840,107910,-2011,-15586,-4237,142,100,95
11,841,107915,-1996,-15755,-4692,142,117,96
11,842,107920,-2060,-15948,-4725,135,158,94
11,843,107925,-2183,-15840,-4039,127,187,84
11,844,107930,-2395,-15824,-3355,128,167,79
11,845,107935,-2384,-15812,-3386,127,135,79
11,846,107940,-2187,-15879,-3707,130,125,87
11,847,107945,-2025,-16041,-3714,126,128,87
11,848,107950,-1966,-16067,-3524,121,92,87
11,849,107955,-1991,-15966,-3519,120,19,92
11,850,107960,-2187,-15831,-3822,119,-31,93
11,851,107965,-2425,-15728,-4049,117,-37,92
11,852,107970,-2509,-15675,-3755,111,-23,89
11,853,107975,-2382,-15522,-3403,107,-52,94
11,854,107980,-2253,-15409,-3266,108,-108,104
11,855,107985,-2253,-15329,-3299,109,-159,109
11,856,107990,-2054,-15264,-3312,106,-191,117
11,857,107995,-2036,-15191,-3264,99,-196,111
11,858,108000,-2605,-14580,-3543,93,-199,119
11,859,108005,-2879,-14126,-4134,92,-183,125
11,860,108010,-3083,-13909,-4470,88,-128,127
11,861,108015,-2841,-13845,-4694,82,-51,135
11,862,108020,-2595,-13730,-4617,77,44,137
11,863,108025,-2720,-13676,-4449,73,126,125
11,864,108030,-3047,-13644,-4379,69,192,121
11,865,108035,-3199,-13615,-4119,64,260,123
11,866,108040,-3322,-13737,-3404,52,331,119
11,867,108045,-3447,-13955,-2459,53,351,117
11,868,108050,-3373,-14075,-2000,57,290,125
11,869,108055,-3197,-14251,-2170,59,188,140
11,870,108060,-3133,-14476,-2737,64,102,143
11,871,108065,-3424,-14653,-3468,64,38,149
11,872,108070,-3543,-14843,-4141,59,8,153
11,873,108075,-3542,-15240,-4266,56,19,153
11,874,108080,-3603,-15406,-4119,53,38,143
11,875,108085,-3625,-15658,-4302,57,52,142
11,876,108090,-3877,-15838,-4419,57,79,135
11,877,108095,-4119,-15875,-4448,54,93,125
11,878,108100,-4252,-15820,-4417,50,98,124
11,879,108105,-4336,-15853,-4266,45,100,116
11,880,108110,-4409,-16105,-3768,40,83,111
11,881,108115,-4236,-16227,-3364,44,43,108
11,882,108120,-4109,-16184,-3242,49,6,102
11,883,108125,-4191,-16167,-3326,51,-19,92
11,884,108130,-4227,-16151,-3081,44,-43,82
11,885,108135,-4127,-16043,-2660,37,-85,75
11,886,108140,-3905,-15966,-2671,38,-145,81
11,887,108145,-3848,-15949,-3349,36,-185,77
11,888,108150,-4001,-15745,-3570,25,-186,64
11,889,108155,-4138,-15583,-3210,11,-177,58
11,890,108160,-4030,-15606,-2923,4,-178,52
11,891,108165,-3795,-15671,-2897,1,-166,44
11,892,108170,-3706,-15727,-2762,-8,-139,27
11,893,108175,-3986,-15751,-2416,-19,-154,9
11,894,108180,-4210,-15681,-2196,-25,-240,8
11,895,108185,-3967,-15611,-2611,-30,-360,18
11,896,108190,-3929,-15588,-3159,-34,-416,12
11,897,108195,-4189,-15608,-3569,-40,-417,4
11,898,108200,-4151,-15725,-3789,-46,-416,5
11,899,108205,-3753,-15871,-3982,-49,-419,5
11,900,108210,-3608,-16041,-4132,-51,-400,-6
11,901,108215,-3874,-16009,-4192,-56,-354,-25
11,902,108220,-4055,-15816,-4298,-60,-302,-32
11,903,108225,-3989,-15568,-4118,-68,-249,-39
11,904,108230,-3794,-15448,-3944,-72,-208,-48
11,905,108235,-3447,-15584,-3936,-75,-163,-58
11,906,108240,-3118,-15729,-4033,-76,-105,-65
11,907,108245,-2971,-15723,-4076,-83,-36,-77
11,908,108250,-3045,-15546,-3802,-86,26,-82
11,909,108255,-3189,-15494,-3322,-91,54,-87
11,910,108260,-3225,-15434,-3059,-87,48,-90
11,911,108265,-3173,-15477,-2944,-86,36,-84
11,912,108270,-2796,-15592,-2922,-85,4,-81
11,913,108275,-2521,-15516,-2913,-80,-67,-82
11,914,108280,-2610,-15320,-3232,-75,-174,-81
11,915,108285,-2956,-15194,-4015,-70,-270,-75
11,916,108290,-3278,-15035,-4764,-67,-307,-74
11,917,108295,-3236,-14946,-5229,-68,-284,-77
11,918,108300,-3283,-15057,-5294,-67,-227,-84
11,919,108305,-3550,-15082,-5151,-65,-181,-91
11,920,108310,-3662,-15028,-4837,-64,-168,-93
11,921,108315,-3285,-15085,-4431,-58,-156,-91
11,922,108320,-2916,-15274,-3952,-50,-126,-96
11,923,108325,-2824,-15408,-3599,-42,-103,-107
11,924,108330,-2769,-15402,-3301,-41,-110,-108
11,925,108335,-2524,-15243,-3142,-41,-148,-101
11,926,108340,-2401,-15212,-3245,-33,-191,-95
11,927,108345,-2458,-15283,-3682,-25,-212,-94
11,928,108350,-2318,-15327,-4318,-24,-206,-88
11,929,108355,-2156,-15306,-4693,-26,-161,-84
11,930,108360,-2407,-15110,-4442,-28,-97,-92
11,931,108365,-2833,-14765,-4012,-13,-18,-92
11,932,108370,-2405,-14774,-4168,-6,10,-90
11,933,108375,-2160,-14922,-4116,-2,14,-92
11,934,108380,-2328,-15024,-3790,0,-33,-95
11,935,108385,-2711,-14924,-3878,4,-108,-85
11,936,108390,-2867,-15037,-4695,11,-129,-74
11,937,108395,-2949,-15301,-5092,11,-49,-74
11,938,108400,-2856,-15604,-4625,8,57,-76
11,939,108405,-2645,-15915,-4041,15,112,-72
11,940,108410,-2591,-16314,-3919,27,114,-68
11,941,108415,-2591,-16693,-4001,38,121,-67
11,942,108420,-2690,-16885,-3940,42,135,-71
11,943,108425,-3098,-16801,-3636,41,120,-76
11,944,108430,-3373,-16693,-3711,49,63,-70
11,945,108435,-3273,-16709,-4072,60,26,-61
11,946,108440,-3072,-16660,-4205,64,60,-68
11,947,108445,-2926,-16542,-4018,70,118,-75
11,948,108450,-2711,-16399,-3976,79,145,-70
11,949,108455,-2417,-16322,-4208,87,159,-65
11,950,108460,-2164,-16397,-4493,95,206,-73
11,951,108465,-2163,-17739,-4134,95,288,-82
11,952,108470,-1429,-21826,-3372,103,343,-94
11,953,108475,1301,-22030,-4926,94,380,-107
11,954,108480,-235,-14951,-6631,-7,532,-106
11,955,108485,-8283,-13508,2900,-100,591,-165
11,956,108490,-5824,-16208,-992,-25,-221,9
11,957,108495,158,-18016,-6906,28,-397,170
11,958,108500,-562,-15950,-5366,-56,321,-18
11,959,108505,-2590,-15559,-2015,-49,515,-51
11,960,108510,-2959,-16251,-1552,-23,98,23
11,961,108515,-2548,-15877,-3558,-20,-344,51
11,962,108520,-1701,-16406,-5602,-16,-427,81
11,963,108525,-2488,-16249,-4283,-48,-72,7
11,964,108530,-3000,-16072,-2813,-49,76,-15
11,965,108535,-2934,-16168,-2850,-18,-76,12
11,966,108540,-2848,-16205,-4889,6,-234,18
11,967,108545,-2839,-16439,-5669,14,-137,12
11,968,108550,-3007,-16371,-4467,1,80,-21
11,969,108555,-3009,-16236,-3458,2,117,-26
11,970,108560,-2633,-16147,-4025,21,5,-6
11,971,108565,-2749,-15750,-4797,33,-14,-6
11,972,108570,-3313,-15814,-4950,32,62,-13
11,973,108575,-3098,-15797,-3974,31,134,-14
11,974,108580,-2806,-15726,-3429,37,99,-9
11,975,108585,-2499,-15768,-3626,50,23,-5
11,976,108590,-2655,-15752,-3966,49,12,-7
11,977,108595,-2637,-15683,-3759,43,57,-7
11,978,108600,-2206,-15639,-3314,39,88,-1
11,979,108605,-1830,-15679,-3132,41,66,0
11,980,108610,-1982,-15708,-3459,48,16,1
11,981,108615,-2207,-15692,-4096,48,-19,2
11,982,108620,-2258,-15803,-4503,41,-19,3
11,983,108625,-2199,-15702,-4239,36,10,1
11,984,108630,-2177,-15786,-4443,40,5,0
11,985,108635,-2740,-15826,-4801,52,-14,0
11,986,108640,-3049,-15765,-5060,56,-31,-3
11,987,108645,-3081,-15776,-5569,52,-40,-4
11,988,108650,-3093,-15973,-5270,54,-16,-12
11,989,108655,-3263,-15648,-3726,55,11,-23
11,990,108660,-3111,-15655,-3298,57,-38,-10
11,991,108665,-2539,-15813,-3066,56,-60,-3
11,992,108670,-2154,-15762,-2999,56,-41,-13
11,993,108675,-2222,-15695,-2657,54,-1,-8
11,994,108680,-2538,-15770,-2573,49,6,-8
11,995,108685,-2873,-15637,-2592,43,-19,-7
11,996,108690,-2450,-15709,-3009,44,-46,-2
11,997,108695,-2249,-15775,-2772,32,-17,1
11,998,108700,-2290,-15730,-2112,18,9,4
11,999,108705,-2777,-15685,-1940,18,-15,5
