event_id,seq,ts_ms,ax,ay,az,gx,gy,gz,putt_start_valid,impact_seq
1,0,25756,1448,-16378,1387,0,-52,0,1,382
1,1,25761,1508,-16369,1356,-2,-57,1,1,382
1,2,25766,1528,-16416,1365,0,-55,1,1,382
1,3,25771,1451,-16394,1419,0,-51,1,1,382
1,4,25776,1514,-16391,1367,1,-57,3,1,382
1,5,25781,1514,-16381,1400,1,-54,5,1,382
1,6,25786,1596,-16405,1337,0,-51,6,1,382
1,7,25791,1525,-16368,1418,-1,-43,2,1,382
1,8,25796,1470,-16390,1427,0,-49,0,1,382
1,9,25801,1440,-16377,1382,2,-50,4,1,382
1,10,25806,1516,-16359,1345,1,-47,7,1,382
1,11,25811,1521,-16407,1353,0,-34,5,1,382
1,12,25816,1429,-16379,1374,1,-30,3,1,382
1,13,25821,1391,-16437,1298,2,-30,2,1,382
1,14,25826,1393,-16421,1288,1,-29,1,1,382
1,15,25831,1425,-16416,1356,1,-23,3,1,382
1,16,25836,1434,-16416,1425,0,-11,0,1,382
1,17,25841,1436,-16386,1394,1,-13,0,1,382
1,18,25846,1417,-16385,1429,3,-7,-1,1,382
1,19,25851,1475,-16400,1384,2,-2,-2,1,382
1,20,25856,1461,-16437,1368,2,1,0,1,382
1,21,25861,1404,-16382,1415,0,-3,0,1,382
1,22,25866,1403,-16387,1409,2,-4,2,1,382
1,23,25871,1442,-16378,1391,2,-4,1,1,382
1,24,25876,1478,-16396,1401,2,-2,3,1,382
1,25,25881,1452,-16359,1425,-1,-1,2,1,382
1,26,25886,1407,-16394,1447,0,-4,2,1,382
1,27,25891,1347,-16400,1409,1,-6,0,1,382
1,28,25896,1415,-16384,1407,1,-9,-1,1,382
1,29,25901,1394,-16422,1429,1,-9,2,1,382
1,30,25906,1393,-16389,1391,2,-11,2,1,382
1,31,25911,1396,-16378,1395,3,-10,1,1,382
1,32,25916,1399,-16401,1427,2,-7,1,1,382
1,33,25921,1430,-16367,1385,2,-6,2,1,382
1,34,25926,1415,-16411,1393,3,-7,0,1,382
1,35,25931,1399,-16421,1417,2,-4,1,1,382
1,36,25936,1366,-16403,1348,0,-2,-1,1,382
1,37,25941,1388,-16432,1362,2,3,-1,1,382
1,38,25946,1425,-16391,1367,7,5,-1,1,382
1,39,25951,1432,-16377,1378,5,9,-2,1,382
1,40,25956,1470,-16438,1412,3,8,-2,1,382
1,41,25961,1421,-16438,1416,2,7,-3,1,382
1,42,25966,1400,-16435,1412,3,7,-1,1,382
1,43,25971,1431,-16400,1418,3,11,0,1,382
1,44,25976,1392,-16377,1400,2,13,-2,1,382
1,45,25981,1384,-16387,1452,0,12,-2,1,382
1,46,25986,1392,-16415,1478,2,11,-1,1,382
1,47,25991,1401,-16390,1466,3,9,-2,1,382
1,48,25996,1354,-16412,1455,2,9,1,1,382
1,49,26001,1353,-16382,1458,3,13,-2,1,382
1,50,26006,1348,-16388,1474,1,11,-2,1,382
1,51,26011,1385,-16380,1454,1,9,-1,1,382
1,52,26016,1476,-16325,1496,1,10,-1,1,382
1,53,26021,1488,-16355,1551,2,11,0,1,382
1,54,26026,1504,-16402,1555,3,4,0,1,382
1,55,26031,1578,-16368,1553,0,-8,1,1,382
1,56,26036,1651,-16430,1644,0,-13,4,1,382
1,57,26041,1652,-16361,1716,-1,-17,7,1,382
1,58,26046,1724,-16357,1810,-4,-23,7,1,382
1,59,26051,1817,-16303,1869,-8,-23,10,1,382
1,60,26056,1928,-16284,1810,-6,-20,13,1,382
1,61,26061,1916,-16336,1769,-7,-16,15,1,382
1,62,26066,1980,-16378,1628,-11,-20,17,1,382
1,63,26071,2103,-16448,1488,-10,-17,22,1,382
1,64,26076,2506,-16374,1425,-16,-5,36,1,382
1,65,26081,2529,-16311,1502,-16,-7,40,1,382
1,66,26086,2589,-16377,1355,-16,-24,44,1,382
1,67,26091,2609,-16385,1134,-15,-28,53,1,382
1,68,26096,2673,-16442,1055,-16,-15,60,1,382
1,69,26101,2506,-16396,1084,-18,-2,61,1,382
1,70,26106,2287,-16384,1144,-18,-1,64,1,382
1,71,26111,2094,-16383,1203,-14,0,65,1,382
1,72,26116,1968,-16386,1198,-15,15,66,1,382
1,73,26121,1873,-16400,1295,-20,47,66,1,382
1,74,26126,1676,-16354,1438,-22,81,67,1,382
1,75,26131,1536,-16384,1471,-19,97,66,1,382
1,76,26136,1453,-16389,1455,-19,110,64,1,382
1,77,26141,1538,-16416,1313,-21,123,61,1,382
1,78,26146,1477,-16393,1384,-23,148,60,1,382
1,79,26151,1360,-16400,1385,-24,169,61,1,382
1,80,26156,1340,-16400,1441,-27,183,56,1,382
1,81,26161,1286,-16388,1438,-25,195,55,1,382
1,82,26166,1175,-16373,1391,-28,212,51,1,382
1,83,26171,1023,-16384,1313,-29,231,46,1,382
1,84,26176,937,-16442,1241,-27,249,44,1,382
1,85,26181,923,-16470,1172,-27,267,39,1,382
1,86,26186,832,-16469,1161,-28,291,34,1,382
1,87,26191,816,-16430,1223,-30,308,29,1,382
1,88,26196,884,-16387,1330,-29,317,28,1,382
1,89,26201,969,-16407,1300,-28,328,24,1,382
1,90,26206,1030,-16411,1242,-28,342,21,1,382
1,91,26211,975,-16572,1043,-25,357,19,1,382
1,92,26216,827,-16972,469,-22,391,13,1,382
1,93,26221,678,-17283,101,-23,476,12,1,382
1,94,26226,702,-17582,-312,-22,594,15,1,382
1,95,26231,792,-18069,17,-23,747,11,1,382
1,96,26236,1035,-18412,692,-20,858,17,1,382
1,97,26241,1346,-18768,1450,-9,884,28,1,382
1,98,26246,1497,-19003,1764,-4,822,40,1,382
1,99,26251,1588,-19288,1807,1,718,53,1,382
1,100,26256,1547,-19461,1989,5,608,71,1,382
1,101,26261,1537,-19536,2288,10,497,91,1,382
1,102,26266,1608,-19612,2337,19,374,113,1,382
1,103,26271,1701,-19669,2104,29,247,131,1,382
1,104,26276,1745,-19707,1867,37,122,150,1,382
1,105,26281,1825,-19682,1803,44,-3,173,1,382
1,106,26286,2027,-19685,1805,50,-112,192,1,382
1,107,26291,2057,-19691,1262,56,-191,212,1,382
1,108,26296,2086,-19554,865,73,-200,228,1,382
1,109,26301,1683,-19473,851,75,-149,242,1,382
1,110,26306,1786,-19336,632,86,-120,255,1,382
1,111,26311,1912,-19329,761,94,-81,275,1,382
1,112,26316,2253,-19266,433,100,-53,290,1,382
1,113,26321,2367,-18936,718,108,17,302,1,382
1,114,26326,2166,-18795,690,115,90,314,1,382
1,115,26331,2062,-18514,707,127,173,330,1,382
1,116,26336,2129,-18392,722,133,265,349,1,382
1,117,26341,2212,-18148,908,140,346,359,1,382
1,118,26346,2197,-17934,1014,150,396,380,1,382
1,119,26351,1911,-17716,1107,156,455,398,1,382
1,120,26356,1582,-17415,1125,165,533,406,1,382
1,121,26361,1437,-17200,1149,171,626,424,1,382
1,122,26366,1323,-16987,1402,176,712,443,1,382
1,123,26371,1326,-16782,1627,181,754,456,1,382
1,124,26376,1079,-16716,1927,190,782,478,1,382
1,125,26381,851,-16640,2006,197,789,492,1,382
1,126,26386,647,-16620,2233,206,799,508,1,382
1,127,26391,489,-16499,2592,212,814,526,1,382
1,128,26396,385,-16294,2764,217,797,542,1,382
1,129,26401,20,-16141,2683,221,759,559,1,382
1,130,26406,-343,-15961,2706,227,723,571,1,382
1,131,26411,-552,-15734,2961,230,693,587,1,382
1,132,26416,-635,-15588,3167,236,666,605,1,382
1,133,26421,-690,-15489,3011,244,642,617,1,382
1,134,26426,-901,-15407,2847,249,623,625,1,382
1,135,26431,-1032,-15271,2872,254,606,638,1,382
1,136,26436,-1088,-15153,2967,255,587,653,1,382
1,137,26441,-1090,-15113,2505,267,614,676,1,382
1,138,26446,-1107,-15060,2503,271,636,681,1,382
1,139,26451,-1144,-14920,2732,274,637,694,1,382
1,140,26456,-1174,-14866,2773,274,638,707,1,382
1,141,26461,-1327,-14868,2470,283,657,720,1,382
1,142,26466,-1455,-14915,2242,288,704,729,1,382
1,143,26471,-1565,-14903,2337,288,760,739,1,382
1,144,26476,-1685,-14828,2574,290,797,749,1,382
1,145,26481,-1766,-14788,2727,292,814,757,1,382
1,146,26486,-1840,-14808,2703,298,815,771,1,382
1,147,26491,-1880,-14811,2894,303,819,783,1,382
1,148,26496,-2017,-14743,3072,303,802,796,1,382
1,149,26501,-2147,-14685,3275,312,769,812,1,382
1,150,26506,-2392,-14734,3194,313,717,828,1,382
1,151,26511,-2467,-14506,3058,319,651,836,1,382
1,152,26516,-2476,-14461,3270,321,593,856,1,382
1,153,26521,-2564,-14398,3634,322,526,866,1,382
1,154,26526,-2671,-14442,3506,330,444,879,1,382
1,155,26531,-2854,-14538,3223,330,389,892,1,382
1,156,26536,-3025,-14533,3060,335,357,901,1,382
1,157,26541,-3050,-14576,3065,337,335,910,1,382
1,158,26546,-2940,-14606,3008,341,311,923,1,382
1,159,26551,-2892,-14659,2743,350,290,936,1,382
1,160,26556,-2999,-14696,2548,350,288,943,1,382
1,161,26561,-3109,-14674,2554,352,297,954,1,382
1,162,26566,-3139,-14688,2533,356,311,963,1,382
1,163,26571,-2887,-14769,2410,367,324,980,1,382
1,164,26576,-2509,-14778,2413,370,338,990,1,382
1,165,26581,-2474,-14662,2633,371,344,1002,1,382
1,166,26586,-2732,-14596,2738,372,327,1010,1,382
1,167,26591,-2984,-14659,2564,377,310,1024,1,382
1,168,26596,-2954,-14733,2289,382,311,1042,1,382
1,169,26601,-2755,-14773,2458,385,332,1056,1,382
1,170,26606,-2696,-14699,2805,385,342,1060,1,382
1,171,26611,-2956,-14692,2978,388,323,1074,1,382
1,172,26616,-3334,-14684,2606,391,280,1085,1,382
1,173,26621,-3441,-14777,2308,392,279,1105,1,382
1,174,26626,-3450,-14838,2705,392,324,1112,1,382
1,175,26631,-3360,-14784,3035,396,341,1120,1,382
1,176,26636,-3528,-14796,3036,400,326,1133,1,382
1,177,26641,-3722,-14731,2833,398,302,1139,1,382
1,178,26646,-4002,-14730,2928,397,285,1152,1,382
1,179,26651,-3980,-14770,3084,397,277,1164,1,382
1,180,26656,-3781,-14848,3161,398,270,1175,1,382
1,181,26661,-3777,-14850,3202,398,258,1179,1,382
1,182,26666,-4166,-14837,3195,401,223,1184,1,382
1,183,26671,-4489,-14885,3152,399,175,1196,1,382
1,184,26676,-4387,-14923,3001,398,141,1208,1,382
1,185,26681,-4098,-14949,2859,399,139,1213,1,382
1,186,26686,-4225,-14944,2941,400,151,1214,1,382
1,187,26691,-4687,-14961,2811,399,161,1219,1,382
1,188,26696,-5036,-14974,2609,398,177,1220,1,382
1,189,26701,-5086,-14984,2503,394,214,1223,1,382
1,190,26706,-5076,-15016,2668,388,270,1224,1,382
1,191,26711,-5129,-14998,2854,388,319,1219,1,382
1,192,26716,-5103,-14958,3159,387,350,1222,1,382
1,193,26721,-5203,-14885,3186,379,343,1222,1,382
1,194,26726,-5247,-14757,3149,375,320,1220,1,382
1,195,26731,-5522,-14950,3353,369,325,1223,1,382
1,196,26736,-5680,-14967,3189,366,318,1217,1,382
1,197,26741,-5840,-15080,2944,368,324,1220,1,382
1,198,26746,-5986,-15087,3175,358,357,1215,1,382
1,199,26751,-6079,-15024,3512,353,353,1208,1,382
1,200,26756,-6210,-15012,3627,353,310,1207,1,382
1,201,26761,-6283,-14979,3405,348,273,1201,1,382
1,202,26766,-6477,-14890,3726,341,266,1191,1,382
1,203,26771,-6662,-14834,3974,334,222,1187,1,382
1,204,26776,-6703,-14753,3848,333,154,1186,1,382
1,205,26781,-6635,-14746,3690,332,107,1178,1,382
1,206,26786,-6750,-14691,3830,323,89,1167,1,382
1,207,26791,-6823,-14641,3981,321,47,1157,1,382
1,208,26796,-6631,-14699,3755,316,-8,1153,1,382
1,209,26801,-6504,-14644,3750,310,-33,1139,1,382
1,210,26806,-6577,-14536,3480,300,-71,1116,1,382
1,211,26811,-6718,-14535,3068,298,-71,1103,1,382
1,212,26816,-6829,-14574,2903,291,-29,1093,1,382
1,213,26821,-6680,-14515,2918,283,34,1078,1,382
1,214,26826,-6638,-14493,3003,277,103,1062,1,382
1,215,26831,-6678,-14430,2933,272,147,1046,1,382
1,216,26836,-6866,-14388,2995,265,193,1030,1,382
1,217,26841,-6922,-14386,3223,258,224,1016,1,382
1,218,26846,-6867,-14386,3455,253,238,1006,1,382
1,219,26851,-6644,-14442,3510,253,238,997,1,382
1,220,26856,-6626,-14407,3767,244,242,978,1,382
1,221,26861,-6836,-14375,3896,235,210,962,1,382
1,222,26866,-7183,-14393,3620,229,160,952,1,382
1,223,26871,-7344,-14427,3363,226,141,939,1,382
1,224,26876,-7385,-14418,3298,223,156,921,1,382
1,225,26881,-7411,-14393,3625,211,180,904,1,382
1,226,26886,-7526,-14225,3779,206,166,886,1,382
1,227,26891,-7785,-14168,3769,201,134,870,1,382
1,228,26896,-7909,-14088,3688,197,110,848,1,382
1,229,26901,-7909,-13994,3822,190,98,830,1,382
1,230,26906,-7758,-13944,3909,183,84,814,1,382
1,231,26911,-7686,-13852,4241,175,61,793,1,382
1,232,26916,-7825,-13775,3773,173,-9,774,1,382
1,233,26921,-8181,-13829,3468,160,-17,756,1,382
1,234,26926,-8230,-13799,3576,155,12,732,1,382
1,235,26931,-8077,-13840,3662,150,32,715,1,382
1,236,26936,-8041,-13827,3386,146,36,691,1,382
1,237,26941,-8181,-13887,3473,143,47,667,1,382
1,238,26946,-8103,-13892,3450,131,48,647,1,382
1,239,26951,-7863,-13815,3658,122,56,626,1,382
1,240,26956,-7815,-13737,3777,117,58,604,1,382
1,241,26961,-8021,-13742,3656,113,51,580,1,382
1,242,26966,-8203,-13782,3474,108,43,560,1,382
1,243,26971,-8189,-13760,3402,101,52,539,1,382
1,244,26976,-8129,-13751,3475,96,67,521,1,382
1,245,26981,-8089,-13687,3616,89,76,497,1,382
1,246,26986,-8147,-13671,3678,83,79,469,1,382
1,247,26991,-8324,-13669,3606,78,81,448,1,382
1,248,26996,-8430,-13617,3664,71,79,430,1,382
1,249,27001,-8248,-13581,3716,66,72,414,1,382
1,250,27006,-8109,-13525,3817,56,67,388,1,382
1,251,27011,-8208,-13476,3947,49,61,364,1,382
1,252,27016,-8419,-13422,3799,40,49,339,1,382
1,253,27021,-8669,-13432,3552,33,49,319,1,382
1,254,27026,-8616,-13387,3447,29,61,296,1,382
1,255,27031,-8462,-13360,3566,17,80,270,1,382
1,256,27036,-8417,-13325,3777,11,98,244,1,382
1,257,27041,-8570,-13310,3687,2,110,214,1,382
1,258,27046,-8805,-13297,3435,-6,123,190,1,382
1,259,27051,-8930,-13266,3432,-16,149,164,1,382
1,260,27056,-8958,-13294,3604,-23,178,139,1,382
1,261,27061,-8944,-13371,3661,-28,195,112,1,382
1,262,27066,-8940,-13389,3716,-35,200,81,1,382
1,263,27071,-8932,-13474,3742,-42,190,57,1,382
1,264,27076,-8899,-13557,3897,-49,165,31,1,382
1,265,27081,-8812,-13580,4055,-55,118,8,1,382
1,266,27086,-8760,-13672,4011,-63,67,-16,1,382
1,267,27091,-8833,-13724,3888,-71,19,-39,1,382
1,268,27096,-8897,-13780,3836,-76,-24,-66,1,382
1,269,27101,-8865,-13775,3803,-81,-66,-93,1,382
1,270,27106,-8754,-13745,3695,-90,-102,-118,1,382
1,271,27111,-8700,-13738,3561,-95,-123,-144,1,382
1,272,27116,-8692,-13767,3457,-102,-132,-170,1,382
1,273,27121,-8766,-13803,3304,-113,-128,-194,1,382
1,274,27126,-8772,-13778,3132,-120,-104,-224,1,382
1,275,27131,-8664,-13742,3188,-130,-64,-258,1,382
1,276,27136,-8615,-13721,3347,-140,-29,-285,1,382
1,277,27141,-8567,-13704,3374,-146,-5,-313,1,382
1,278,27146,-8449,-13686,3382,-154,14,-342,1,382
1,279,27151,-8330,-13685,3475,-166,33,-368,1,382
1,280,27156,-8263,-13640,3591,-171,38,-394,1,382
1,281,27161,-8054,-13675,3560,-179,33,-419,1,382
1,282,27166,-7861,-13709,3452,-187,29,-445,1,382
1,283,27171,-8051,-13756,3210,-203,30,-498,1,382
1,284,27176,-8122,-13912,2990,-211,35,-519,1,382
1,285,27181,-7829,-14023,2865,-218,57,-543,1,382
1,286,27186,-7593,-14040,3006,-227,92,-572,1,382
1,287,27191,-7732,-14135,3150,-235,115,-603,1,382
1,288,27196,-7975,-14288,2994,-238,116,-627,1,382
1,289,27201,-7968,-14319,2749,-246,123,-652,1,382
1,290,27206,-7748,-14265,2849,-256,143,-678,1,382
1,291,27211,-7648,-14280,3178,-264,161,-704,1,382
1,292,27216,-7664,-14373,3307,-267,154,-727,1,382
1,293,27221,-7698,-14421,3153,-273,144,-756,1,382
1,294,27226,-7757,-14374,3065,-279,136,-780,1,382
1,295,27231,-7850,-14381,3217,-288,130,-803,1,382
1,296,27236,-7741,-14406,3313,-294,118,-827,1,382
1,297,27241,-7659,-14399,3281,-299,106,-854,1,382
1,298,27246,-7646,-14383,3148,-307,99,-882,1,382
1,299,27251,-7688,-14375,3173,-317,93,-906,1,382
1,300,27256,-7648,-14391,3233,-326,82,-927,1,382
1,301,27261,-7577,-14391,3244,-334,68,-951,1,382
1,302,27266,-7524,-14433,3220,-341,55,-974,1,382
1,303,27271,-7384,-14494,3207,-348,40,-998,1,382
1,304,27276,-7172,-14501,3269,-355,23,-1020,1,382
1,305,27281,-7049,-14483,3392,-365,-5,-1039,1,382
1,306,27286,-7066,-14569,3321,-370,-46,-1062,1,382
1,307,27291,-7107,-14722,2905,-378,-86,-1085,1,382
1,308,27296,-6946,-14850,2549,-385,-94,-1101,1,382
1,309,27301,-6628,-14973,2433,-393,-78,-1119,1,382
1,310,27306,-6394,-15020,2378,-400,-53,-1140,1,382
1,311,27311,-6383,-15047,2198,-405,-20,-1164,1,382
1,312,27316,-6445,-15033,1864,-414,31,-1190,1,382
1,313,27321,-6536,-15075,1697,-424,103,-1210,1,382
1,314,27326,-6442,-15148,1683,-428,190,-1229,1,382
1,315,27331,-6233,-15281,1845,-434,287,-1252,1,382
1,316,27336,-6208,-15326,2035,-435,370,-1280,1,382
1,317,27341,-6389,-15327,2108,-440,421,-1301,1,382
1,318,27346,-6512,-15288,2203,-445,445,-1318,1,382
1,319,27351,-6393,-15315,2426,-444,447,-1332,1,382
1,320,27356,-5840,-15323,2798,-445,426,-1343,1,382
1,321,27361,-5563,-15295,3194,-445,381,-1363,1,382
1,322,27366,-5583,-15339,3341,-447,296,-1377,1,382
1,323,27371,-5725,-15396,3105,-449,191,-1385,1,382
1,324,27376,-5699,-15507,2741,-455,96,-1394,1,382
1,325,27381,-5557,-15605,2488,-457,28,-1405,1,382
1,326,27386,-5393,-15681,2395,-459,0,-1415,1,382
1,327,27391,-5371,-15616,2324,-463,-2,-1433,1,382
1,328,27396,-5270,-15581,2056,-467,-7,-1443,1,382
1,329,27401,-5324,-15560,1717,-472,0,-1459,1,382
1,330,27406,-5296,-15611,1534,-480,27,-1473,1,382
1,331,27411,-5096,-15707,1537,-486,80,-1484,1,382
1,332,27416,-4806,-15730,1486,-486,153,-1500,1,382
1,333,27421,-4654,-15769,1375,-485,241,-1514,1,382
1,334,27426,-4685,-15769,1231,-486,321,-1527,1,382
1,335,27431,-4758,-15802,1098,-490,387,-1540,1,382
1,336,27436,-4551,-15840,1163,-489,448,-1548,1,382
1,337,27441,-3963,-15882,1382,-490,510,-1559,1,382
1,338,27446,-3610,-15867,1576,-486,544,-1569,1,382
1,339,27451,-3597,-15948,1706,-482,563,-1575,1,382
1,340,27456,-3704,-16028,1551,-473,554,-1581,1,382
1,341,27461,-3549,-16079,1300,-470,540,-1584,1,382
1,342,27466,-3358,-16177,1383,-469,549,-1586,1,382
1,343,27471,-3231,-16230,1450,-466,550,-1590,1,382
1,344,27476,-3246,-16314,1293,-463,550,-1593,1,382
1,345,27481,-3281,-16292,1133,-458,569,-1601,1,382
1,346,27486,-3244,-16293,1086,-454,594,-1602,1,382
1,347,27491,-3149,-16317,1307,-449,625,-1607,1,382
1,348,27496,-2993,-16230,1242,-446,640,-1611,1,382
1,349,27501,-2816,-16214,1260,-444,663,-1615,1,382
1,350,27506,-2760,-16154,1418,-438,686,-1617,1,382
1,351,27511,-2498,-16007,1439,-433,685,-1619,1,382
1,352,27516,-2340,-15982,1373,-435,683,-1615,1,382
1,353,27521,-2209,-15897,1115,-430,692,-1616,1,382
1,354,27526,-2091,-15866,1020,-424,725,-1616,1,382
1,355,27531,-2099,-15750,924,-421,763,-1617,1,382
1,356,27536,-1937,-15666,435,-416,849,-1615,1,382
1,357,27541,-1805,-15551,269,-411,920,-1617,1,382
1,358,27546,-1871,-15610,202,-409,996,-1621,1,382
1,359,27551,-2146,-15878,100,-400,1069,-1623,1,382
1,360,27556,-2318,-16179,70,-388,1131,-1621,1,382
1,361,27561,-2170,-16358,396,-380,1181,-1623,1,382
1,362,27566,-2003,-16341,1149,-376,1200,-1625,1,382
1,363,27571,-1874,-16358,1793,-366,1157,-1625,1,382
1,364,27576,-1815,-16388,2087,-354,1057,-1620,1,382
1,365,27581,-1672,-16302,2172,-347,919,-1608,1,382
1,366,27586,-1349,-16203,2571,-345,758,-1600,1,382
1,367,27591,-1218,-16173,2747,-339,556,-1588,1,382
1,368,27596,-1073,-16307,2511,-331,350,-1574,1,382
1,369,27601,-956,-16308,1862,-328,184,-1563,1,382
1,370,27606,-1020,-16525,1547,-329,75,-1546,1,382
1,371,27611,-690,-16053,1067,-333,-23,-1554,1,382
1,372,27616,-494,-16111,967,-334,-87,-1523,1,382
1,373,27621,-382,-16438,239,-335,-150,-1501,1,382
1,374,27626,-177,-16107,-230,-344,-130,-1519,1,382
1,375,27631,-144,-16212,-218,-344,-57,-1496,1,382
1,376,27636,205,-16422,-486,-344,5,-1481,1,382
1,377,27641,593,-16365,-588,-349,84,-1484,1,382
1,378,27646,616,-16145,-580,-343,151,-1471,1,382
1,379,27651,1073,-16794,-766,-347,226,-1450,1,382
1,380,27656,688,-16830,-532,-347,314,-1454,1,382
1,381,27661,684,-15294,-848,-348,370,-1465,1,382
1,382,27666,-2797,-18134,-13319,-315,526,-1385,1,382
1,383,27671,-15668,-24618,-32768,-58,1279,-1849,1,382
1,384,27676,-32768,-13749,-32768,-444,7213,-1569,1,382
1,385,27681,-9297,-8115,-2122,3,20957,100,1,382
1,386,27686,26900,-10314,32767,223,28923,-386,1,382
1,387,27691,32767,-18741,32767,535,18859,-1384,1,382
1,388,27696,-10073,-17557,31715,582,5067,-1576,1,382
1,389,27701,-32768,-20843,27993,695,-7570,397,1,382
1,390,27706,-20166,-68,8060,1138,-17018,1424,1,382
1,391,27711,11707,-18358,-21468,21,-15764,2445,1,382
1,392,27716,18300,-24383,-32768,-51,-3969,570,1,382
1,393,27721,-9686,-15671,-5069,-155,4997,-1376,1,382
1,394,27726,-29430,-10018,32767,-2,6501,-760,1,382
1,395,27731,-11891,-7684,25064,171,-2610,556,1,382
1,396,27736,18398,-12907,7817,807,-8288,1178,1,382
1,397,27741,7615,-22113,-15392,331,-7188,988,1,382
1,398,27746,-13894,-21800,-12738,38,-4387,237,1,382
1,399,27751,-20918,-11746,15395,102,-2002,-73,1,382
1,400,27756,-268,-13667,-575,-12,-4124,585,1,382
1,401,27761,15750,-17824,-10848,328,-4275,707,1,382
1,402,27766,2907,-19471,-6103,197,-2840,182,1,382
1,403,27771,-12308,-14769,-3524,116,-2492,-33,1,382
1,404,27776,-8493,-15109,-5989,203,-2563,478,1,382
1,405,27781,5172,-16933,-13528,114,-1670,533,1,382
1,406,27786,11021,-15627,-9546,99,201,112,1,382
1,407,27791,4664,-17419,-1205,102,1164,-16,1,382
1,408,27796,-4099,-15288,4042,105,864,-33,1,382
1,409,27801,-1422,-14667,-3066,156,-1,222,1,382
1,410,27806,5359,-15804,-5787,125,396,299,1,382
1,411,27811,7739,-16058,-995,91,1440,90,1,382
1,412,27816,3511,-15962,7124,61,1654,-29,1,382
1,413,27821,-350,-15736,5829,99,535,85,1,382
1,414,27826,859,-15554,-896,168,-447,257,1,382
1,415,27831,2911,-15931,-2524,108,-248,258,1,382
1,416,27836,2632,-15609,-50,83,382,148,1,382
1,417,27841,1170,-16409,5137,75,587,87,1,382
1,418,27846,-790,-16225,3083,67,-74,153,1,382
1,419,27851,1145,-15940,-33,101,-585,167,1,382
1,420,27856,591,-15764,49,62,-534,182,1,382
1,421,27861,1039,-16910,1654,52,-330,162,1,382
1,422,27866,521,-16087,2620,43,-224,83,1,382
1,423,27871,677,-16697,1201,49,-404,122,1,382
1,424,27876,775,-16574,511,32,-629,122,1,382
1,425,27881,1302,-16601,287,25,-738,119,1,382
1,426,27886,861,-16661,1019,13,-641,102,1,382
1,427,27891,1007,-16539,-365,11,-586,90,1,382
1,428,27896,1200,-16848,-1335,6,-450,88,1,382
1,429,27901,1544,-16488,-59,-24,-266,49,1,382
1,430,27906,1464,-16507,-14,-29,-217,42,1,382
1,431,27911,1483,-16497,-791,-31,-115,28,1,382
1,432,27916,1522,-16499,-780,-42,32,21,1,382
1,433,27921,1657,-16545,34,-52,138,12,1,382
1,434,27926,1704,-16195,1121,-58,136,-10,1,382
1,435,27931,1774,-16194,857,-67,48,2,1,382
1,436,27936,1506,-16411,795,-75,-27,16,1,382
1,437,27941,1898,-16489,-608,-69,3,12,1,382
1,438,27946,903,-15979,1860,-80,130,-36,1,382
1,439,27951,1642,-16132,966,-98,-65,3,1,382
1,440,27956,1387,-16177,1417,-90,-76,1,1,382
1,441,27961,1528,-16107,82,-98,-153,-20,1,382
1,442,27966,1372,-16103,431,-108,-115,-14,1,382
1,443,27971,1188,-16099,1049,-117,-114,-21,1,382
1,444,27976,1271,-15989,900,-121,-171,-28,1,382
1,445,27981,1261,-16146,81,-122,-189,-26,1,382
1,446,27986,1232,-16138,-150,-127,-123,-32,1,382
1,447,27991,1180,-16136,358,-138,-46,-43,1,382
1,448,27996,1356,-16078,713,-144,-28,-49,1,382
1,449,28001,1448,-16179,478,-147,-41,-52,1,382
1,450,28006,1528,-16107,42,-151,-29,-57,1,382
1,451,28011,1436,-16108,187,-155,25,-58,1,382
1,452,28016,1469,-16002,563,-162,56,-63,1,382
1,453,28021,1492,-16005,766,-164,49,-61,1,382
1,454,28026,1632,-16021,535,-168,36,-61,1,382
1,455,28031,1627,-16015,467,-170,48,-61,1,382
1,456,28036,1524,-16060,679,-174,55,-63,1,382
1,457,28041,1561,-16197,843,-177,42,-64,1,382
1,458,28046,1793,-16346,830,-178,-3,-61,1,382
1,459,28051,1857,-16502,651,-178,-46,-58,1,382
1,460,28056,1572,-16543,533,-178,-74,-60,1,382
1,461,28061,1336,-16528,440,-181,-103,-58,1,382
1,462,28066,1339,-16561,294,-183,-126,-51,1,382
1,463,28071,1435,-16581,197,-180,-134,-48,1,382
1,464,28076,1444,-16637,92,-179,-123,-50,1,382
1,465,28081,1405,-16642,5,-178,-103,-52,1,382
1,466,28086,1331,-16606,-65,-178,-86,-51,1,382
1,467,28091,1389,-16594,-130,-180,-61,-50,1,382
1,468,28096,1450,-16534,-139,-182,-25,-51,1,382
1,469,28101,1483,-16490,-174,-180,15,-50,1,382
1,470,28106,1370,-16490,-148,-179,52,-50,1,382
1,471,28111,1280,-16431,-27,-178,97,-52,1,382
1,472,28116,1272,-16395,233,-178,129,-52,1,382
1,473,28121,1312,-16410,356,-179,138,-51,1,382
1,474,28126,1305,-16420,390,-176,138,-50,1,382
1,475,28131,1191,-16422,480,-175,140,-50,1,382
1,476,28136,1153,-16452,615,-175,134,-50,1,382
1,477,28141,1128,-16488,629,-172,110,-48,1,382
1,478,28146,1118,-16513,755,-167,88,-43,1,382
1,479,28151,1101,-16540,703,-165,62,-41,1,382
1,480,28156,1060,-16469,729,-165,29,-44,1,382
1,481,28161,1088,-16458,688,-164,-6,-40,1,382
1,482,28166,1076,-16502,537,-160,-40,-37,1,382
1,483,28171,1072,-16531,500,-158,-58,-37,1,382
1,484,28176,1088,-16499,428,-155,-70,-33,1,382
1,485,28181,1143,-16483,259,-152,-68,-33,1,382
1,486,28186,1170,-16414,133,-151,-63,-34,1,382
1,487,28191,1182,-16387,143,-149,-47,-32,1,382
1,488,28196,1198,-16376,173,-143,-38,-30,1,382
1,489,28201,1217,-16300,127,-140,-33,-30,1,382
1,490,28206,1299,-16325,-31,-139,-23,-28,1,382
1,491,28211,1302,-16392,-3,-133,-1,-26,1,382
1,492,28216,1355,-16388,158,-129,9,-25,1,382
1,493,28221,1357,-16375,-14,-123,-5,-23,1,382
1,494,28226,1359,-16387,21,-119,3,-23,1,382
1,495,28231,1353,-16471,-106,-114,9,-16,1,382
1,496,28236,1302,-16533,14,-110,22,-17,1,382
1,497,28241,1290,-16511,81,-104,24,-14,1,382
1,498,28246,1326,-16556,32,-94,17,-9,1,382
1,499,28251,1438,-16561,11,-93,24,-8,1,382
1,500,28256,1259,-16633,165,-85,24,-6,1,382
1,501,28261,1076,-16626,176,-84,19,-5,1,382
1,502,28266,1042,-16543,-19,-72,26,3,1,382
1,503,28271,1040,-16487,91,-70,35,3,1,382
1,504,28276,1013,-16404,273,-63,32,4,1,382
1,505,28281,1013,-16433,217,-56,23,5,1,382
1,506,28286,1031,-16420,105,-52,22,8,1,382
1,507,28291,1093,-16431,94,-48,35,9,1,382
1,508,28296,1090,-16396,149,-43,43,10,1,382
1,509,28301,1133,-16444,192,-38,40,11,1,382
1,510,28306,1289,-16456,11,-36,36,11,1,382
1,511,28311,1307,-16481,-27,-30,42,16,1,382
1,512,28316,1159,-16476,3,-24,51,17,1,382
1,513,28321,1088,-16527,10,-20,46,21,1,382
1,514,28326,1131,-16571,-58,-16,50,26,1,382
1,515,28331,1207,-16583,-45,-11,65,23,1,382
1,516,28336,1163,-16583,48,-6,77,26,1,382
1,517,28341,1135,-16500,142,0,71,27,1,382
1,518,28346,1127,-16503,209,5,45,31,1,382
1,519,28351,1149,-16491,161,12,25,34,1,382
1,520,28356,1162,-16472,164,16,18,39,1,382
1,521,28361,1119,-16426,144,21,12,42,1,382
1,522,28366,1073,-16378,155,24,3,44,1,382
1,523,28371,1100,-16333,86,29,-12,46,1,382
1,524,28376,1117,-16280,56,35,-20,43,1,382
1,525,28381,1125,-16262,52,39,-17,47,1,382
1,526,28386,1116,-16253,62,40,-11,49,1,382
1,527,28391,1151,-16221,60,44,-8,49,1,382
1,528,28396,1189,-16209,35,50,-6,53,1,382
1,529,28401,1238,-16160,31,53,-1,53,1,382
1,530,28406,1272,-16142,43,55,4,56,1,382
1,531,28411,1277,-16157,35,59,6,57,1,382
1,532,28416,1280,-16212,-77,63,13,60,1,382
1,533,28421,1274,-16254,-146,65,28,60,1,382
1,534,28426,1265,-16289,-129,71,48,60,1,382
1,535,28431,1207,-16262,-160,75,68,59,1,382
1,536,28436,1133,-16221,-176,75,87,59,1,382
1,537,28441,1048,-16243,-207,79,104,62,1,382
1,538,28446,977,-16229,-175,81,124,62,1,382
1,539,28451,947,-16280,-57,83,144,59,1,382
1,540,28456,970,-16335,48,86,160,59,1,382
1,541,28461,972,-16335,160,90,160,61,1,382
1,542,28466,990,-16385,194,90,155,61,1,382
1,543,28471,885,-16387,359,93,141,60,1,382
1,544,28476,818,-16414,427,95,123,62,1,382
1,545,28481,798,-16467,406,96,102,64,1,382
1,546,28486,771,-16504,459,100,87,64,1,382
1,547,28491,718,-16538,556,101,69,63,1,382
1,548,28496,724,-16495,725,101,40,59,1,382
1,549,28501,745,-16534,709,104,-4,62,1,382
1,550,28506,824,-16562,599,106,-49,64,1,382
1,551,28511,784,-16620,487,107,-90,63,1,382
1,552,28516,791,-16590,379,107,-119,63,1,382
1,553,28521,834,-16584,262,108,-141,64,1,382
1,554,28526,894,-16563,171,110,-153,62,1,382
1,555,28531,930,-16567,52,110,-150,61,1,382
1,556,28536,922,-16575,-68,111,-134,59,1,382
1,557,28541,951,-16545,-118,111,-108,57,1,382
1,558,28546,962,-16582,-150,110,-76,52,1,382
1,559,28551,970,-16542,-161,110,-41,50,1,382
1,560,28556,1041,-16488,-111,110,-3,48,1,382
1,561,28561,1093,-16513,-27,112,24,50,1,382
1,562,28566,1175,-16544,40,109,43,46,1,382
1,563,28571,1147,-16594,77,112,55,45,1,382
1,564,28576,1158,-16560,121,113,55,47,1,382
1,565,28581,1194,-16554,209,112,56,49,1,382
1,566,28586,1195,-16572,314,112,52,49,1,382
1,567,28591,1208,-16578,274,112,42,50,1,382
1,568,28596,1163,-16610,189,112,35,50,1,382
1,569,28601,1108,-16640,182,114,32,53,1,382
1,570,28606,1083,-16659,288,114,27,52,1,382
1,571,28611,1061,-16744,303,113,19,53,1,382
1,572,28616,1052,-16867,252,111,18,52,1,382
1,573,28621,1046,-16915,234,111,12,52,1,382
1,574,28626,986,-16878,251,115,0,53,1,382
1,575,28631,992,-16806,346,113,-14,53,1,382
1,576,28636,1106,-16750,186,112,-29,55,1,382
1,577,28641,1041,-16744,52,109,-16,54,1,382
1,578,28646,1005,-16761,83,106,5,53,1,382
1,579,28651,913,-16694,86,106,27,53,1,382
1,580,28656,969,-16680,164,106,42,54,1,382
1,581,28661,1006,-16737,205,103,65,53,1,382
1,582,28666,1009,-16754,245,101,86,50,1,382
1,583,28671,976,-16791,362,99,94,49,1,382
1,584,28676,900,-16769,523,100,90,50,1,382
1,585,28681,792,-16728,543,101,75,52,1,382
1,586,28686,794,-16723,571,99,62,54,1,382
1,587,28691,756,-16725,581,98,46,55,1,382
1,588,28696,781,-16691,555,94,24,53,1,382
1,589,28701,768,-16604,581,91,-4,56,1,382
1,590,28706,830,-16623,434,92,-30,59,1,382
1,591,28711,771,-16700,625,92,-40,53,1,382
1,592,28716,876,-16822,402,86,-44,58,1,382
1,593,28721,730,-16635,305,83,-30,54,1,382
1,594,28726,809,-16680,200,82,-17,54,1,382
1,595,28731,739,-16613,354,80,-8,52,1,382
1,596,28736,852,-16624,335,77,-7,53,1,382
1,597,28741,869,-16627,484,77,-6,54,1,382
1,598,28746,851,-16609,437,77,-13,51,1,382
1,599,28751,803,-16618,478,75,-13,53,1,382
1,600,28756,801,-16621,501,72,-19,54,1,382
1,601,28761,785,-16608,556,72,-29,56,1,382
1,602,28766,776,-16579,573,72,-46,57,1,382
1,603,28771,762,-16596,529,72,-66,57,1,382
1,604,28776,688,-16553,476,68,-81,54,1,382
1,605,28781,696,-16488,447,63,-93,56,1,382
1,606,28786,702,-16462,494,61,-99,56,1,382
1,607,28791,785,-16429,481,61,-100,56,1,382
1,608,28796,783,-16455,327,61,-92,54,1,382
1,609,28801,750,-16464,284,60,-79,54,1,382
1,610,28806,727,-16462,339,55,-69,50,1,382
1,611,28811,750,-16449,318,52,-62,50,1,382
1,612,28816,844,-16378,297,53,-51,51,1,382
1,613,28821,884,-16369,323,50,-32,50,1,382
1,614,28826,862,-16381,390,47,-20,48,1,382
1,615,28831,829,-16376,492,46,-21,52,1,382
1,616,28836,895,-16383,566,45,-31,50,1,382
1,617,28841,938,-16403,488,45,-37,50,1,382
1,618,28846,832,-16382,418,43,-39,49,1,382
1,619,28851,772,-16379,466,40,-41,48,1,382
1,620,28856,754,-16340,505,39,-46,46,1,382
1,621,28861,738,-16339,493,37,-50,47,1,382
1,622,28866,752,-16330,449,33,-47,47,1,382
1,623,28871,779,-16362,446,32,-39,43,1,382
1,624,28876,734,-16370,408,29,-39,42,1,382
1,625,28881,747,-16355,390,29,-44,43,1,382
1,626,28886,806,-16395,364,27,-44,41,1,382
1,627,28891,777,-16413,434,25,-41,42,1,382
1,628,28896,761,-16456,402,20,-37,40,1,382
1,629,28901,745,-16496,387,21,-32,40,1,382
1,630,28906,751,-16459,396,24,-25,39,1,382
1,631,28911,774,-16447,461,23,-22,37,1,382
1,632,28916,749,-16463,507,17,-27,39,1,382
1,633,28921,835,-16448,507,13,-35,38,1,382
1,634,28926,959,-16469,485,13,-43,36,1,382
1,635,28931,919,-16480,512,12,-49,34,1,382
1,636,28936,888,-16451,507,11,-57,34,1,382
1,637,28941,830,-16395,437,9,-64,33,1,382
1,638,28946,807,-16366,361,13,-67,36,1,382
1,639,28951,803,-16367,332,10,-63,35,1,382
1,640,28956,818,-16336,270,4,-57,34,1,382
1,641,28961,778,-16244,265,3,-52,33,1,382
1,642,28966,802,-16150,268,4,-49,30,1,382
1,643,28971,834,-16124,352,2,-47,29,1,382
1,644,28976,810,-16086,410,1,-44,28,1,382
1,645,28981,788,-16067,417,0,-43,29,1,382
1,646,28986,754,-16098,413,-3,-41,27,1,382
1,647,28991,763,-16093,572,-3,-40,25,1,382
1,648,28996,742,-16098,666,-5,-43,27,1,382
1,649,29001,784,-16181,586,-12,-54,24,1,382
1,650,29006,703,-16224,643,-13,-65,22,1,382
1,651,29011,716,-16225,744,-15,-75,22,1,382
1,652,29016,739,-16261,709,-17,-86,22,1,382
1,653,29021,734,-16351,578,-19,-91,24,1,382
1,654,29026,633,-16400,517,-19,-89,20,1,382
1,655,29031,616,-16468,498,-22,-89,21,1,382
1,656,29036,644,-16443,470,-22,-91,19,1,382
1,657,29041,603,-16482,456,-26,-87,14,1,382
1,658,29046,598,-16503,380,-28,-76,15,1,382
1,659,29051,637,-16532,326,-27,-61,13,1,382
1,660,29056,618,-16565,315,-28,-49,11,1,382
1,661,29061,574,-16564,381,-31,-44,11,1,382
1,662,29066,589,-16504,384,-31,-41,8,1,382
1,663,29071,573,-16456,377,-34,-35,7,1,382
1,664,29076,566,-16441,412,-36,-24,2,1,382
1,665,29081,561,-16440,518,-36,-13,1,1,382
1,666,29086,628,-16426,626,-37,-13,-1,1,382
1,667,29091,664,-16408,639,-38,-14,0,1,382
1,668,29096,703,-16419,639,-38,-14,-3,1,382
1,669,29101,700,-16458,616,-40,-21,-5,1,382
1,670,29106,667,-16479,629,-40,-33,-4,1,382
1,671,29111,688,-16488,545,-42,-38,-3,1,382
1,672,29116,674,-16505,521,-43,-41,-5,1,382
1,673,29121,682,-16564,518,-44,-42,-6,1,382
1,674,29126,684,-16545,483,-44,-43,-5,1,382
1,675,29131,667,-16557,533,-41,-50,-6,1,382
1,676,29136,680,-16553,520,-43,-57,-7,1,382
1,677,29141,672,-16607,469,-42,-62,-7,1,382
1,678,29146,694,-16604,489,-44,-62,-9,1,382
1,679,29151,755,-16606,460,-45,-63,-11,1,382
1,680,29156,780,-16596,485,-44,-68,-12,1,382
1,681,29161,737,-16577,482,-43,-68,-12,1,382
1,682,29166,745,-16554,447,-45,-62,-11,1,382
1,683,29171,780,-16513,357,-46,-50,-12,1,382
1,684,29176,790,-16519,282,-48,-32,-14,1,382
1,685,29181,806,-16520,284,-45,-13,-15,1,382
1,686,29186,803,-16495,326,-47,5,-17,1,382
1,687,29191,758,-16530,313,-49,20,-19,1,382
1,688,29196,815,-16512,347,-48,32,-17,1,382
1,689,29201,805,-16524,389,-50,46,-19,1,382
1,690,29206,780,-16536,431,-48,52,-22,1,382
1,691,29211,792,-16561,443,-49,53,-22,1,382
1,692,29216,733,-16581,514,-46,49,-23,1,382
1,693,29221,685,-16588,531,-46,43,-23,1,382
1,694,29226,669,-16593,548,-48,32,-21,1,382
1,695,29231,651,-16619,538,-46,21,-21,1,382
1,696,29236,670,-16632,547,-44,14,-22,1,382
1,697,29241,640,-16647,560,-45,7,-24,1,382
1,698,29246,629,-16604,617,-42,1,-26,1,382
1,699,29251,586,-16557,624,-42,-5,-25,1,382
1,700,29256,578,-16595,613,-45,-18,-24,1,382
1,701,29261,612,-16609,548,-44,-26,-24,1,382
1,702,29266,609,-16599,531,-44,-32,-26,1,382
1,703,29271,581,-16607,515,-45,-39,-25,1,382
1,704,29276,628,-16602,501,-40,-46,-24,1,382
1,705,29281,660,-16569,408,-38,-51,-26,1,382
1,706,29286,673,-16567,375,-41,-43,-28,1,382
1,707,29291,708,-16569,346,-44,-36,-30,1,382
1,708,29296,738,-16521,393,-40,-32,-31,1,382
1,709,29301,754,-16510,349,-35,-23,-31,1,382
1,710,29306,720,-16463,301,-37,-10,-32,1,382
1,711,29311,741,-16478,347,-38,1,-32,1,382
1,712,29316,756,-16432,417,-36,8,-32,1,382
1,713,29321,755,-16396,466,-34,10,-31,1,382
1,714,29326,817,-16423,485,-34,13,-32,1,382
1,715,29331,809,-16408,535,-33,13,-35,1,382
1,716,29336,763,-16376,520,-32,13,-35,1,382
1,717,29341,759,-16383,511,-32,6,-30,1,382
1,718,29346,754,-16396,521,-29,3,-34,1,382
1,719,29351,795,-16382,564,-30,2,-32,1,382
1,720,29356,798,-16378,574,-29,-9,-30,1,382
1,721,29361,792,-16350,476,-28,-21,-31,1,382
1,722,29366,685,-16386,354,-26,-34,-30,1,382
1,723,29371,629,-16402,338,-25,-31,-35,1,382
1,724,29376,582,-16452,334,-23,-22,-34,1,382
1,725,29381,629,-16472,316,-21,-11,-33,1,382
1,726,29386,660,-16460,384,-21,6,-36,1,382
1,727,29391,712,-16438,436,-22,18,-40,1,382
1,728,29396,728,-16444,549,-19,22,-37,1,382
1,729,29401,776,-16411,536,-17,23,-38,1,382
1,730,29406,839,-16380,495,-16,24,-39,1,382
1,731,29411,889,-16332,526,-17,24,-39,1,382
1,732,29416,872,-16323,564,-19,18,-38,1,382
1,733,29421,863,-16372,465,-18,11,-36,1,382
1,734,29426,839,-16444,403,-15,6,-35,1,382
1,735,29431,801,-16539,365,-13,7,-36,1,382
1,736,29436,744,-16604,333,-13,5,-36,1,382
1,737,29441,755,-16611,345,-10,1,-35,1,382
1,738,29446,784,-16550,357,-9,-2,-33,1,382
1,739,29451,752,-16565,309,-7,-5,-36,1,382
1,740,29456,694,-16583,270,-7,0,-37,1,382
1,741,29461,703,-16561,370,-8,5,-35,1,382
1,742,29466,702,-16570,435,-5,8,-37,1,382
1,743,29471,730,-16537,419,-4,12,-38,1,382
1,744,29476,772,-16493,434,-7,19,-39,1,382
1,745,29481,789,-16562,445,-5,21,-39,1,382
1,746,29486,843,-16537,438,-2,13,-37,1,382
1,747,29491,888,-16551,421,-1,3,-35,1,382
1,748,29496,869,-16541,331,2,5,-36,1,382
1,749,29501,793,-16584,328,3,11,-39,1,382
1,750,29506,777,-16573,297,1,17,-38,1,382
1,751,29511,805,-16557,291,0,21,-38,1,382
1,752,29516,773,-16558,328,0,26,-37,1,382
1,753,29521,743,-16591,355,3,32,-39,1,382
1,754,29526,742,-16611,347,6,32,-38,1,382
1,755,29531,789,-16572,322,7,30,-38,1,382
1,756,29536,800,-16551,369,6,29,-37,1,382
1,757,29541,842,-16539,401,6,22,-35,1,382
1,758,29546,828,-16505,368,8,17,-36,1,382
1,759,29551,796,-16490,356,11,13,-39,1,382
1,760,29556,788,-16510,385,11,12,-40,1,382
1,761,29561,777,-16467,434,10,11,-39,1,382
1,762,29566,857,-16436,452,11,9,-37,1,382
1,763,29571,794,-16458,447,12,10,-37,1,382
1,764,29576,754,-16429,389,12,12,-39,1,382
1,765,29581,777,-16403,410,13,16,-38,1,382
1,766,29586,799,-16433,392,11,17,-38,1,382
1,767,29591,797,-16441,389,9,20,-38,1,382
1,768,29596,789,-16464,425,9,24,-39,1,382
1,769,29601,827,-16494,395,13,23,-41,1,382
1,770,29606,785,-16494,420,14,19,-39,1,382
1,771,29611,764,-16537,448,12,18,-37,1,382
1,772,29616,751,-16515,413,12,16,-35,1,382
1,773,29621,782,-16548,381,11,15,-40,1,382
1,774,29626,820,-16619,331,12,16,-38,1,382
1,775,29631,743,-16613,362,15,20,-40,1,382
1,776,29636,729,-16645,365,14,15,-39,1,382
1,777,29641,742,-16665,420,14,11,-37,1,382
1,778,29646,773,-16626,448,16,7,-40,1,382
1,779,29651,799,-16585,413,15,1,-40,1,382
1,780,29656,784,-16617,433,13,-5,-40,1,382
1,781,29661,791,-16622,462,16,-16,-38,1,382
1,782,29666,777,-16591,421,17,-31,-36,1,382
1,783,19671,26,-16459,1538,18,-131,8,1,382
1,784,19676,-79,-16515,1473,21,-139,8,1,382
1,785,19681,-27,-16508,1553,19,-138,9,1,382
1,786,19686,-45,-16448,1659,18,-129,9,1,382
1,787,19691,-14,-16367,1829,19,-115,10,1,382
1,788,19696,17,-16367,2005,21,-107,10,1,382
1,789,19701,-25,-16410,2032,19,-100,8,1,382
1,790,19706,-149,-16399,1928,17,-94,9,1,382
1,791,19711,-155,-16375,1821,16,-84,5,1,382
1,792,19716,-122,-16401,1915,17,-62,4,1,382
1,793,19721,-68,-16451,1923,14,-45,3,1,382
1,794,19726,-86,-16375,2008,13,-38,3,1,382
1,795,19731,-131,-16320,2010,11,-36,1,1,382
1,796,19736,-134,-16385,1896,12,-34,1,1,382
1,797,19741,-78,-16427,1832,10,-31,2,1,382
1,798,19746,-142,-16457,1818,13,-20,3,1,382
1,799,19751,-97,-16429,1830,11,-21,2,1,382
1,800,19756,-76,-16353,1811,12,-29,3,1,382
1,801,19761,-65,-16355,1707,14,-35,3,1,382
1,802,19766,-88,-16390,1545,17,-43,1,1,382
1,803,19771,-88,-16471,1445,20,-50,4,1,382
1,804,19776,-38,-16557,1511,21,-52,5,1,382
1,805,19781,137,-16524,1739,20,-61,9,1,382
1,806,19786,245,-16355,1998,17,-67,14,1,382
1,807,19791,206,-16283,2112,17,-69,16,1,382
1,808,19796,133,-16325,2110,19,-69,14,1,382
1,809,19801,46,-16372,1933,20,-71,16,1,382
1,810,19806,11,-16421,1768,21,-63,15,1,382
1,811,19811,50,-16397,1579,17,-52,16,1,382
1,812,19816,104,-16435,1690,18,-46,18,1,382
1,813,19821,121,-16424,1863,18,-52,19,1,382
1,814,19826,64,-16371,1924,21,-66,21,1,382
1,815,19831,31,-16322,1844,19,-59,19,1,382
1,816,19836,58,-16329,1796,19,-37,16,1,382
1,817,19841,124,-16373,1766,18,-11,17,1,382
1,818,19846,110,-16438,1751,17,9,17,1,382
1,819,19851,85,-16440,1718,21,18,15,1,382
1,820,19856,65,-16392,1661,18,26,11,1,382
1,821,19861,60,-16437,1671,18,69,12,1,382
1,822,19866,94,-16435,1655,18,95,10,1,382
1,823,19871,126,-16379,1653,17,118,9,1,382
1,824,19876,108,-16395,1526,18,139,8,1,382
1,825,19881,75,-16453,1469,20,153,4,1,382
1,826,19886,85,-16484,1354,19,170,4,1,382
1,827,19891,43,-16485,1334,17,196,2,1,382
1,828,19896,14,-16484,1382,16,223,2,1,382
1,829,19901,-22,-16431,1355,19,245,-2,1,382
1,830,19906,-83,-16454,1405,20,272,-5,1,382
1,831,19911,-98,-16436,1407,21,291,-6,1,382
1,832,19916,-116,-16457,1400,22,314,-7,1,382
1,833,19921,-104,-16470,1474,22,337,-13,1,382
1,834,19926,6,-16453,1650,23,354,-12,1,382
1,835,19931,61,-16397,1848,25,366,-12,1,382
1,836,19936,65,-16390,1920,21,376,-12,1,382
1,837,19941,12,-16340,1949,19,377,-9,1,382
1,838,19946,25,-16306,1927,23,378,-8,1,382
1,839,19951,36,-16344,1900,25,375,-5,1,382
1,840,19956,34,-16404,2007,26,374,-6,1,382
1,841,19961,8,-16388,2038,23,360,-2,1,382
1,842,19966,-26,-16383,2110,22,343,2,1,382
1,843,19971,-19,-16353,2167,20,327,3,1,382
1,844,19976,-2,-16363,2214,20,311,9,1,382
1,845,19981,-57,-16389,2266,20,297,12,1,382
1,846,19986,-187,-16375,2241,20,281,14,1,382
1,847,19991,-252,-16350,2180,21,261,19,1,382
1,848,19996,-361,-16393,2163,19,244,21,1,382
1,849,20001,-379,-16356,2118,20,232,22,1,382
1,850,20006,-404,-16358,2174,21,218,22,1,382
1,851,20011,-459,-16353,2198,19,204,22,1,382
1,852,20016,-572,-16359,2223,18,190,26,1,382
1,853,20021,-654,-16365,2192,18,173,27,1,382
1,854,20026,-628,-16361,2112,18,159,23,1,382
1,855,20031,-759,-16376,2063,17,147,24,1,382
1,856,20036,-829,-16412,2050,20,134,25,1,382
1,857,20041,-884,-16446,2189,21,117,24,1,382
1,858,20046,-888,-16417,2218,20,91,27,1,382
1,859,20051,-874,-16404,2299,18,71,24,1,382
1,860,20056,-814,-16344,2402,16,58,25,1,382
1,861,20061,-819,-16301,2423,18,38,27,1,382
1,862,20066,-806,-16330,2399,20,16,27,1,382
1,863,20071,-748,-16338,2407,18,-8,26,1,382
1,864,20076,-716,-16393,2391,16,-32,25,1,382
1,865,20081,-644,-16373,2396,16,-57,29,1,382
1,866,20086,-547,-16378,2358,14,-76,31,1,382
1,867,20091,-552,-16346,2402,13,-90,31,1,382
1,868,20096,-493,-16340,2306,15,-106,32,1,382
1,869,20101,-435,-16365,2178,16,-114,36,1,382
1,870,20106,-360,-16433,2135,14,-122,33,1,382
1,871,20111,-396,-16380,2097,13,-127,32,1,382
1,872,20116,-357,-16387,2111,11,-133,33,1,382
1,873,20121,-398,-16362,2133,12,-141,35,1,382
1,874,20126,-403,-16352,2103,9,-139,37,1,382
1,875,20131,-355,-16345,2054,8,-124,34,1,382
1,876,20136,-368,-16354,2019,9,-111,31,1,382
1,877,20141,-365,-16392,1968,7,-104,32,1,382
1,878,20146,-399,-16402,1920,5,-97,31,1,382
1,879,20151,-408,-16380,1794,4,-84,27,1,382
1,880,20156,-352,-16349,1696,6,-69,24,1,382
1,881,20161,-334,-16512,1855,5,-50,29,1,382
1,882,20166,-416,-16493,1806,7,-42,21,1,382
1,883,20171,-258,-16315,1857,3,-19,11,1,382
1,884,20176,-319,-16418,1977,3,2,24,1,382
1,885,20181,-343,-16442,1923,2,9,15,1,382
1,886,20186,-441,-16368,1860,3,19,8,1,382
1,887,20191,-541,-16426,1881,1,33,17,1,382
1,888,20196,-479,-16406,1903,-1,46,13,1,382
1,889,20201,-428,-16318,2081,-2,60,6,1,382
1,890,20206,-369,-16294,2153,-2,58,8,1,382
1,891,20211,-408,-16360,2149,3,53,11,1,382
1,892,20216,-437,-16424,2004,1,44,8,1,382
1,893,20221,-450,-16356,1954,-3,46,8,1,382
1,894,20226,-457,-16400,2021,-1,59,5,1,382
1,895,20231,-481,-16346,2079,-2,56,5,1,382
1,896,20236,-494,-16396,2126,-2,52,7,1,382
1,897,20241,-536,-16364,2107,-1,46,4,1,382
1,898,20246,-573,-16395,2080,-3,47,6,1,382
1,899,20251,-616,-16384,2059,-5,53,6,1,382
1,900,20256,-638,-16395,2090,-4,52,5,1,382
1,901,20261,-616,-16386,2116,-3,48,3,1,382
1,902,20266,-596,-16388,2148,-5,39,5,1,382
1,903,20271,-624,-16413,2034,-6,27,6,1,382
1,904,20276,-639,-16391,1974,-4,19,7,1,382
1,905,20281,-609,-16405,2014,-3,13,7,1,382
1,906,20286,-585,-16432,2026,-3,7,8,1,382
1,907,20291,-555,-16387,2118,-5,-4,5,1,382
1,908,20296,-588,-16368,2196,-3,-18,7,1,382
1,909,20301,-690,-16369,2127,-5,-32,10,1,382
1,910,20306,-647,-16356,1975,-5,-41,8,1,382
1,911,20311,-599,-16424,1993,-5,-43,5,1,382
1,912,20316,-568,-16395,1962,-2,-46,7,1,382
1,913,20321,-514,-16404,2044,-2,-54,9,1,382
1,914,20326,-552,-16384,2095,-5,-60,6,1,382
1,915,20331,-548,-16411,2105,-5,-71,7,1,382
1,916,20336,-496,-16390,2051,-3,-74,5,1,382
1,917,20341,-514,-16357,2054,-5,-71,7,1,382
1,918,20346,-498,-16387,2051,-5,-66,5,1,382
1,919,20351,-519,-16426,2064,-5,-70,5,1,382
1,920,20356,-512,-16381,2087,-5,-76,6,1,382
1,921,20361,-520,-16385,2102,-6,-84,3,1,382
1,922,20366,-504,-16350,2083,-6,-89,6,1,382
1,923,20371,-533,-16339,1988,-5,-90,4,1,382
1,924,20376,-528,-16373,1938,-4,-91,3,1,382
1,925,20381,-496,-16411,1898,-3,-91,2,1,382
1,926,20386,-459,-16485,1877,-4,-97,4,1,382
1,927,20391,-465,-16430,1918,-6,-102,9,1,382
1,928,20396,-477,-16403,1930,-5,-106,7,1,382
1,929,20401,-443,-16378,1966,-7,-106,5,1,382
1,930,20406,-429,-16370,1992,-5,-100,2,1,382
1,931,20411,-427,-16408,1977,-5,-95,3,1,382
1,932,20416,-456,-16464,1925,-5,-88,5,1,382
1,933,20421,-452,-16422,1906,-5,-81,4,1,382
1,934,20426,-433,-16413,1941,-3,-73,3,1,382
1,935,20431,-416,-16379,1966,-8,-66,2,1,382
1,936,20436,-447,-16329,1965,-9,-62,0,1,382
1,937,20441,-486,-16362,1900,-5,-56,-1,1,382
1,938,20446,-532,-16372,1838,-4,-48,-2,1,382
1,939,20451,-579,-16455,1832,-4,-41,-5,1,382
1,940,20456,-574,-16464,1853,-4,-40,-5,1,382
1,941,20461,-572,-16397,1922,-10,-39,-6,1,382
1,942,20466,-584,-16368,2034,-9,-37,-8,1,382
1,943,20471,-592,-16363,2060,-5,-41,-7,1,382
1,944,20476,-600,-16383,2030,-6,-48,-6,1,382
1,945,20481,-547,-16407,2011,-7,-53,-5,1,382
1,946,20486,-571,-16413,2026,-4,-62,-5,1,382
1,947,20491,-614,-16412,2071,-7,-74,-5,1,382
1,948,20496,-588,-16376,2032,-4,-87,-3,1,382
1,949,20501,-540,-16369,2061,-5,-99,-2,1,382
1,950,20506,-483,-16379,2106,-3,-111,-2,1,382
1,951,20511,-468,-16356,2126,-6,-123,0,1,382
1,952,20516,-400,-16415,2084,-4,-136,0,1,382
1,953,20521,-403,-16368,2035,-4,-146,0,1,382
1,954,20526,-339,-16379,2038,-4,-158,2,1,382
1,955,20531,-297,-16390,1962,-4,-168,3,1,382
1,956,20536,-290,-16394,1945,-4,-178,6,1,382
1,957,20541,-293,-16402,1931,-4,-182,7,1,382
1,958,20546,-341,-16380,1907,-6,-185,8,1,382
1,959,20551,-325,-16377,1986,-4,-185,11,1,382
1,960,20556,-302,-16397,1955,-4,-186,11,1,382
1,961,20561,-334,-16367,1901,-1,-181,9,1,382
1,962,20566,-356,-16395,1925,-5,-174,5,1,382
1,963,20571,-344,-16408,1879,-5,-166,5,1,382
1,964,20576,-405,-16398,1763,-6,-155,8,1,382
1,965,20581,-401,-16399,1729,-3,-145,6,1,382
1,966,20586,-433,-16462,1691,-5,-135,0,1,382
1,967,20591,-497,-16441,1678,-3,-119,0,1,382
1,968,20596,-450,-16369,1735,-3,-103,0,1,382
1,969,20601,-361,-16356,1785,-1,-88,-4,1,382
1,970,20606,-371,-16418,1842,-2,-73,-8,1,382
1,971,20611,-487,-16426,1791,-1,-65,-8,1,382
1,972,20616,-495,-16429,1735,-1,-56,-10,1,382
1,973,20621,-496,-16429,1722,-2,-42,-10,1,382
1,974,20626,-457,-16416,1776,-4,-29,-10,1,382
1,975,20631,-447,-16424,1792,-5,-20,-13,1,382
1,976,20636,-428,-16358,1790,-3,-14,-17,1,382
1,977,20641,-352,-16380,1854,0,-12,-15,1,382
1,978,20646,-338,-16383,1817,-1,-10,-16,1,382
1,979,20651,-269,-16385,1831,-1,-7,-14,1,382
1,980,20656,-249,-16384,1847,-2,-4,-14,1,382
1,981,20661,-262,-16394,1892,-2,-7,-14,1,382
1,982,20666,-283,-16384,1926,-4,-8,-14,1,382
1,983,20671,-306,-16388,1868,-3,-8,-13,1,382
1,984,20676,-318,-16394,1807,-1,-2,-14,1,382
1,985,20681,-314,-16408,1854,-2,2,-12,1,382
1,986,20686,-293,-16407,1916,-1,3,-11,1,382
1,987,20691,-288,-16365,1947,0,3,-11,1,382
1,988,20696,-316,-16358,1914,-3,2,-14,1,382
1,989,20701,-348,-16367,1888,-1,5,-13,1,382
1,990,20706,-329,-16418,1893,0,4,-13,1,382
1,991,20711,-392,-16441,1870,1,2,-12,1,382
1,992,20716,-382,-16435,1831,1,1,-13,1,382
1,993,20721,-412,-16417,1833,2,3,-14,1,382
1,994,20726,-439,-16421,1863,3,1,-12,1,382
1,995,20731,-460,-16421,1907,1,-3,-11,1,382
1,996,20736,-432,-16412,1927,1,-5,-12,1,382
1,997,20741,-480,-16357,1925,0,-2,-10,1,382
1,998,20746,-513,-16395,1921,1,-8,-13,1,382
1,999,20751,-514,-16397,1920,2,-12,-15,1,382
