event_id,seq,ts_ms,ax,ay,az,gx,gy,gz
16,0,1265065,396,-16416,1847,2,7,-12
16,1,1265070,397,-16404,1830,2,-6,-11
16,2,1265075,375,-16428,1825,1,-21,-11
16,3,1265080,388,-16412,1803,3,-36,-12
16,4,1265085,402,-16418,1765,3,-50,-11
16,5,1265090,396,-16425,1710,2,-59,-9
16,6,1265095,366,-16449,1669,1,-61,-12
16,7,1265100,374,-16417,1603,1,-58,-14
16,8,1265105,382,-16430,1543,1,-55,-11
16,9,1265110,382,-16426,1525,1,-49,-9
16,10,1265115,421,-16403,1616,0,-38,-11
16,11,1265120,430,-16375,1621,-1,-26,-12
16,12,1265125,481,-16379,1499,-2,-13,-15
16,13,1265130,457,-16360,1460,1,-3,-14
16,14,1265135,458,-16363,1509,-1,8,-14
16,15,1265140,455,-16421,1527,1,16,-13
16,16,1265145,459,-16423,1577,-1,18,-15
16,17,1265150,460,-16471,1570,-4,26,-15
16,18,1265155,459,-16525,1582,-2,32,-17
16,19,1265160,499,-16539,1606,-1,29,-17
16,20,1265165,449,-16529,1642,-2,23,-14
16,21,1265170,420,-16513,1634,-2,17,-15
16,22,1265175,414,-16511,1650,-1,9,-13
16,23,1265180,442,-16504,1730,0,1,-12
16,24,1265185,448,-16493,1731,0,-10,-12
16,25,1265190,445,-16437,1659,0,-17,-12
16,26,1265195,399,-16405,1637,0,-22,-14
16,27,1265200,424,-16378,1688,2,-27,-12
16,28,1265205,415,-16381,1705,2,-30,-11
16,29,1265210,449,-16350,1658,0,-32,-12
16,30,1265215,427,-16319,1653,-1,-30,-14
16,31,1265220,433,-16316,1630,0,-26,-10
16,32,1265225,476,-16319,1645,-3,-16,-9
16,33,1265230,486,-16288,1635,-1,-11,-10
16,34,1265235,466,-16315,1599,0,-3,-10
16,35,1265240,489,-16331,1586,-2,7,-9
16,36,1265245,446,-16334,1634,-6,18,-11
16,37,1265250,461,-16319,1639,-6,26,-13
16,38,1265255,462,-16324,1645,-3,31,-11
16,39,1265260,478,-16332,1672,-5,36,-12
16,40,1265265,419,-16365,1624,-6,41,-12
16,41,1265270,426,-16381,1635,-6,40,-9
16,42,1265275,424,-16356,1670,-5,35,-7
16,43,1265280,385,-16390,1669,-1,27,-9
16,44,1265285,381,-16373,1680,-5,20,-10
16,45,1265290,401,-16364,1675,-5,9,-10
16,46,1265295,390,-16362,1688,-4,0,-12
16,47,1265300,413,-16364,1675,-5,-14,-8
16,48,1265305,430,-16371,1670,-6,-21,-4
16,49,1265310,395,-16400,1707,-5,-29,-7
16,50,1265315,381,-16370,1691,-4,-35,-7
16,51,1265320,364,-16400,1635,-2,-38,-6
16,52,1265325,396,-16396,1642,-5,-37,-5
16,53,1265330,386,-16398,1643,-8,-34,-6
16,54,1265335,367,-16359,1636,-9,-29,-8
16,55,1265340,385,-16360,1757,-9,-27,-12
16,56,1265345,428,-16314,1844,-7,-22,-10
16,57,1265350,401,-16294,1886,-7,-21,-9
16,58,1265355,360,-16251,1914,-10,-26,-9
16,59,1265360,285,-16184,2011,-9,-45,-6
16,60,1265365,280,-16107,2210,-7,-80,-7
16,61,1265370,280,-16009,2344,-7,-130,-5
16,62,1265375,317,-15909,2378,-6,-195,-3
16,63,1265380,349,-15910,2437,-4,-280,2
16,64,1265385,380,-15911,2614,-3,-374,7
16,65,1265390,516,-15964,2794,-2,-480,12
16,66,1265395,457,-16116,2882,2,-595,13
16,67,1265400,455,-16256,2694,6,-808,25
16,68,1265405,485,-16319,2588,6,-904,34
16,69,1265410,504,-16371,2466,12,-991,38
16,70,1265415,449,-16497,2249,11,-1070,41
16,71,1265420,228,-16626,2338,12,-1137,44
16,72,1265425,150,-16619,2367,12,-1200,46
16,73,1265430,236,-16607,2385,15,-1251,50
16,74,1265435,270,-16569,2270,17,-1288,51
16,75,1265440,248,-16521,2506,15,-1325,49
16,76,1265445,288,-16458,2696,11,-1389,55
16,77,1265450,94,-16478,2762,14,-1470,58
16,78,1265455,-23,-16482,2594,18,-1549,58
16,79,1265460,-167,-16505,2640,21,-1619,59
16,80,1265465,-203,-16453,2967,20,-1710,63
16,81,1265470,-16,-16449,3144,20,-1823,66
16,82,1265475,-61,-16440,2943,25,-1944,71
16,83,1265480,53,-16464,2638,29,-2055,72
16,84,1265485,218,-16496,2789,26,-2158,76
16,85,1265490,635,-16509,3679,17,-2277,85
16,86,1265495,1689,-16548,4635,12,-2414,106
16,87,1265500,2497,-16720,4504,27,-2551,124
16,88,1265505,2959,-17145,3458,36,-2675,129
16,89,1265510,2442,-17238,3038,30,-2835,137
16,90,1265515,2226,-16977,3686,22,-3051,159
16,91,1265520,1560,-16789,2734,43,-3354,203
16,92,1265525,1029,-16832,1115,62,-3457,209
16,93,1265530,114,-16596,1286,58,-3418,203
16,94,1265535,-437,-16216,1911,54,-3490,220
16,95,1265540,195,-16176,963,69,-3649,250
16,96,1265545,179,-16212,401,79,-3631,245
16,97,1265550,-55,-16374,532,80,-3532,228
16,98,1265555,-484,-16426,521,79,-3473,230
16,99,1265560,-228,-16547,486,80,-3404,234
16,100,1265565,146,-16697,136,86,-3307,233
16,101,1265570,159,-16844,171,86,-3180,222
16,102,1265575,119,-16994,-305,89,-3087,220
16,103,1265580,148,-17053,-535,87,-2956,214
16,104,1265585,443,-17057,-261,83,-2781,210
16,105,1265590,582,-17061,-90,83,-2618,208
16,106,1265595,569,-16996,14,89,-2474,202
16,107,1265600,403,-16923,-12,86,-2320,194
16,108,1265605,233,-16757,381,78,-2153,187
16,109,1265610,72,-16581,611,78,-2017,186
16,110,1265615,223,-16585,564,76,-1888,182
16,111,1265620,74,-16557,1007,71,-1776,176
16,112,1265625,-102,-16483,1565,71,-1727,172
16,113,1265630,-344,-16419,1660,68,-1710,172
16,114,1265635,-453,-16330,1905,69,-1652,168
16,115,1265640,-319,-16394,1849,73,-1604,163
16,116,1265645,-233,-16478,1842,70,-1598,162
16,117,1265650,-39,-16512,2035,66,-1647,159
16,118,1265655,76,-16603,2011,65,-1698,161
16,119,1265660,252,-16653,1930,69,-1715,160
16,120,1265665,506,-16591,2036,71,-1723,160
16,121,1265670,662,-16616,2296,69,-1761,163
16,122,1265675,659,-16895,1985,73,-1829,168
16,123,1265680,782,-16966,2035,73,-1862,174
16,124,1265685,799,-16881,2395,68,-1884,176
16,125,1265690,774,-16829,2554,72,-1930,179
16,126,1265695,767,-16861,2297,76,-1980,182
16,127,1265700,633,-16854,2225,74,-2016,188
16,128,1265705,422,-16786,2277,72,-2064,192
16,129,1265710,229,-16686,2259,77,-2114,194
16,130,1265715,233,-16639,2029,81,-2163,199
16,131,1265720,250,-16536,1832,81,-2212,203
16,132,1265725,290,-16518,1997,79,-2259,203
16,133,1265730,272,-16482,2061,83,-2313,204
16,134,1265735,332,-16525,2183,87,-2362,208
16,135,1265740,396,-16529,2200,87,-2404,209
16,136,1265745,395,-16446,2479,83,-2436,210
16,137,1265750,472,-16432,2556,86,-2471,213
16,138,1265755,556,-16359,2431,88,-2503,215
16,139,1265760,571,-16307,2457,84,-2532,218
16,140,1265765,716,-16197,2885,79,-2612,227
16,141,1265770,655,-16143,2592,81,-2656,228
16,142,1265775,467,-16178,2402,83,-2692,230
16,143,1265780,278,-16114,2584,80,-2743,237
16,144,1265785,138,-16020,2703,76,-2808,242
16,145,1265790,-98,-15973,2461,80,-2864,241
16,146,1265795,-357,-16035,1758,88,-2895,237
16,147,1265800,-564,-16141,1270,88,-2902,240
16,148,1265805,-544,-16165,1278,82,-2909,236
16,149,1265810,-460,-16183,1235,81,-2921,235
16,150,1265815,-412,-16350,949,89,-2910,231
16,151,1265820,-555,-16439,935,90,-2864,221
16,152,1265825,-645,-16376,1194,81,-2802,215
16,153,1265830,-541,-16332,1437,78,-2735,209
16,154,1265835,-446,-16343,1132,84,-2665,202
16,155,1265840,-389,-16430,865,81,-2576,194
16,156,1265845,-231,-16574,1036,72,-2477,188
16,157,1265850,-24,-16566,1736,63,-2393,181
16,158,1265855,252,-16317,1827,57,-2328,173
16,159,1265860,775,-15987,908,59,-2247,170
16,160,1265865,247,-16333,2155,53,-2129,159
16,161,1265870,74,-16565,2551,29,-2111,157
16,162,1265875,-312,-16260,2714,32,-2091,155
16,163,1265880,211,-16397,1213,53,-2092,158
16,164,1265885,353,-16359,1016,39,-2048,155
16,165,1265890,86,-16100,2163,20,-2070,154
16,166,1265895,-67,-15992,2572,31,-2184,152
16,167,1265900,-184,-15968,1879,44,-2267,152
16,168,1265905,32,-16056,1588,38,-2253,156
16,169,1265910,168,-15975,2193,27,-2228,157
16,170,1265915,251,-15968,2469,28,-2270,149
16,171,1265920,52,-16097,1656,36,-2353,148
16,172,1265925,-436,-16242,776,39,-2394,151
16,173,1265930,-1050,-16204,1063,30,-2379,147
16,174,1265935,-793,-16225,1131,26,-2370,136
16,175,1265940,-369,-16311,1202,35,-2343,140
16,176,1265945,455,-16483,729,38,-2321,142
16,177,1265950,603,-16341,1342,22,-2267,127
16,178,1265955,615,-16350,1941,16,-2244,124
16,179,1265960,334,-16314,1874,18,-2203,128
16,180,1265965,381,-16431,1361,21,-2131,126
16,181,1265970,258,-16435,1255,14,-2051,121
16,182,1265975,121,-16335,1468,7,-2023,118
16,183,1265980,142,-16281,1515,5,-2031,119
16,184,1265985,-56,-16208,1211,7,-2036,114
16,185,1265990,-132,-16193,989,5,-2003,109
16,186,1265995,0,-16228,1200,-1,-1966,105
16,187,1266000,461,-16199,1708,-7,-1961,112
16,188,1266005,-329,-16004,2669,-13,-2002,109
16,189,1266010,694,-15954,2329,-12,-2084,87
16,190,1266015,436,-15819,2397,0,-2126,121
16,191,1266020,1354,-16136,1816,2,-2206,132
16,192,1266025,668,-16170,2381,-13,-2284,113
16,193,1266030,-682,-16154,2841,-6,-2428,116
16,194,1266035,-778,-16420,1486,2,-2567,135
16,195,1266040,-693,-16267,1929,-4,-2528,130
16,196,1266045,198,-16307,2193,-11,-2555,128
16,197,1266050,349,-16134,2482,-12,-2630,124
16,198,1266055,850,-16328,1922,-7,-2727,131
16,199,1266060,966,-16525,1528,-8,-2772,137
16,200,1266065,947,-16757,1077,-3,-2794,145
16,201,1266070,575,-16817,1409,-12,-2775,136
16,202,1266075,239,-16737,1306,-14,-2796,138
16,203,1266080,370,-16683,763,-8,-2809,150
16,204,1266085,489,-16546,430,-11,-2755,148
16,205,1266090,483,-16438,524,-13,-2681,142
16,206,1266095,571,-16384,650,-18,-2630,136
16,207,1266100,1763,-16379,716,-23,-2577,143
16,208,1266105,1018,-16237,1422,-25,-2510,162
16,209,1266110,-115,-16352,828,-25,-2488,128
16,210,1266115,-1375,-16336,486,-22,-2428,112
16,211,1266120,-525,-16606,-265,-26,-2347,150
16,212,1266125,619,-16504,380,-48,-2170,145
16,213,1266130,581,-16604,1255,-51,-1969,99
16,214,1266135,86,-16702,269,-55,-1860,108
16,215,1266140,174,-16723,89,-75,-1650,103
16,216,1266145,68,-16594,695,-86,-1457,83
16,217,1266150,137,-16663,631,-88,-1345,77
16,218,1266155,276,-16761,-50,-94,-1234,73
16,219,1266160,407,-16870,-147,-99,-1076,62
16,220,1266165,622,-16874,230,-106,-946,52
16,221,1266170,571,-16708,650,-111,-868,50
16,222,1266175,492,-16545,736,-112,-826,47
16,223,1266180,497,-16453,501,-112,-773,39
16,224,1266185,482,-16336,466,-114,-706,37
16,225,1266190,611,-16241,676,-118,-661,35
16,226,1266195,624,-16181,739,-115,-661,32
16,227,1266200,569,-16227,503,-110,-685,28
16,228,1266205,462,-16278,223,-111,-699,28
16,229,1266210,238,-16170,709,-112,-688,29
16,230,1266215,190,-16189,351,-108,-705,27
16,231,1266220,336,-16345,124,-103,-688,23
16,232,1266225,544,-16412,-43,-104,-638,25
16,233,1266230,783,-16427,97,-107,-572,17
16,234,1266235,669,-16493,63,-105,-523,10
16,235,1266240,299,-16633,-159,-102,-458,6
16,236,1266245,227,-16756,-387,-105,-372,1
16,237,1266250,381,-16778,-288,-107,-270,-1
16,238,1266255,568,-16678,246,-110,-165,-9
16,239,1266260,591,-16605,545,-113,-87,-18
16,240,1266265,380,-16580,472,-113,-18,-23
16,241,1266270,195,-16621,289,-114,66,-27
16,242,1266275,168,-16624,465,-120,153,-31
16,243,1266280,338,-16667,727,-127,229,-38
16,244,1266285,512,-16730,760,-126,285,-41
16,245,1266290,650,-16851,618,-126,341,-45
16,246,1266295,714,-16926,582,-129,403,-45
16,247,1266300,569,-16876,925,-134,467,-53
16,248,1266305,432,-16758,1117,-137,509,-58
16,249,1266310,348,-16721,1144,-138,545,-58
16,250,1266315,405,-16785,991,-137,580,-55
16,251,1266320,520,-16867,903,-138,610,-59
16,252,1266325,506,-16917,1016,-142,623,-64
16,253,1266330,533,-16888,1034,-144,615,-64
16,254,1266335,609,-16924,978,-141,604,-61
16,255,1266340,622,-16952,826,-135,608,-62
16,256,1266345,520,-16894,886,-137,621,-65
16,257,1266350,408,-16864,986,-140,633,-65
16,258,1266355,401,-16845,1000,-140,639,-63
16,259,1266360,505,-16799,958,-141,650,-62
16,260,1266365,567,-16818,1002,-142,678,-65
16,261,1266370,544,-16855,1056,-142,699,-69
16,262,1266375,577,-16885,1054,-142,704,-71
16,263,1266380,580,-16894,1190,-142,697,-65
16,264,1266385,816,-16861,887,-140,679,-68
16,265,1266390,809,-16801,901,-136,678,-62
16,266,1266395,851,-16778,518,-138,655,-61
16,267,1266400,685,-16770,570,-135,641,-64
16,268,1266405,591,-16732,239,-129,615,-55
16,269,1266410,437,-16605,141,-126,617,-59
16,270,1266415,280,-16448,82,-122,635,-63
16,271,1266420,503,-16307,234,-122,671,-58
16,272,1266425,796,-16161,403,-121,718,-55
16,273,1266430,928,-16075,501,-124,770,-61
16,274,1266435,723,-16018,304,-122,823,-67
16,275,1266440,370,-16062,38,-122,880,-66
16,276,1266445,381,-16041,-22,-125,950,-65
16,277,1266450,474,-15992,211,-127,1027,-69
16,278,1266455,460,-15959,487,-129,1097,-76
16,279,1266460,259,-16038,310,-126,1156,-80
16,280,1266465,108,-16089,-75,-123,1222,-79
16,281,1266470,124,-16199,-308,-126,1301,-82
16,282,1266475,366,-16357,-163,-129,1381,-86
16,283,1266480,635,-16430,208,-129,1445,-86
16,284,1266485,779,-16381,609,-130,1499,-93
16,285,1266490,554,-16350,788,-127,1552,-95
16,286,1266495,-316,-16112,636,-128,1655,-100
16,287,1266500,-485,-16058,727,-130,1702,-106
16,288,1266505,-324,-16069,739,-134,1752,-109
16,289,1266510,-31,-16135,730,-136,1823,-112
16,290,1266515,376,-16263,470,-136,1906,-120
16,291,1266520,524,-16330,77,-140,2002,-128
16,292,1266525,701,-16493,244,-146,2085,-135
16,293,1266530,701,-16504,504,-151,2154,-135
16,294,1266535,963,-16445,648,-155,2221,-135
16,295,1266540,981,-16311,140,-150,2300,-138
16,296,1266545,1091,-16344,-127,-145,2391,-144
16,297,1266550,1107,-16364,-185,-147,2437,-137
16,298,1266555,1360,-16393,205,-149,2450,-129
16,299,1266560,1371,-16411,457,-142,2434,-130
16,300,1266565,887,-16487,595,-136,2435,-132
16,301,1266570,397,-16576,593,-132,2446,-130
16,302,1266575,30,-16584,754,-132,2443,-125
16,303,1266580,0,-16557,910,-127,2415,-124
16,304,1266585,-68,-16402,1033,-126,2381,-125
16,305,1266590,-154,-16332,958,-119,2355,-126
16,306,1266595,-46,-16263,764,-118,2352,-128
16,307,1266600,166,-16225,601,-115,2369,-126
16,308,1266605,375,-16297,575,-111,2398,-131
16,309,1266610,432,-16363,425,-113,2427,-136
16,310,1266615,247,-16442,153,-109,2459,-140
16,311,1266620,263,-16608,12,-107,2518,-143
16,312,1266625,465,-16673,414,-114,2604,-144
16,313,1266630,825,-16607,1145,-121,2685,-146
16,314,1266635,803,-16462,1667,-123,2744,-153
16,315,1266640,426,-16354,1464,-121,2782,-155
16,316,1266645,110,-16298,1022,-120,2819,-158
16,317,1266650,75,-16269,772,-127,2859,-156
16,318,1266655,118,-16185,871,-131,2887,-156
16,319,1266660,19,-16244,712,-125,2890,-165
16,320,1266665,-198,-16319,110,-115,2894,-166
16,321,1266670,-88,-16436,-520,-109,2926,-163
16,322,1266675,308,-16646,-599,-110,2981,-167
16,323,1266680,786,-16771,-7,-111,3041,-172
16,324,1266685,1074,-16815,657,-114,3087,-176
16,325,1266690,1077,-16683,793,-110,3128,-182
16,326,1266695,902,-16642,321,-104,3182,-176
16,327,1266700,852,-16485,-36,-100,3249,-175
16,328,1266705,866,-16313,109,-101,3303,-175
16,329,1266710,831,-16152,434,-100,3321,-173
16,330,1266715,646,-15982,380,-94,3318,-172
16,331,1266720,354,-15936,119,-87,3335,-173
16,332,1266725,398,-16079,319,-84,3373,-169
16,333,1266730,587,-16068,1111,-91,3408,-167
16,334,1266735,553,-16011,1787,-95,3419,-168
16,335,1266740,144,-16040,1489,-85,3406,-172
16,336,1266745,-218,-16023,735,-78,3410,-175
16,337,1266750,-29,-16212,776,-87,3439,-172
16,338,1266755,-30,-16285,1578,-92,3453,-169
16,339,1266760,-191,-16287,1698,-85,3426,-177
16,340,1266765,-414,-16379,861,-72,3401,-184
16,341,1266770,-261,-16422,153,-72,3414,-176
16,342,1266775,353,-16430,346,-80,3449,-172
16,343,1266780,513,-16406,675,-76,3467,-180
16,344,1266785,193,-16433,150,-61,3463,-190
16,345,1266790,-24,-16455,-743,-55,3484,-187
16,346,1266795,108,-16428,-996,-57,3558,-177
16,347,1266800,406,-16318,-755,-52,3659,-181
16,348,1266805,330,-16272,-960,-44,3761,-194
16,349,1266810,170,-16245,-1651,-34,3865,-202
16,350,1266815,237,-16237,-1976,-32,3998,-194
16,351,1266820,364,-16122,-1626,-36,4164,-192
16,352,1266825,355,-16048,-1339,-31,4347,-207
16,353,1266830,276,-16006,-1561,-19,4545,-215
16,354,1266835,272,-16004,-1564,-21,4759,-215
16,355,1266840,237,-15957,-956,-32,4983,-215
16,356,1266845,-48,-15901,-236,-38,5197,-223
16,357,1266850,-534,-15844,-134,-36,5409,-233
16,358,1266855,-946,-15842,-615,-35,5629,-236
16,359,1266860,-1084,-15845,-707,-45,5861,-242
16,360,1266865,-1065,-15572,-135,-53,6184,-250
16,361,1266870,-1197,-15558,-163,-57,6352,-255
16,362,1266875,-1362,-15504,287,-62,6548,-262
16,363,1266880,-1270,-15507,983,-70,6708,-266
16,364,1266885,-1015,-15453,1812,-76,6798,-267
16,365,1266890,-816,-15474,1730,-78,6850,-262
16,366,1266895,-815,-15495,2087,-86,6936,-258
16,367,1266900,-713,-15439,2833,-93,7007,-256
16,368,1266905,-399,-15422,3450,-101,6985,-247
16,369,1266910,-42,-15462,3535,-100,6879,-234
16,370,1266915,62,-15481,3623,-100,6764,-223
16,371,1266920,65,-15508,4036,-104,6640,-211
16,372,1266925,237,-15535,4248,-104,6427,-193
16,373,1266930,792,-15642,4129,-100,6155,-170
16,374,1266935,1091,-15626,4318,-99,5895,-148
16,375,1266940,1207,-15723,4975,-103,5639,-129
16,376,1266945,1137,-15881,5163,-93,5332,-106
16,377,1266950,1032,-16082,4799,-91,5018,-83
16,378,1266955,805,-16144,4722,-92,4750,-63
16,379,1266960,550,-16123,4582,-90,4484,-43
16,380,1266965,428,-15950,4269,-86,4223,-28
16,381,1266970,385,-15978,3814,-85,3974,-12
16,382,1266975,218,-15996,3660,-87,3759,1
16,383,1266980,19,-15994,3519,-91,3569,7
16,384,1266985,-285,-15848,3623,-91,3421,16
16,385,1266990,-549,-15733,3256,-89,3271,22
16,386,1266995,-792,-15721,2622,-90,3170,25
16,387,1267000,-965,-15640,2548,-101,3151,18
16,388,1267005,-1124,-15497,2765,-112,3136,17
16,389,1267010,-1072,-15439,2420,-114,3075,14
16,390,1267015,-1000,-15438,1454,-111,3023,11
16,391,1267020,-1126,-15336,1319,-117,3038,3
16,392,1267025,-1234,-15287,1604,-129,3053,-4
16,393,1267030,-1354,-15336,1762,-130,3031,-7
16,394,1267035,-1588,-15630,1352,-126,3025,-14
16,395,1267040,-1784,-15828,1192,-126,3071,-28
16,396,1267045,-1806,-15946,1378,-132,3103,-36
16,397,1267050,-1445,-16025,1265,-129,3075,-38
16,398,1267055,-1100,-16082,1720,-136,3049,-43
16,399,1267060,-990,-16179,1991,-137,3001,-54
16,400,1267065,-1015,-16273,2228,-132,2960,-59
16,401,1267070,-900,-16321,2388,-136,2910,-60
16,402,1267075,-638,-16272,2839,-143,2854,-63
16,403,1267080,-274,-16137,3424,-143,2724,-60
16,404,1267085,99,-16090,3054,-136,2532,-53
16,405,1267090,248,-15987,3009,-135,2412,-47
16,406,1267095,36,-15967,3395,-141,2312,-46
16,407,1267100,-190,-15940,3138,-133,2149,-44
16,408,1267105,66,-15938,1751,-121,1979,-30
16,409,1267110,294,-15866,1193,-124,1919,-24
16,410,1267115,506,-15832,1587,-134,1888,-27
16,411,1267120,342,-15807,1531,-135,1851,-26
16,412,1267125,-95,-15805,698,-122,1867,-32
16,413,1267130,-290,-15587,-62,-124,1939,-41
16,414,1267135,-182,-15739,-1214,-130,2045,-30
16,415,1267140,-268,-15744,-493,-151,2284,-56
16,416,1267145,-452,-16039,629,-157,2443,-67
16,417,1267150,-434,-16410,-304,-141,2477,-72
16,418,1267155,-475,-16793,-1000,-140,2600,-83
16,419,1267160,-746,-17094,-176,-155,2793,-94
16,420,1267165,-818,-17178,1196,-161,2924,-106
16,421,1267170,-629,-17172,1474,-153,2931,-108
16,422,1267175,-449,-17126,1297,-144,2906,-112
16,423,1267180,-656,-17103,2072,-149,2895,-118
16,424,1267185,-815,-16994,3260,-151,2809,-120
16,425,1267190,-619,-16914,3467,-146,2642,-112
16,426,1267195,-151,-16833,3521,-140,2469,-107
16,427,1267200,313,-16815,3118,-130,2257,-99
16,428,1267205,467,-16716,3076,-127,2037,-92
16,429,1267210,470,-16663,3210,-123,1816,-85
16,430,1267215,461,-16618,2735,-113,1604,-75
16,431,1267220,524,-16624,1791,-100,1464,-65
16,432,1267225,503,-16646,1515,-99,1420,-61
16,433,1267230,-49,-16665,776,-97,1342,-63
16,434,1267235,-545,-16850,429,-93,1383,-67
16,435,1267240,-931,-17048,655,-91,1448,-72
16,436,1267245,-1056,-17286,342,-93,1514,-78
16,437,1267250,-1155,-17416,800,-102,1656,-95
16,438,1267255,-1099,-17419,1644,-104,1757,-105
16,439,1267260,-764,-17317,1623,-98,1729,-110
16,440,1267265,-395,-17162,1741,-96,1678,-114
16,441,1267270,-244,-17023,2151,-96,1609,-115
16,442,1267275,-248,-16878,2668,-91,1524,-120
16,443,1267280,-42,-16764,2643,-79,1388,-112
16,444,1267285,264,-16796,2450,-68,1236,-103
16,445,1267290,346,-16872,2431,-62,1092,-98
16,446,1267295,191,-16907,2603,-57,969,-92
16,447,1267300,67,-16873,2486,-54,852,-92
16,448,1267305,235,-16822,1606,-42,754,-83
16,449,1267310,563,-16711,1122,-38,713,-78
16,450,1267315,656,-16595,1118,-43,702,-76
16,451,1267320,576,-16459,1244,-42,698,-83
16,452,1267325,318,-16379,837,-32,705,-81
16,453,1267330,14,-16385,448,-30,762,-81
16,454,1267335,-77,-16380,453,-32,847,-84
16,455,1267340,-53,-16366,865,-36,925,-86
16,456,1267345,-79,-16366,1262,-37,977,-94
16,457,1267350,-221,-16448,1423,-32,1001,-99
16,458,1267355,-455,-16590,1676,-29,1017,-102
16,459,1267360,-553,-16691,2306,-30,1009,-103
16,460,1267365,-581,-16758,2771,-30,959,-103
16,461,1267370,-244,-16677,2803,-26,877,-102
16,462,1267375,252,-16483,2692,-19,771,-99
16,463,1267380,638,-16350,2675,-14,639,-87
16,464,1267385,891,-16278,2714,-9,485,-81
16,465,1267390,950,-16227,2562,-1,333,-74
16,466,1267395,792,-16250,2110,7,221,-64
16,467,1267400,598,-16280,1734,7,165,-58
16,468,1267405,539,-16323,1535,9,148,-53
16,469,1267410,572,-16345,1298,8,151,-49
16,470,1267415,507,-16335,1049,11,171,-49
16,471,1267420,307,-16338,912,12,213,-52
16,472,1267425,90,-16291,912,4,276,-53
16,473,1267430,-54,-16288,1051,6,339,-53
16,474,1267435,12,-16197,1090,7,401,-55
16,475,1267440,-8,-16158,1230,6,449,-61
16,476,1267445,-90,-16132,1443,2,466,-59
16,477,1267450,-134,-15998,1668,3,455,-61
16,478,1267455,-104,-15959,1846,4,420,-61
16,479,1267460,-86,-16043,1880,8,385,-59
16,480,1267465,-161,-16194,1903,15,343,-57
16,481,1267470,-97,-16365,1724,21,287,-53
16,482,1267475,416,-16342,1407,25,233,-47
16,483,1267480,953,-16215,1063,28,195,-40
16,484,1267485,1140,-16125,857,33,180,-39
16,485,1267490,883,-16086,728,34,182,-38
16,486,1267495,514,-16064,390,38,212,-37
16,487,1267500,398,-16073,44,39,290,-34
16,488,1267505,391,-16084,62,34,406,-36
16,489,1267510,287,-16117,352,32,518,-40
16,490,1267515,0,-16107,672,34,601,-46
16,491,1267520,-233,-16065,726,33,661,-47
16,492,1267525,-252,-16044,887,29,709,-46
16,493,1267530,-188,-16050,1322,29,747,-50
16,494,1267535,-145,-16071,1794,33,749,-50
16,495,1267540,-143,-16127,2107,32,710,-48
16,496,1267545,-216,-16224,2253,38,637,-45
16,497,1267550,-211,-16367,2312,42,550,-40
16,498,1267555,-180,-16543,2431,46,462,-35
16,499,1267560,-76,-16695,2444,49,372,-31
16,500,1267565,-3,-16771,2399,53,275,-29
16,501,1267570,52,-16771,2343,54,177,-23
16,502,1267575,75,-16730,2147,55,83,-17
16,503,1267580,74,-16705,1937,57,7,-18
16,504,1267585,139,-16620,1653,61,-40,-15
16,505,1267590,223,-16572,1407,60,-66,-13
16,506,1267595,435,-16510,1145,60,-83,-6
16,507,1267600,353,-16541,993,62,-77,-5
16,508,1267605,275,-16569,686,64,-53,-5
16,509,1267610,320,-16593,532,63,0,-5
16,510,1267615,433,-16549,614,63,58,-6
16,511,1267620,465,-16605,716,59,108,-7
16,512,1267625,441,-16662,749,62,147,-5
16,513,1267630,386,-16714,811,64,192,-6
16,514,1267635,273,-16756,986,62,241,-5
16,515,1267640,248,-16871,1249,59,273,-4
16,516,1267645,269,-16986,1462,59,289,-5
16,517,1267650,321,-17050,1519,62,290,-3
16,518,1267655,283,-17088,1574,65,284,-3
16,519,1267660,281,-17036,1642,63,261,-3
16,520,1267665,317,-16992,1812,64,231,4
16,521,1267670,317,-16935,1907,62,190,4
16,522,1267675,258,-16873,1984,63,146,7
16,523,1267680,135,-16809,2136,65,102,12
16,524,1267685,47,-16745,2108,67,48,13
16,525,1267690,149,-16703,2063,64,-7,16
16,526,1267695,243,-16652,1959,65,-59,21
16,527,1267700,427,-16553,1806,68,-113,25
16,528,1267705,564,-16479,1675,70,-159,30
16,529,1267710,568,-16468,1547,67,-195,30
16,530,1267715,460,-16510,1396,69,-216,31
16,531,1267720,360,-16557,1255,69,-212,33
16,532,1267725,259,-16644,1123,67,-183,32
16,533,1267730,216,-16748,1194,65,-151,33
16,534,1267735,147,-16857,1245,59,-117,31
16,535,1267740,218,-16889,1008,61,-87,30
16,536,1267745,453,-16870,725,65,-47,31
16,537,1267750,686,-16738,658,61,-2,32
16,538,1267755,775,-16668,770,59,40,29
16,539,1267760,684,-16620,878,58,72,28
16,540,1267765,551,-16570,840,58,111,29
16,541,1267770,496,-16541,656,60,170,28
16,542,1267775,504,-16574,786,54,240,29
16,543,1267780,509,-16562,1081,49,290,27
16,544,1267785,462,-16535,1211,50,313,28
16,545,1267790,427,-16468,1165,52,328,30
16,546,1267795,292,-16474,1291,49,347,28
16,547,1267800,139,-16495,1531,45,363,28
16,548,1267805,48,-16484,1786,42,364,28
16,549,1267810,79,-16466,1888,42,346,28
16,550,1267815,-12,-16491,1914,42,320,28
16,551,1267820,-114,-16480,2052,36,291,25
16,552,1267825,-89,-16501,2176,35,255,27
16,553,1267830,-12,-16542,2320,37,208,29
16,554,1267835,50,-16584,2307,36,159,30
16,555,1267840,43,-16518,2223,35,105,30
16,556,1267845,96,-16471,2221,30,50,31
16,557,1267850,195,-16451,2214,28,-2,34
16,558,1267855,230,-16394,2153,28,-44,35
16,559,1267860,289,-16306,1925,26,-75,33
16,560,1267865,394,-16296,1630,28,-98,34
16,561,1267870,456,-16223,1326,27,-111,37
16,562,1267875,514,-16175,1177,23,-117,38
16,563,1267880,629,-16137,981,22,-106,39
16,564,1267885,726,-16136,717,23,-70,38
16,565,1267890,777,-16071,416,23,-9,37
16,566,1267895,761,-16070,285,20,67,36
16,567,1267900,663,-16127,265,16,145,35
16,568,1267905,489,-16215,265,15,223,35
16,569,1267910,315,-16377,302,16,312,31
16,570,1267915,201,-16444,439,11,410,28
16,571,1267920,113,-16450,720,7,504,22
16,572,1267925,71,-16430,1036,6,572,18
16,573,1267930,-68,-16462,1291,4,608,16
16,574,1267935,-139,-16429,1520,0,620,13
16,575,1267940,-191,-16416,1816,-1,617,9
16,576,1267945,-68,-16400,2062,-3,592,10
16,577,1267950,88,-16406,2238,-3,549,11
16,578,1267955,272,-16446,2247,-1,484,14
16,579,1267960,348,-16553,2395,-2,317,22
16,580,1267965,253,-16554,2337,-3,238,23
16,581,1267970,186,-16522,2192,-1,173,28
16,582,1267975,196,-16546,2132,-2,130,28
16,583,1267980,150,-16523,2094,-6,93,28
16,584,1267985,119,-16376,1948,-7,58,30
16,585,1267990,74,-16354,1701,-7,27,29
16,586,1267995,-3,-16349,1423,-10,10,28
16,587,1268000,11,-16362,1300,-14,13,28
16,588,1268005,57,-16336,1411,-15,25,24
16,589,1268010,-193,-16319,1310,-19,37,22
16,590,1268015,-233,-16396,1255,-21,56,16
16,591,1268020,-232,-16435,1147,-22,84,12
16,592,1268025,-78,-16496,1191,-23,117,13
16,593,1268030,101,-16609,1233,-24,127,11
16,594,1268035,211,-16781,1250,-26,136,5
16,595,1268040,307,-16896,1272,-27,139,5
16,596,1268045,394,-16943,1384,-30,144,7
16,597,1268050,493,-16929,1460,-30,150,3
16,598,1268055,420,-16864,1505,-32,146,2
16,599,1268060,450,-16805,1458,-32,138,5
16,600,1268065,6114,-27183,10369,33,196,-62
16,601,1268070,1411,-18897,-6762,254,140,-289
16,602,1268075,-1458,-17165,-23844,-76,-1015,471
16,603,1268080,-3197,-19178,22127,-256,604,-309
16,604,1268085,-1010,-9049,-9067,63,-1089,79
16,605,1268090,3673,-16644,3138,73,71,319
16,606,1268095,4415,-17402,3288,2,523,-161
16,607,1268100,719,-16638,1142,48,220,18
16,608,1268105,315,-17961,1643,-11,-15,60
16,609,1268110,-2512,-15587,740,-17,-111,-51
16,610,1268115,-1791,-16358,473,20,101,30
16,611,1268120,-644,-16389,909,12,480,-11
16,612,1268125,220,-16288,2568,-1,626,-45
16,613,1268130,1149,-16699,2291,2,511,-22
16,614,1268135,75,-16321,1453,-9,397,-55
16,615,1268140,-916,-16423,1557,-9,374,-60
16,616,1268145,-1450,-16122,1244,-4,487,-55
16,617,1268150,-424,-16348,1922,-6,655,-53
16,618,1268155,564,-16494,2508,-10,678,-57
16,619,1268160,765,-16524,1974,-10,554,-57
16,620,1268165,-44,-16609,1347,-13,445,-61
16,621,1268170,-1051,-16334,1842,-17,445,-65
16,622,1268175,-877,-16285,1868,-15,443,-43
16,623,1268180,-108,-16268,2105,-8,452,-36
16,624,1268185,413,-16410,2248,-7,425,-38
16,625,1268190,4,-16483,2129,-6,341,-41
16,626,1268195,-674,-16470,1959,-8,242,-38
16,627,1268200,-925,-16467,1712,-9,185,-30
16,628,1268205,-651,-16366,1580,-7,192,-24
16,629,1268210,-271,-16402,2036,-7,209,-23
16,630,1268215,-143,-16452,2293,-8,150,-24
16,631,1268220,-249,-16508,1886,-2,33,-20
16,632,1268225,-442,-16448,1570,-3,-36,-14
16,633,1268230,-482,-16357,1522,-2,-52,-10
16,634,1268235,-372,-16412,1667,0,-60,-3
16,635,1268240,-137,-16435,1717,2,-77,-3
16,636,1268245,-51,-16500,1599,5,-123,0
16,637,1268250,-44,-16510,1404,5,-177,5
16,638,1268255,-44,-16487,1239,9,-217,7
16,639,1268260,156,-16459,1199,11,-233,12
16,640,1268265,318,-16419,1278,12,-228,15
16,641,1268270,374,-16416,1411,12,-227,15
16,642,1268275,365,-16437,1356,12,-233,14
16,643,1268280,363,-16486,1220,16,-235,15
16,644,1268285,379,-16492,1136,15,-227,19
16,645,1268290,296,-16475,1154,13,-199,18
16,646,1268295,226,-16441,1255,11,-163,15
16,647,1268300,300,-16436,1331,10,-130,10
16,648,1268305,357,-16423,1283,10,-102,8
16,649,1268310,382,-16472,1152,6,-72,5
16,650,1268315,363,-16540,1092,5,-33,3
16,651,1268320,339,-16462,1146,3,3,1
16,652,1268325,351,-16412,1303,1,65,-2
16,653,1268330,315,-16425,1258,1,96,-7
16,654,1268335,274,-16448,1239,1,129,-10
16,655,1268340,154,-16478,1172,0,157,-11
16,656,1268345,174,-16495,1199,1,177,-11
16,657,1268350,178,-16479,1279,1,196,-11
16,658,1268355,176,-16420,1352,-5,212,-13
16,659,1268360,62,-16398,1447,-5,226,-18
16,660,1268365,-37,-16401,1483,-4,239,-19
16,661,1268370,-153,-16410,1424,-2,251,-20
16,662,1268375,-188,-16491,1347,0,264,-21
16,663,1268380,-184,-16525,1298,-1,268,-24
16,664,1268385,-249,-16515,1339,-2,269,-23
16,665,1268390,-292,-16489,1414,-6,262,-24
16,666,1268395,-375,-16465,1527,-5,253,-26
16,667,1268400,-454,-16442,1546,-5,250,-28
16,668,1268405,-408,-16427,1439,-1,247,-28
16,669,1268410,-380,-16450,1482,1,244,-26
16,670,1268415,-266,-16506,1570,-1,229,-27
16,671,1268420,-210,-16492,1669,-2,206,-27
16,672,1268425,-276,-16405,1804,-2,178,-26
16,673,1268430,-343,-16390,1821,-1,151,-24
16,674,1268435,-424,-16391,1769,1,132,-22
16,675,1268440,-459,-16404,1722,4,115,-22
16,676,1268445,-410,-16473,1694,3,95,-20
16,677,1268450,-370,-16481,1666,3,60,-16
16,678,1268455,-343,-16433,1652,5,22,-14
16,679,1268460,-278,-16438,1643,7,-12,-12
16,680,1268465,-244,-16442,1608,8,-42,-11
16,681,1268470,-189,-16433,1579,11,-68,-8
16,682,1268475,-191,-16476,1579,13,-96,-6
16,683,1268480,-175,-16511,1444,11,-120,-3
16,684,1268485,-132,-16444,1353,11,-142,1
16,685,1268490,-21,-16432,1435,14,-157,2
16,686,1268495,-33,-16437,1529,13,-173,3
16,687,1268500,-78,-16426,1574,15,-182,5
16,688,1268505,-63,-16411,1478,15,-187,4
16,689,1268510,-47,-16455,1455,13,-183,4
16,690,1268515,-25,-16457,1493,14,-176,3
16,691,1268520,-21,-16463,1514,14,-175,0
16,692,1268525,-60,-16475,1586,11,-171,-1
16,693,1268530,-101,-16467,1572,9,-164,-1
16,694,1268535,-83,-16446,1566,12,-151,-4
16,695,1268540,-55,-16426,1582,8,-135,-6
16,696,1268545,64,-16428,1517,7,-122,-7
16,697,1268550,148,-16420,1450,8,-113,-8
16,698,1268555,278,-16437,1463,9,-108,-7
16,699,1268560,343,-16459,1446,9,-106,-9
16,700,1268565,470,-16440,1401,9,-102,-6
16,701,1268570,479,-16444,1368,7,-96,-6
16,702,1268575,477,-16443,1333,5,-84,-3
16,703,1268580,461,-16475,1323,6,-76,-1
16,704,1268585,397,-16496,1275,6,-71,0
16,705,1268590,337,-16450,1294,6,-61,2
16,706,1268595,254,-16445,1312,4,-46,0
16,707,1268600,216,-16432,1327,4,-29,-5
16,708,1268605,143,-16451,1375,4,-9,-5
16,709,1268610,88,-16488,1432,4,7,-7
16,710,1268615,11,-16478,1451,2,21,-8
16,711,1268620,-14,-16436,1442,-1,42,-7
16,712,1268625,52,-16445,1507,-1,54,-12
16,713,1268630,67,-16435,1528,-2,67,-12
16,714,1268635,90,-16420,1575,-3,78,-12
16,715,1268640,165,-16427,1547,-1,85,-17
16,716,1268645,197,-16423,1444,-1,88,-16
16,717,1268650,292,-16453,1489,0,91,-13
16,718,1268655,332,-16440,1460,-2,89,-13
16,719,1268660,309,-16419,1476,-2,85,-11
16,720,1268665,200,-16434,1475,-1,80,-8
16,721,1268670,127,-16455,1418,1,74,-6
16,722,1268675,51,-16448,1355,1,78,-7
16,723,1268680,59,-16494,1300,2,82,-6
16,724,1268685,7,-16486,1372,-1,81,-8
16,725,1268690,-81,-16473,1447,-1,79,-8
16,726,1268695,-144,-16436,1496,2,76,-8
16,727,1268700,-215,-16434,1499,1,83,-9
16,728,1268705,-210,-16447,1532,2,89,-11
16,729,1268710,-150,-16448,1558,4,90,-12
16,730,1268715,-85,-16454,1563,0,83,-13
16,731,1268720,-49,-16417,1588,-1,77,-12
16,732,1268725,-87,-16376,1628,-1,74,-10
16,733,1268730,-76,-16410,1659,0,69,-11
16,734,1268735,-105,-16403,1602,-1,61,-11
16,735,1268740,-72,-16447,1535,-1,48,-9
16,736,1268745,-11,-16486,1565,0,40,-7
16,737,1268750,39,-16461,1524,2,32,-7
16,738,1268755,29,-16447,1504,0,23,-8
16,739,1268760,9,-16425,1541,-1,10,-7
16,740,1268765,-1,-16433,1491,2,-4,-2
16,741,1268770,11,-16448,1501,3,-11,-2
16,742,1268775,21,-16478,1504,2,-12,-6
16,743,1268780,71,-16489,1477,2,-16,1
16,744,1268785,115,-16480,1559,2,-19,0
16,745,1268790,82,-16459,1569,0,-29,-1
16,746,1268795,33,-16403,1606,3,-32,0
16,747,1268800,2,-16410,1588,1,-31,2
16,748,1268805,-45,-16434,1580,-2,-27,-1
16,749,1268810,-73,-16487,1613,-1,-22,-2
16,750,1268815,-112,-16424,1665,-4,-17,-3
16,751,1268820,-135,-16439,1629,-7,-21,-3
16,752,1268825,-180,-16442,1618,-5,-23,-3
16,753,1268830,-137,-16400,1609,-2,-19,-4
16,754,1268835,-27,-16439,1537,0,-18,-4
16,755,1268840,21,-16439,1573,-4,-19,-5
16,756,1268845,79,-16448,1537,-4,-25,-4
16,757,1268850,105,-16417,1463,-2,-41,-4
16,758,1268855,69,-16402,1373,-2,-57,-5
16,759,1268860,144,-16430,1343,-2,-58,-3
16,760,1268865,221,-16464,1369,0,-63,4
16,761,1268870,250,-16453,1372,0,-68,3
16,762,1268875,245,-16477,1342,1,-76,3
16,763,1268880,243,-16443,1336,3,-85,6
16,764,1268885,176,-16465,1232,2,-81,9
16,765,1268890,176,-16499,1228,1,-68,7
16,766,1268895,153,-16489,1256,2,-53,6
16,767,1268900,172,-16469,1253,3,-43,7
16,768,1268905,159,-16435,1226,1,-30,4
16,769,1268910,137,-16471,1202,0,-17,2
16,770,1268915,36,-16487,1244,2,-1,3
16,771,1268920,-13,-16477,1327,3,16,-1
16,772,1268925,-56,-16481,1399,2,33,-3
16,773,1268930,-104,-16470,1370,-1,48,-8
16,774,1268935,-143,-16441,1357,-2,61,-10
16,775,1268940,-91,-16434,1423,1,71,-10
16,776,1268945,33,-16397,1471,1,80,-12
16,777,1268950,157,-16386,1437,1,83,-11
16,778,1268955,247,-16434,1407,6,81,-11
16,779,1268960,331,-16474,1433,3,76,-12
16,780,1268965,337,-16447,1446,3,62,-8
16,781,1268970,257,-16414,1482,3,50,-9
16,782,1268975,176,-16423,1459,3,42,-2
16,783,1268980,97,-16419,1384,4,40,-1
16,784,1268985,107,-16442,1350,6,44,-1
16,785,1268990,77,-16480,1439,6,46,4
16,786,1268995,-37,-16466,1499,3,42,1
16,787,1269000,-150,-16440,1515,2,37,0
16,788,1269005,-278,-16437,1504,4,36,-1
16,789,1269010,-299,-16430,1439,6,43,-3
16,790,1269015,-250,-16460,1416,5,54,-5
16,791,1269020,-126,-16468,1484,3,60,-6
16,792,1269025,-53,-16466,1491,3,58,-6
16,793,1269030,-83,-16477,1571,3,47,-8
16,794,1269035,-106,-16452,1541,1,35,-6
16,795,1269040,-166,-16434,1525,2,35,-7
16,796,1269045,-161,-16466,1491,5,35,-8
16,797,1269050,-109,-16463,1482,6,39,-7
16,798,1269055,-39,-16454,1525,5,34,-6
16,799,1269060,-65,-16429,1443,5,10,-9
16,800,1269065,-3,-16446,1469,8,11,-8
16,801,1269070,98,-16465,1427,8,16,-7
16,802,1269075,126,-16451,1429,6,19,-8
16,803,1269080,44,-16468,1509,4,15,-6
16,804,1269085,-41,-16475,1454,5,5,-6
16,805,1269090,-108,-16490,1432,6,2,-8
16,806,1269095,-118,-16474,1455,3,15,-7
16,807,1269100,-35,-16457,1498,2,32,-7
16,808,1269105,24,-16419,1578,2,42,-10
16,809,1269110,106,-16418,1566,2,44,-13
16,810,1269115,162,-16451,1536,1,44,-11
16,811,1269120,174,-16467,1473,-2,45,-8
16,812,1269125,150,-16445,1503,-2,51,-10
16,813,1269130,100,-16447,1562,-1,57,-11
16,814,1269135,76,-16407,1624,-3,60,-8
16,815,1269140,88,-16402,1671,1,62,-5
16,816,1269145,86,-16402,1652,0,64,-9
16,817,1269150,64,-16387,1610,-6,67,-10
16,818,1269155,72,-16434,1642,-3,67,-12
16,819,1269160,67,-16420,1578,-3,64,-11
16,820,1269165,86,-16411,1555,-2,55,-8
16,821,1269170,65,-16407,1605,-2,48,-6
16,822,1269175,4,-16400,1564,-3,39,-5
16,823,1269180,-63,-16457,1535,-3,30,-5
16,824,1269185,-82,-16424,1516,-4,21,-4
16,825,1269190,-95,-16469,1495,-2,17,-3
16,826,1269195,-56,-16404,1483,0,10,-4
16,827,1269200,-37,-16441,1479,-1,0,-4
16,828,1269205,32,-16440,1410,1,-13,-1
16,829,1269210,120,-16432,1325,6,-25,-1
16,830,1269215,185,-16481,1290,0,-35,1
16,831,1269220,187,-16481,1323,1,-45,3
16,832,1269225,134,-16478,1295,5,-53,4
16,833,1269230,149,-16479,1269,5,-57,6
16,834,1269235,155,-16448,1213,7,-58,8
16,835,1269240,118,-16496,1312,5,-51,8
16,836,1269245,71,-16484,1343,5,-42,6
16,837,1269250,32,-16480,1350,6,-32,6
16,838,1269255,-13,-16434,1419,5,-24,5
16,839,1269260,-42,-16434,1422,3,-10,3
16,840,1269265,-103,-16440,1475,2,4,1
16,841,1269270,-99,-16395,1448,4,17,-3
16,842,1269275,-38,-16439,1372,4,29,-4
16,843,1269280,30,-16443,1375,4,40,-3
16,844,1269285,115,-16472,1366,3,48,-6
16,845,1269290,149,-16486,1331,2,52,-8
16,846,1269295,109,-16442,1379,2,49,-6
16,847,1269300,59,-16429,1417,0,49,-6
16,848,1269305,-19,-16464,1461,3,52,-8
16,849,1269310,-103,-16451,1506,1,61,-7
16,850,1269315,-256,-16435,1511,1,63,-6
16,851,1269320,-309,-16433,1525,1,63,-8
16,852,1269325,-292,-16439,1531,2,60,-11
16,853,1269330,-248,-16420,1477,3,60,-9
16,854,1269335,-145,-16413,1476,2,60,-8
16,855,1269340,54,-16430,1429,4,54,-11
16,856,1269345,258,-16449,1379,6,48,-8
16,857,1269350,371,-16460,1322,6,34,-4
16,858,1269355,350,-16431,1335,6,18,-6
16,859,1269360,204,-16486,1329,7,6,-4
16,860,1269365,93,-16453,1336,8,4,2
16,861,1269370,87,-16428,1412,9,11,3
16,862,1269375,94,-16450,1477,5,26,0
16,863,1269380,-21,-16432,1453,5,38,2
16,864,1269385,-105,-16438,1617,4,46,-2
16,865,1269390,-325,-16426,1604,0,47,-8
16,866,1269395,-412,-16478,1602,1,52,-11
16,867,1269400,-465,-16431,1644,2,66,-13
16,868,1269405,-432,-16374,1614,0,73,-14
16,869,1269410,-255,-16364,1510,4,73,-12
16,870,1269415,61,-16422,1485,5,70,-11
16,871,1269420,409,-16485,1370,10,51,-13
16,872,1269425,443,-16442,1528,7,5,-6
16,873,1269430,250,-16413,1516,8,-17,-3
16,874,1269435,150,-16432,1456,9,-29,3
16,875,1269440,174,-16414,1423,10,-25,6
16,876,1269445,177,-16469,1489,9,-15,8
16,877,1269450,118,-16468,1637,6,-10,6
16,878,1269455,18,-16401,1704,5,-21,6
16,879,1269460,-116,-16394,1670,7,-30,1
16,880,1269465,-221,-16395,1657,4,-17,2
16,881,1269470,-258,-16397,1668,2,7,0
16,882,1269475,-323,-16403,1646,-2,22,-2
16,883,1269480,-253,-16442,1658,0,26,-4
16,884,1269485,-195,-16483,1690,-2,21,-7
16,885,1269490,-125,-16450,1681,-2,13,-8
16,886,1269495,-137,-16416,1718,-1,6,-8
16,887,1269500,-153,-16432,1707,2,-2,-5
16,888,1269505,-120,-16426,1711,-1,-11,-4
16,889,1269510,-47,-16411,1642,-2,-25,-2
16,890,1269515,5,-16453,1589,1,-45,-1
16,891,1269520,48,-16427,1654,2,-67,3
16,892,1269525,97,-16384,1700,4,-91,5
16,893,1269530,79,-16397,1643,3,-109,6
16,894,1269535,82,-16393,1569,2,-120,9
16,895,1269540,210,-16411,1445,2,-125,11
16,896,1269545,259,-16489,1417,4,-128,12
16,897,1269550,332,-16481,1441,4,-133,14
16,898,1269555,303,-16456,1443,3,-137,12
16,899,1269560,125,-16446,1456,0,-136,13
16,900,1269565,54,-16423,1418,1,-128,14
16,901,1269570,25,-16469,1316,3,-106,12
16,902,1269575,109,-16483,1243,3,-77,11
16,903,1269580,128,-16493,1304,-1,-56,11
16,904,1269585,79,-16504,1356,-4,-45,7
16,905,1269590,-47,-16509,1343,-5,-35,2
16,906,1269595,-100,-16473,1258,-2,-18,2
16,907,1269600,-48,-16478,1305,-3,7,3
16,908,1269605,11,-16498,1357,-5,33,-3
16,909,1269610,-25,-16472,1447,-6,51,-3
16,910,1269615,-97,-16392,1486,-6,50,-6
16,911,1269620,-190,-16428,1437,-6,50,-11
16,912,1269625,-243,-16465,1408,-4,62,-11
16,913,1269630,-115,-16442,1413,-3,77,-11
16,914,1269635,-32,-16426,1449,-5,91,-9
16,915,1269640,-75,-16416,1495,-5,83,-11
16,916,1269645,-104,-16476,1485,-4,65,-14
16,917,1269650,-166,-16467,1466,-3,54,-12
16,918,1269655,-173,-16450,1418,-5,52,-10
16,919,1269660,-113,-16453,1468,-4,57,-10
16,920,1269665,-78,-16454,1587,-3,55,-11
16,921,1269670,-91,-16447,1593,-2,35,-9
16,922,1269675,-182,-16440,1544,-2,13,-10
16,923,1269680,-230,-16437,1416,-1,-4,-8
16,924,1269685,-192,-16378,1465,1,-7,-6
16,925,1269690,-60,-16421,1501,2,-7,-8
16,926,1269695,77,-16444,1549,1,-17,-3
16,927,1269700,141,-16458,1569,1,-38,-4
16,928,1269705,100,-16455,1520,2,-64,-2
16,929,1269710,-3,-16447,1448,5,-78,2
16,930,1269715,-18,-16467,1434,4,-77,2
16,931,1269720,46,-16431,1440,3,-71,3
16,932,1269725,79,-16473,1523,4,-69,3
16,933,1269730,27,-16425,1495,2,-76,2
16,934,1269735,-39,-16431,1413,5,-81,2
16,935,1269740,-75,-16461,1345,6,-75,2
16,936,1269745,0,-16478,1318,5,-62,3
16,937,1269750,47,-16481,1320,5,-46,1
16,938,1269755,66,-16475,1427,2,-36,-1
16,939,1269760,16,-16449,1515,1,-38,-4
16,940,1269765,-78,-16419,1434,3,-39,-4
16,941,1269770,-62,-16406,1336,5,-27,-3
16,942,1269775,23,-16456,1358,3,-5,-3
16,943,1269780,48,-16451,1329,2,10,-7
16,944,1269785,108,-16452,1292,3,15,-7
16,945,1269790,163,-16480,1305,6,13,-5
16,946,1269795,106,-16459,1328,3,22,-6
16,947,1269800,21,-16459,1410,2,34,-8
16,948,1269805,-55,-16456,1455,3,37,-5
16,949,1269810,-89,-16422,1519,4,38,-8
16,950,1269815,-131,-16398,1476,3,39,-9
16,951,1269820,-114,-16426,1441,2,42,-12
16,952,1269825,5,-16415,1464,0,51,-9
16,953,1269830,165,-16432,1444,3,50,-7
16,954,1269835,350,-16414,1457,4,44,-9
16,955,1269840,382,-16434,1488,4,35,-9
16,956,1269845,257,-16415,1468,5,22,-4
16,957,1269850,131,-16447,1472,6,12,-4
16,958,1269855,65,-16458,1434,5,15,-4
16,959,1269860,15,-16440,1493,3,19,-1
16,960,1269865,-41,-16439,1593,1,25,0
16,961,1269870,-70,-16418,1638,1,25,-2
16,962,1269875,-80,-16412,1631,4,23,-3
16,963,1269880,-123,-16425,1567,3,24,-4
16,964,1269885,-151,-16449,1558,2,31,-5
16,965,1269890,-211,-16437,1575,2,33,-7
16,966,1269895,-223,-16412,1553,1,28,-6
16,967,1269900,-160,-16434,1521,1,23,-5
16,968,1269905,-141,-16480,1506,0,17,-8
16,969,1269910,-157,-16471,1475,0,11,-7
16,970,1269915,-150,-16470,1491,4,2,-5
16,971,1269920,-168,-16443,1548,2,-13,-3
16,972,1269925,-169,-16429,1509,3,-32,-5
16,973,1269930,-143,-16461,1482,6,-44,-4
16,974,1269935,-54,-16449,1456,5,-50,-2
16,975,1269940,73,-16440,1492,7,-61,0
16,976,1269945,141,-16446,1513,6,-72,2
16,977,1269950,165,-16412,1472,8,-84,3
16,978,1269955,164,-16444,1426,8,-94,2
16,979,1269960,85,-16441,1407,8,-99,3
16,980,1269965,20,-16505,1366,9,-97,6
16,981,1269970,0,-16467,1411,6,-90,5
16,982,1269975,24,-16465,1406,7,-78,6
16,983,1269980,-91,-16453,1468,6,-67,5
16,984,1269985,-146,-16437,1479,5,-58,3
16,985,1269990,-106,-16464,1429,3,-51,-1
16,986,1269995,-71,-16507,1366,3,-36,-4
16,987,1270000,-25,-16477,1403,4,-19,-7
16,988,1270005,-4,-16461,1426,3,-8,-8
16,989,1270010,34,-16438,1511,4,-4,-9
16,990,1270015,24,-16428,1486,5,-3,-8
16,991,1270020,23,-16432,1513,4,0,-10
16,992,1270025,22,-16453,1522,3,6,-4
16,993,1270030,27,-16428,1519,-1,15,-6
16,994,1270035,69,-16435,1530,4,17,-8
16,995,1270040,122,-16446,1484,3,20,-7
16,996,1270045,171,-16438,1439,1,21,-8
16,997,1270050,200,-16441,1398,1,23,-10
16,998,1270055,193,-16458,1381,3,28,-7
16,999,1270060,165,-16441,1425,2,34,-4
