event_id,seq,ts_ms,ax,ay,az,gx,gy,gz
26,0,924756,-1427,-15903,-3634,-6,0,15
26,1,924761,-1421,-15872,-3700,-9,-2,15
26,2,924766,-1381,-15890,-3689,-8,1,12
26,3,924771,-1410,-15856,-3651,-8,5,16
26,4,924776,-1434,-15879,-3665,-10,4,15
26,5,924781,-1430,-15856,-3668,-9,4,16
26,6,924786,-1398,-15834,-3667,-10,4,18
26,7,924791,-1418,-15806,-3705,-8,1,14
26,8,924796,-1450,-15809,-3664,-6,-1,15
26,9,924801,-1407,-15855,-3698,-10,-5,16
26,10,924806,-1471,-15820,-3714,-8,-7,17
26,11,924811,-1396,-15862,-3676,-10,-3,15
26,12,924816,-1430,-15931,-3704,-8,-6,16
26,13,924821,-1444,-15893,-3710,-12,-6,18
26,14,924826,-1442,-15863,-3707,-12,-4,13
26,15,924831,-1458,-15871,-3661,-10,-2,13
26,16,924836,-1497,-15853,-3658,-9,-6,15
26,17,924841,-1544,-15892,-3708,-9,-7,14
26,18,924846,-1519,-15869,-3712,-7,-5,12
26,19,924851,-1528,-15837,-3736,-9,-3,12
26,20,924856,-1532,-15894,-3772,-11,1,11
26,21,924861,-1496,-15892,-3766,-7,3,10
26,22,924866,-1472,-15906,-3776,-6,4,8
26,23,924871,-1477,-15912,-3804,-8,7,6
26,24,924876,-1516,-15878,-3758,-7,7,4
26,25,924881,-1475,-15894,-3780,-6,3,7
26,26,924886,-1486,-15908,-3791,-7,1,5
26,27,924891,-1495,-15908,-3731,-3,-2,0
26,28,924896,-1550,-15908,-3711,-4,-4,0
26,29,924901,-1515,-15883,-3701,-5,-2,-1
26,30,924906,-1525,-15827,-3707,-6,2,-1
26,31,924911,-1567,-15835,-3716,-6,6,-4
26,32,924916,-1560,-15874,-3656,-5,5,-3
26,33,924921,-1602,-15882,-3625,-3,2,-6
26,34,924926,-1603,-15885,-3658,-6,-1,-7
26,35,924931,-1550,-15844,-3647,-8,-5,-7
26,36,924936,-1592,-15864,-3614,-6,-13,-8
26,37,924941,-1574,-15876,-3596,-7,-20,-11
26,38,924946,-1503,-15877,-3630,-6,-31,-11
26,39,924951,-1498,-15913,-3634,-6,-40,-8
26,40,924956,-1464,-15940,-3646,-8,-44,-12
26,41,924961,-1445,-15923,-3760,-9,-49,-14
26,42,924966,-1477,-15906,-3722,-4,-51,-12
26,43,924971,-1427,-15903,-3672,-6,-46,-15
26,44,924976,-1381,-15862,-3720,-6,-40,-16
26,45,924981,-1398,-15823,-3770,-5,-36,-14
26,46,924986,-1406,-15877,-3754,-8,-27,-14
26,47,924991,-1394,-15867,-3765,-8,-17,-15
26,48,924996,-1416,-15866,-3725,-8,-7,-18
26,49,925001,-1429,-15861,-3666,-9,-3,-16
26,50,925006,-1466,-15840,-3635,-8,-6,-15
26,51,925011,-1407,-15849,-3583,-10,-10,-16
26,52,925016,-1359,-15879,-3485,-12,-14,-18
26,53,925021,-1355,-15907,-3499,-13,-20,-17
26,54,925026,-1353,-15924,-3550,-14,-30,-17
26,55,925031,-1365,-15912,-3615,-12,-38,-14
26,56,925036,-1378,-15939,-3621,-11,-40,-15
26,57,925041,-1327,-15966,-3743,-12,-41,-11
26,58,925046,-1298,-15994,-3740,-11,-33,-12
26,59,925051,-1358,-15965,-3727,-13,-25,-15
26,60,925056,-1357,-15931,-3794,-11,-18,-13
26,61,925061,-1347,-15954,-3789,-11,-14,-11
26,62,925066,-1339,-15985,-3783,-11,-5,-10
26,63,925071,-1297,-16055,-3787,-12,3,-11
26,64,925076,-1281,-16077,-3714,-11,8,-13
26,65,925081,-1349,-16008,-3671,-11,8,-10
26,66,925086,-1368,-16036,-3626,-10,7,-9
26,67,925091,-1373,-16041,-3599,-14,4,-10
26,68,925096,-1365,-16046,-3532,-11,0,-7
26,69,925101,-1419,-16082,-3547,-10,-4,-10
26,70,925106,-1412,-16045,-3544,-14,-7,-11
26,71,925111,-1477,-16017,-3527,-11,-12,-11
26,72,925116,-1523,-16044,-3576,-11,-16,-11
26,73,925121,-1473,-16011,-3571,-13,-16,-10
26,74,925126,-1434,-15975,-3610,-11,-15,-11
26,75,925131,-1459,-16016,-3569,-11,-17,-10
26,76,925136,-1508,-16053,-3619,-12,-17,-12
26,77,925141,-1463,-16013,-3599,-11,-16,-11
26,78,925146,-1408,-16027,-3616,-9,-17,-13
26,79,925151,-1459,-15998,-3603,-8,-18,-13
26,80,925156,-1449,-15989,-3664,-6,-24,-11
26,81,925161,-1472,-15967,-3664,-11,-26,-11
26,82,925166,-1453,-15940,-3644,-11,-24,-14
26,83,925171,-1477,-15926,-3643,-6,-23,-14
26,84,925176,-1510,-15888,-3703,-6,-26,-15
26,85,925181,-1509,-15859,-3625,-3,-23,-15
26,86,925186,-1505,-15886,-3631,-4,-26,-13
26,87,925191,-1473,-15843,-3697,-4,-22,-15
26,88,925196,-1504,-15826,-3636,-1,-27,-15
26,89,925201,-1501,-15849,-3613,1,-33,-14
26,90,925206,-1507,-15841,-3635,-1,-35,-18
26,91,925211,-1538,-15825,-3638,1,-38,-18
26,92,925216,-1504,-15833,-3641,2,-43,-14
26,93,925221,-1499,-15875,-3657,3,-44,-16
26,94,925226,-1468,-15896,-3663,5,-42,-17
26,95,925231,-1494,-15870,-3669,5,-45,-17
26,96,925236,-1511,-15868,-3746,8,-43,-17
26,97,925241,-1527,-15927,-3804,7,-41,-19
26,98,925246,-1486,-15922,-3802,5,-43,-19
26,99,925251,-1454,-15920,-3803,9,-36,-17
26,100,925256,-1435,-15920,-3775,11,-28,-17
26,101,925261,-1427,-15920,-3786,10,-24,-20
26,102,925266,-1476,-15908,-3785,12,-22,-21
26,103,925271,-1493,-15886,-3799,15,-17,-18
26,104,925276,-1480,-15903,-3760,15,-15,-15
26,105,925281,-1495,-15922,-3687,17,-10,-17
26,106,925286,-1495,-15948,-3690,17,-8,-16
26,107,925291,-1486,-15968,-3714,18,-12,-12
26,108,925296,-1575,-15972,-3629,16,-13,-14
26,109,925301,-1562,-16026,-3574,17,-10,-15
26,110,925306,-1636,-16012,-3627,19,-14,-16
26,111,925311,-1914,-15874,-3569,15,-13,-9
26,112,925316,-1443,-15958,-3662,20,-18,-7
26,113,925321,-1438,-16008,-3591,21,-6,-11
26,114,925326,-1490,-16038,-3614,20,-12,-13
26,365,926581,-1605,-15873,-3730,-2,-18,1
26,366,926586,-1604,-15882,-3691,0,-12,2
26,367,926591,-1575,-15892,-3691,-2,-10,4
26,368,926596,-1591,-15895,-3711,-3,-9,4
26,369,926601,-1600,-15918,-3739,-3,-7,8
26,370,926606,-1591,-15914,-3711,-1,-8,8
26,371,926611,-1628,-15905,-3701,1,-10,11
26,372,926616,-1566,-15917,-3778,-2,-14,12
26,373,926621,-1555,-15930,-3746,-5,-14,13
26,374,926626,-1518,-15942,-3737,-3,-15,16
26,375,926631,-1534,-15974,-3790,0,-14,15
26,376,926636,-1555,-15945,-3786,0,-15,16
26,377,926641,-1574,-15917,-3769,-1,-14,19
26,378,926646,-1559,-15920,-3807,4,-13,21
26,379,926651,-1599,-15918,-3778,2,-12,20
26,380,926656,-1628,-15886,-3778,0,-8,21
26,381,926661,-1616,-15904,-3784,1,-9,21
26,382,926666,-1590,-15859,-3757,1,-10,21
26,383,926671,-1606,-15812,-3773,3,-5,21
26,384,926676,-1618,-15874,-3779,6,-6,23
26,385,926681,-1634,-15888,-3841,4,-2,22
26,386,926686,-1610,-15809,-3858,4,7,22
26,387,926691,-1618,-15841,-3765,4,13,24
26,388,926696,-1614,-15833,-3781,3,16,23
26,389,926701,-1612,-15787,-3735,3,15,20
26,390,926706,-1584,-15765,-3735,3,15,21
26,391,926711,-1610,-15758,-3683,7,17,23
26,392,926716,-1601,-15766,-3668,7,16,24
26,393,926721,-1612,-15766,-3671,6,8,24
26,394,926726,-1603,-15813,-3662,7,6,22
26,395,926731,-1612,-15836,-3655,6,4,22
26,396,926736,-1605,-15814,-3577,7,2,20
26,397,926741,-1637,-15876,-3639,5,2,21
26,398,926746,-1615,-15860,-3687,8,1,19
26,399,926751,-1606,-15889,-3689,5,-2,21
26,515,927331,-1758,-15957,-3683,23,-20,-3
26,516,927336,-1810,-15999,-3674,21,-19,-6
26,517,927341,-1744,-15997,-3691,20,-18,-10
26,518,927346,-1685,-15953,-3666,20,-16,-11
26,519,927351,-1659,-15918,-3651,22,-18,-13
26,520,927356,-1688,-15950,-3670,22,-22,-14
26,521,927361,-1691,-15910,-3655,22,-28,-16
26,522,927366,-1694,-15915,-3658,20,-31,-17
26,523,927371,-1701,-15850,-3589,20,-31,-17
26,524,927376,-1704,-15882,-3555,20,-35,-20
26,525,927381,-1712,-15836,-3561,20,-37,-21
26,526,927386,-1687,-15849,-3587,21,-43,-22
26,527,927391,-1650,-15913,-3591,21,-49,-21
26,528,927396,-1667,-15888,-3604,21,-41,-24
26,529,927401,-1652,-15881,-3635,21,-35,-24
26,530,927406,-1637,-15870,-3697,19,-29,-26
26,531,927411,-1695,-15828,-3625,17,-24,-26
26,532,927416,-1650,-15797,-3582,15,-24,-28
26,533,927421,-1589,-15769,-3591,18,-29,-26
26,534,927426,-1571,-15831,-3587,16,-30,-27
26,535,927431,-1557,-15846,-3599,16,-31,-26
26,536,927436,-1538,-15799,-3605,12,-31,-25
26,537,927441,-1516,-15782,-3634,10,-33,-25
26,538,927446,-1529,-15787,-3654,13,-38,-24
26,539,927451,-1534,-15757,-3674,14,-39,-24
26,540,927456,-1496,-15748,-3665,16,-39,-20
26,541,927461,-1508,-15714,-3638,11,-38,-21
26,542,927466,-1521,-15737,-3656,10,-38,-21
26,543,927471,-1544,-15733,-3666,11,-34,-20
26,544,927476,-1595,-15727,-3640,11,-28,-20
26,545,927481,-1643,-15758,-3633,6,-26,-21
26,546,927486,-1580,-15791,-3640,4,-22,-21
26,547,927491,-1566,-15852,-3620,5,-17,-21
26,548,927496,-1566,-15885,-3618,6,-15,-17
26,549,927501,-1540,-15899,-3646,5,-17,-16
26,550,927506,-1566,-15881,-3644,7,-20,-13
26,551,927511,-1566,-15917,-3676,4,-20,-15
26,552,927516,-1508,-15965,-3755,1,-25,-14
26,553,927521,-1515,-15974,-3677,2,-27,-12
26,554,927526,-1534,-16012,-3654,2,-27,-13
26,665,928081,-1661,-15948,-3603,0,-5,9
26,666,928086,-1576,-15954,-3528,1,-7,10
26,667,928091,-1569,-15985,-3556,0,-10,11
26,668,928096,-1535,-15950,-3582,1,-12,9
26,669,928101,-1672,-15942,-3606,-1,-19,11
26,670,928106,-1652,-15942,-3681,-1,-12,11
26,671,928111,-1583,-15893,-3692,-1,8,9
26,672,928116,-1566,-15863,-3610,0,19,8
26,673,928121,-1572,-15860,-3612,1,20,10
26,674,928126,-1630,-15860,-3598,0,21,11
26,675,928131,-1601,-15814,-3558,-1,24,9
26,676,928136,-1556,-15818,-3547,-4,27,8
26,677,928141,-1588,-15841,-3446,-5,20,10
26,678,928146,-1588,-15863,-3509,-3,8,12
26,679,928151,-1597,-15851,-3537,-1,7,12
26,680,928156,-1641,-15841,-3486,-2,6,13
26,681,928161,-1616,-15864,-3487,-3,0,12
26,682,928166,-1571,-15865,-3574,-4,-6,9
26,683,928171,-1581,-15880,-3621,-5,-6,12
26,684,928176,-1582,-15860,-3618,-2,3,13
26,685,928181,-1580,-15918,-3552,-6,6,11
26,686,928186,-1568,-15943,-3578,-5,9,12
26,687,928191,-1571,-15942,-3618,-6,12,10
26,688,928196,-1554,-15953,-3567,-5,18,10
26,689,928201,-1538,-15994,-3602,-4,16,12
26,690,928206,-1537,-15940,-3580,-2,13,13
26,691,928211,-1518,-15905,-3589,-2,9,12
26,692,928216,-1522,-15938,-3615,0,7,12
26,693,928221,-1543,-15947,-3583,-2,3,11
26,694,928226,-1567,-15933,-3608,-1,6,10
26,695,928231,-1609,-15939,-3604,1,12,8
26,696,928236,-1601,-15932,-3579,-1,18,9
26,697,928241,-1574,-15951,-3555,-1,23,8
26,698,928246,-1568,-15953,-3519,-2,23,7
26,699,928251,-1572,-15935,-3467,0,23,7
26,700,928256,-1576,-15944,-3377,-3,18,5
26,701,928261,-1609,-15961,-3380,-6,10,3
26,702,928266,-1559,-15957,-3396,-4,6,5
26,703,928271,-1546,-15965,-3436,-2,8,6
26,704,928276,-1569,-15951,-3475,0,3,5
26,705,928281,-1581,-15922,-3514,-1,-6,5
26,706,928286,-1590,-15915,-3509,-3,-7,3
26,707,928291,-1644,-15919,-3582,-5,-8,2
26,708,928296,-1653,-15921,-3580,-5,-3,1
26,709,928301,-1606,-15951,-3581,-4,2,-1
26,710,928306,-1640,-15879,-3547,-4,3,-3
26,711,928311,-1699,-15872,-3543,-2,5,-4
26,712,928316,-1673,-15920,-3536,-4,7,-4
26,713,928321,-1614,-15936,-3486,0,5,-7
26,714,928326,-1674,-15928,-3463,-3,6,-4
26,715,928331,-1690,-15918,-3482,-3,6,-5
26,716,928336,-1695,-15908,-3431,-2,2,-5
26,717,928341,-1746,-15874,-3410,-2,-7,-7
26,718,928346,-1742,-15905,-3452,0,-12,-6
26,719,928351,-1725,-15968,-3502,1,-21,-5
26,720,928356,-1582,-15907,-3515,3,-31,-1
26,721,928361,-1700,-15996,-3518,4,-37,-3
26,722,928366,-1792,-16064,-3499,8,-49,-3
26,723,928371,-1658,-16028,-3600,8,-56,0
26,724,928376,-1743,-15946,-3289,6,-49,1
26,725,928381,-2000,-15925,-3104,5,-62,4
26,726,928386,-1903,-16055,-3259,8,-81,12
26,727,928391,-1593,-16111,-3758,16,-67,20
26,728,928396,-1602,-16234,-3492,16,-25,18
26,729,928401,-1856,-16254,-3256,16,-29,20
26,730,928406,-2035,-15996,-3398,18,-53,27
26,731,928411,-2054,-15815,-3403,19,-35,38
26,732,928416,-2188,-15825,-3489,20,11,43
26,733,928421,-2121,-15849,-3594,27,37,54
26,734,928426,-2175,-15856,-3989,30,46,58
26,735,928431,-2351,-15796,-3850,31,72,57
26,736,928436,-2818,-15694,-3668,37,81,61
26,737,928441,-3144,-15563,-3582,46,76,71
26,738,928446,-3117,-15529,-3745,53,68,83
26,739,928451,-3041,-15571,-3745,59,80,93
26,740,928456,-3078,-15639,-3690,67,92,96
26,741,928461,-3115,-15597,-3672,75,88,103
26,742,928466,-3329,-15441,-3577,88,71,123
26,743,928471,-3439,-15470,-3558,94,81,132
26,744,928476,-3484,-15418,-3514,100,93,143
26,745,928481,-3505,-15355,-3378,106,98,153
26,746,928486,-3617,-15349,-3259,110,97,161
26,747,928491,-3763,-15412,-3304,121,88,171
26,748,928496,-3759,-15471,-3277,128,81,186
26,749,928501,-3808,-15474,-3142,131,78,190
26,750,928506,-3816,-15493,-3114,135,69,201
26,751,928511,-3858,-15544,-3135,141,63,212
26,752,928516,-3902,-15549,-3205,146,70,221
26,753,928521,-3933,-15471,-3196,152,76,230
26,754,928526,-4059,-15385,-3084,157,73,238
26,755,928531,-4184,-15363,-3037,158,55,246
26,756,928536,-4214,-15410,-2984,162,37,256
26,757,928541,-4195,-15463,-3031,166,27,266
26,758,928546,-4161,-15470,-3033,170,18,274
26,759,928551,-4233,-15542,-3003,172,7,280
26,760,928556,-4222,-15591,-2986,176,-5,289
26,761,928561,-4265,-15672,-2914,174,-9,293
26,762,928566,-4376,-15738,-2954,177,-14,304
26,763,928571,-4404,-15807,-2995,180,-11,311
26,764,928576,-4304,-15840,-3006,181,-3,318
26,765,928581,-4249,-15859,-3087,180,5,325
26,766,928586,-4161,-15919,-3030,182,8,332
26,767,928591,-4151,-15917,-3028,181,8,337
26,768,928596,-4104,-15944,-3012,184,14,344
26,769,928601,-4254,-15910,-3229,182,30,348
26,770,928606,-4351,-15997,-3005,180,41,353
26,771,928611,-4351,-15892,-3118,178,51,359
26,772,928616,-4465,-15834,-2817,178,88,364
26,773,928621,-4433,-15928,-2798,178,86,373
26,774,928626,-4273,-15945,-2804,177,97,380
26,775,928631,-4154,-15957,-2735,174,103,383
26,776,928636,-4282,-15960,-2441,173,99,387
26,777,928641,-4228,-15982,-2270,170,71,397
26,778,928646,-4181,-16054,-2422,168,47,405
26,779,928651,-4167,-16080,-2431,163,40,408
26,780,928656,-4236,-16127,-2417,162,38,412
26,781,928661,-4243,-16095,-2545,157,38,415
26,782,928666,-4239,-16059,-2541,156,42,422
26,783,928671,-4166,-16043,-2618,152,50,427
26,784,928676,-4106,-15993,-2538,146,58,434
26,785,928681,-4022,-16012,-2643,142,64,435
26,786,928686,-4003,-16073,-2690,138,73,439
26,787,928691,-3947,-16095,-2665,133,92,442
26,788,928696,-3987,-16023,-2589,129,107,445
26,789,928701,-4064,-16014,-2522,127,119,450
26,790,928706,-4005,-16005,-2647,126,127,454
26,791,928711,-3876,-16019,-2623,122,140,459
26,792,928716,-3765,-16043,-2513,118,145,462
26,793,928721,-3801,-16044,-2428,117,129,464
26,794,928726,-3793,-16041,-2483,115,112,466
26,795,928731,-3835,-16058,-2512,113,108,469
26,796,928736,-3852,-16055,-2400,108,104,472
26,797,928741,-3782,-16007,-2380,108,77,475
26,798,928746,-3744,-16055,-2482,107,50,483
26,799,928751,-3664,-16056,-2611,108,30,488
26,800,928756,-3585,-16073,-2747,106,21,490
26,801,928761,-3490,-16093,-2862,105,18,493
26,802,928766,-3482,-16102,-2961,104,15,494
26,803,928771,-3431,-16147,-3081,106,18,494
26,804,928776,-3454,-16108,-3149,106,31,497
26,805,928781,-3471,-16039,-3170,103,49,497
26,806,928786,-3389,-16053,-3138,106,67,498
26,807,928791,-3302,-16112,-3170,107,82,499
26,808,928796,-3251,-16102,-3158,107,99,497
26,809,928801,-3163,-16087,-3004,110,107,502
26,810,928806,-3120,-16160,-2905,113,101,502
26,811,928811,-3046,-16175,-2760,113,90,503
26,812,928816,-3016,-16210,-2700,113,68,508
26,813,928821,-2942,-16303,-2675,112,36,512
26,814,928826,-2887,-16374,-2689,114,2,514
26,815,928831,-2767,-16526,-2902,117,-46,517
26,816,928836,-2828,-16487,-2977,117,-60,517
26,817,928841,-2903,-16439,-2992,119,-63,517
26,818,928846,-2966,-16339,-2881,118,-60,516
26,819,928851,-3038,-16342,-2937,119,-53,518
26,820,928856,-3078,-16271,-2916,116,-28,516
26,821,928861,-2995,-16275,-2968,113,3,511
26,822,928866,-3023,-16213,-2988,115,35,509
26,823,928871,-2917,-16147,-2970,114,69,505
26,824,928876,-2996,-16135,-2823,112,106,500
26,825,928881,-2961,-16038,-2705,108,127,493
26,826,928886,-2934,-15975,-2693,106,146,490
26,827,928891,-2944,-15911,-2663,105,171,486
26,828,928896,-2966,-15829,-2512,101,190,479
26,829,928901,-2997,-15815,-2358,98,188,476
26,830,928906,-3011,-15768,-2322,97,165,473
26,831,928911,-3035,-15700,-2318,90,149,467
26,832,928916,-3068,-15696,-2347,90,138,463
26,833,928921,-3070,-15702,-2344,88,129,458
26,834,928926,-2960,-15708,-2272,86,118,452
26,835,928931,-3113,-15670,-2272,84,110,444
26,836,928936,-3153,-15680,-2371,83,108,439
26,837,928941,-3147,-15666,-2416,81,117,431
26,838,928946,-3021,-15686,-2436,75,128,423
26,839,928951,-2977,-15729,-2431,74,134,414
26,840,928956,-3015,-15738,-2471,71,137,404
26,841,928961,-3113,-15749,-2479,63,137,392
26,842,928966,-3166,-15757,-2523,62,136,386
26,843,928971,-3165,-15769,-2611,64,139,376
26,844,928976,-3163,-15748,-2668,61,148,363
26,845,928981,-3159,-15734,-2702,60,151,353
26,846,928986,-3141,-15779,-2765,62,149,349
26,847,928991,-3079,-15797,-2815,63,148,340
26,848,928996,-3100,-15780,-2827,62,150,326
26,849,929001,-3199,-15766,-2889,59,144,313
26,850,929006,-3330,-15753,-2942,62,133,302
26,851,929011,-3432,-15768,-2946,65,130,294
26,852,929016,-3542,-15723,-2816,64,141,281
26,853,929021,-3576,-15719,-2758,65,143,266
26,854,929026,-3625,-15689,-2794,65,131,255
26,855,929031,-3587,-15676,-2817,67,119,245
26,856,929036,-3668,-15668,-2735,68,114,229
26,857,929041,-3743,-15709,-2631,65,105,219
26,858,929046,-3815,-15694,-2664,69,93,206
26,859,929051,-3925,-15631,-2730,70,90,192
26,860,929056,-3987,-15604,-2825,66,92,180
26,861,929061,-3938,-15593,-2797,70,96,167
26,862,929066,-3879,-15631,-2761,68,90,154
26,863,929071,-3903,-15656,-2791,67,81,141
26,864,929076,-3973,-15646,-2829,70,77,132
26,865,929081,-4039,-15624,-2854,71,81,117
26,866,929086,-4019,-15619,-2938,71,87,104
26,867,929091,-4031,-15651,-2886,73,84,91
26,868,929096,-3981,-15622,-2826,74,80,81
26,869,929101,-4015,-15620,-2787,75,66,69
26,870,929106,-4107,-15629,-2748,78,45,59
26,871,929111,-4102,-15571,-2741,73,26,53
26,872,929116,-4060,-15562,-2681,75,17,42
26,873,929121,-4126,-15592,-2631,76,15,34
26,874,929126,-4157,-15580,-2641,72,10,23
26,875,929131,-4272,-15553,-2633,72,0,13
26,876,929136,-4344,-15515,-2646,67,-9,5
26,877,929141,-4348,-15519,-2710,67,-5,-2
26,878,929146,-4313,-15543,-2700,67,0,-9
26,879,929151,-4284,-15567,-2716,67,9,-19
26,880,929156,-4270,-15566,-2742,66,12,-28
26,881,929161,-4337,-15519,-2737,64,7,-36
26,882,929166,-4427,-15459,-2729,63,1,-38
26,883,929171,-4425,-15480,-2740,64,-3,-43
26,884,929176,-4343,-15451,-2739,62,-1,-50
26,885,929181,-4308,-15435,-2686,63,1,-55
26,886,929186,-4341,-15437,-2725,60,-5,-62
26,887,929191,-4467,-15349,-2664,58,-15,-70
26,888,929196,-4538,-15268,-2552,53,-17,-73
26,889,929201,-4494,-15302,-2588,49,-11,-80
26,890,929206,-4437,-15249,-2445,45,-21,-82
26,891,929211,-4476,-15256,-2251,43,-37,-86
26,892,929216,-4563,-15238,-2254,37,-59,-90
26,893,929221,-4584,-15255,-2312,35,-77,-89
26,894,929226,-4484,-15260,-2359,30,-85,-94
26,895,929231,-4461,-15271,-2391,25,-88,-96
26,896,929236,-4475,-15248,-2486,25,-96,-97
26,897,929241,-4459,-15268,-2635,19,-106,-98
26,898,929246,-4380,-15288,-2685,11,-108,-99
26,899,929251,-4269,-15282,-2570,8,-101,-101
26,900,929256,-4270,-15330,-2841,3,-99,-107
26,901,929261,-4394,-15330,-2635,-4,-85,-110
26,902,929266,-4301,-15363,-2738,-7,-84,-108
26,903,929271,-4366,-15326,-2781,-8,-65,-110
26,904,929276,-4433,-15341,-2786,-15,-56,-113
26,905,929281,-4395,-15377,-2890,-19,-55,-113
26,906,929286,-4301,-15367,-2693,-25,-43,-114
26,907,929291,-4364,-15434,-2591,-29,-35,-116
26,908,929296,-4375,-15414,-2432,-30,-48,-116
26,909,929301,-4361,-15425,-2558,-34,-71,-116
26,910,929306,-4266,-15463,-2637,-38,-78,-113
26,911,929311,-4225,-15536,-2681,-43,-68,-115
26,912,929316,-4209,-15519,-2691,-48,-60,-119
26,913,929321,-4229,-15468,-2697,-54,-55,-120
26,914,929326,-4209,-15487,-2889,-59,-47,-117
26,915,929331,-4151,-15491,-2960,-62,-21,-120
26,916,929336,-4087,-15523,-2873,-68,8,-120
26,917,929341,-4017,-15559,-2779,-74,20,-121
26,918,929346,-3997,-15579,-2802,-77,22,-124
26,919,929351,-3909,-15598,-2836,-78,21,-124
26,920,929356,-3873,-15593,-2809,-79,22,-123
26,921,929361,-3800,-15577,-2820,-81,15,-122
26,922,929366,-3737,-15581,-2899,-81,16,-119
26,923,929371,-3666,-15641,-2963,-82,19,-121
26,924,929376,-3541,-15673,-2867,-82,20,-122
26,925,929381,-3450,-15663,-2904,-82,5,-121
26,926,929386,-3338,-15723,-3055,-83,-8,-120
26,927,929391,-3253,-15779,-3135,-85,-8,-122
26,928,929396,-3170,-15798,-3177,-82,0,-123
26,929,929401,-3135,-15762,-3284,-79,0,-128
26,930,929406,-3050,-15773,-3309,-74,1,-127
26,931,929411,-2899,-15735,-3682,-73,-4,-127
26,932,929416,-2832,-15747,-3406,-67,5,-127
26,933,929421,-2621,-15926,-3460,-67,-5,-130
26,934,929426,-2539,-15972,-3563,-63,0,-133
26,935,929431,-2330,-16079,-3462,-61,16,-135
26,936,929436,-2140,-16072,-3392,-62,30,-139
26,937,929441,-1976,-16051,-3482,-55,44,-144
26,938,929446,-2035,-16097,-3321,-52,59,-151
26,939,929451,-1937,-16037,-3377,-46,65,-161
26,940,929456,-1965,-16017,-3358,-43,60,-166
26,941,929461,-1983,-15935,-3318,-41,50,-175
26,942,929466,-1959,-15936,-3579,-37,36,-178
26,943,929471,-1832,-15959,-3654,-31,52,-185
26,944,929476,-1708,-16137,-3625,-28,77,-196
26,945,929481,-1617,-16084,-3922,-22,90,-208
26,946,929486,-1453,-16058,-3630,-21,107,-225
26,947,929491,-1505,-16225,-3307,-19,107,-237
26,948,929496,-1354,-16368,-3773,-12,99,-248
26,949,929501,-1287,-16303,-3585,-15,114,-266
26,950,929506,-1314,-16234,-3645,-14,114,-282
26,951,929511,-1327,-16409,-3624,-10,107,-299
26,952,929516,-1442,-16474,-3180,-12,107,-317
26,953,929521,-1475,-16446,-3180,-13,82,-337
26,954,929526,-1651,-16551,-3061,-13,64,-355
26,955,929531,-1645,-16622,-2962,-17,49,-374
26,956,929536,-1542,-16599,-3232,-18,22,-396
26,957,929541,-1616,-16646,-3007,-18,-18,-419
26,958,929546,-1675,-16659,-2971,-20,-70,-438
26,959,929551,-1793,-16623,-2976,-24,-108,-464
26,960,929556,-1696,-16807,-3137,-26,-149,-487
26,961,929561,-1691,-16831,-3186,-31,-178,-509
26,962,929566,-1607,-16863,-3427,-41,-258,-564
26,963,929571,-2005,-16874,-3168,-48,-284,-596
26,964,929576,-1976,-16928,-3572,-55,-320,-618
26,965,929581,-2003,-16871,-3832,-59,-303,-646
26,966,929586,-2040,-16875,-3909,-68,-272,-676
26,967,929591,-2096,-16959,-3939,-78,-256,-707
26,968,929596,-2205,-16986,-4148,-82,-243,-735
26,969,929601,-2342,-17019,-4030,-92,-213,-766
26,970,929606,-2375,-17032,-3908,-102,-177,-796
26,971,929611,-2411,-17062,-3916,-107,-155,-827
26,972,929616,-2395,-17161,-3956,-116,-137,-856
26,973,929621,-2439,-17104,-3616,-122,-122,-886
26,974,929626,-2595,-17084,-3565,-130,-129,-918
26,975,929631,-2811,-17149,-3276,-135,-137,-943
26,976,929636,-2786,-17160,-3191,-145,-145,-968
26,977,929641,-2719,-17119,-3054,-153,-138,-993
26,978,929646,-2761,-17068,-2853,-161,-133,-1020
26,979,929651,-2717,-17018,-3148,-170,-151,-1042
26,980,929656,-2761,-16988,-3061,-180,-150,-1063
26,981,929661,-2657,-17000,-2969,-192,-147,-1082
26,982,929666,-2778,-16995,-2626,-201,-132,-1107
26,983,929671,-2863,-16914,-2538,-207,-137,-1127
26,984,929676,-2705,-16839,-2704,-218,-145,-1143
26,985,929681,-2571,-16859,-2723,-224,-135,-1154
26,986,929686,-2497,-16879,-2563,-228,-137,-1169
26,987,929691,-2612,-16827,-2306,-236,-162,-1185
26,988,929696,-2827,-16715,-2243,-243,-192,-1193
26,989,929701,-2953,-16599,-2341,-247,-202,-1199
26,990,929706,-2908,-16456,-2362,-253,-196,-1202
26,991,929711,-2825,-16243,-2503,-260,-190,-1204
26,992,929716,-2947,-16290,-2757,-258,-189,-1205
26,993,929721,-3139,-16289,-2830,-265,-168,-1208
26,994,929726,-3297,-16202,-2558,-271,-129,-1209
26,995,929731,-3192,-16176,-2263,-272,-108,-1207
26,996,929736,-3296,-16139,-2222,-273,-93,-1203
26,997,929741,-3313,-16154,-2081,-270,-84,-1198
26,998,929746,-3308,-16154,-2103,-267,-70,-1191
26,999,929751,-1145,-8896,-3794,-287,-41,-1173
26,1000,929756,-3779,4953,3141,-260,69,-1444
26,1001,929761,-2113,-9941,2609,-220,700,-618
26,1002,929766,2535,-8697,-7364,-178,-185,-461
26,1003,929771,170,-18956,7594,-153,1554,-941
26,1004,929776,-2056,-16829,2134,-119,-210,-866
26,1005,929781,-838,-14923,-3783,-178,-1335,-708
26,1006,929786,-8077,-14603,-2075,-174,-495,-805
26,1007,929791,-4953,-17005,-1075,-184,-283,-747
26,1008,929796,-3676,-16209,-784,-200,-270,-690
26,1009,929801,-1600,-16254,-4892,-182,-572,-704
26,1010,929806,-3454,-16874,-5727,-177,-348,-736
26,1011,929811,-5699,-15420,-2265,-189,67,-738
26,1012,929816,-4430,-15588,-270,-177,4,-670
26,1013,929821,-3558,-16213,-1693,-157,-189,-637
26,1014,929826,-2638,-16535,-3846,-145,-267,-623
26,1015,929831,-3303,-16204,-3073,-143,-119,-615
26,1016,929836,-3818,-15769,-2097,-131,-108,-596
26,1017,929841,-3995,-16057,-2228,-110,-214,-557
26,1018,929846,-3687,-15975,-3267,-100,-269,-528
26,1019,929851,-3291,-16041,-3255,-92,-194,-501
26,1020,929856,-3222,-15931,-2777,-95,-125,-491
26,1021,929861,-3234,-15863,-2672,-87,-161,-462
26,1022,929866,-3200,-15837,-3125,-79,-214,-432
26,1023,929871,-3071,-15842,-3198,-70,-189,-406
26,1024,929876,-2959,-15939,-2992,-58,-145,-382
26,1025,929881,-2874,-15791,-2810,-47,-137,-359
26,1026,929886,-2798,-15849,-3014,-36,-165,-330
26,1027,929891,-2900,-15812,-3338,-34,-161,-309
26,1028,929896,-2928,-15766,-3244,-30,-106,-286
26,1029,929901,-2773,-15609,-2874,-25,-58,-262
26,1030,929906,-2677,-15660,-2727,-20,-40,-238
26,1031,929911,-2596,-15666,-2786,-13,-27,-216
26,1032,929916,-2452,-15647,-2628,-14,3,-192
26,1033,929921,-2240,-15681,-2447,-13,19,-170
26,1034,929926,-2064,-15687,-2486,-11,3,-150
26,1035,929931,-1916,-15757,-2717,-7,-26,-106
26,1036,929936,-1905,-15784,-2694,-4,-27,-87
26,1037,929941,-1798,-15767,-2785,-1,-28,-64
26,1038,929946,-1666,-15678,-2800,1,-18,-44
26,1039,929951,-1556,-15675,-2758,-1,-14,-25
26,1040,929956,-1495,-15692,-2673,0,-15,-8
26,1041,929961,-1466,-15631,-2709,-3,-34,13
26,1042,929966,-1344,-15584,-2800,-3,-50,29
26,1043,929971,-1307,-15573,-2802,1,-55,44
26,1044,929976,-1285,-15587,-2797,-2,-60,57
26,1045,929981,-1262,-15605,-2891,0,-67,75
26,1046,929986,-1192,-15656,-3051,2,-67,89
26,1047,929991,-1223,-15679,-3107,0,-56,102
26,1048,929996,-1235,-15688,-3198,1,-43,115
26,1049,930001,-1188,-15702,-3239,3,-19,123
26,1050,930006,-1113,-15790,-3336,1,15,131
26,1051,930011,-1034,-15878,-3246,1,43,139
26,1052,930016,-953,-15877,-3193,3,57,145
26,1053,930021,-930,-15874,-3311,3,68,149
26,1054,930026,-943,-15945,-3401,1,86,158
26,1055,930031,-901,-15910,-3240,-1,105,162
26,1056,930036,-905,-15918,-3214,1,116,165
26,1057,930041,-965,-15905,-3320,3,121,167
26,1058,930046,-995,-15887,-3364,1,133,167
26,1059,930051,-905,-15871,-3355,4,139,174
26,1060,930056,-880,-15918,-3275,4,138,174
26,1061,930061,-905,-15898,-3294,4,119,176
26,1062,930066,-900,-15910,-3377,5,96,177
26,1063,930071,-894,-15928,-3508,9,80,180
26,1064,930076,-893,-15982,-3581,12,81,182
26,1065,930081,-816,-16010,-3637,13,88,178
26,1066,930086,-815,-15995,-3734,17,98,175
26,1067,930091,-813,-16003,-3734,17,117,172
26,1068,930096,-790,-15974,-3797,18,135,170
26,1069,930101,-732,-16047,-3698,18,159,164
26,1070,930106,-782,-16018,-3593,18,182,159
26,1071,930111,-748,-16014,-3555,22,184,154
26,1072,930116,-704,-16011,-3481,22,179,151
26,1073,930121,-698,-16048,-3421,20,174,149
26,1074,930126,-680,-16073,-3351,24,172,146
26,1075,930131,-610,-16073,-3323,27,169,140
26,1076,930136,-623,-16108,-3343,25,166,136
26,1077,930141,-627,-16101,-3304,22,159,130
26,1078,930146,-601,-16088,-3218,23,145,126
26,1079,930151,-477,-16133,-3211,22,127,121
26,1080,930156,-423,-16142,-3209,22,113,116
26,1081,930161,-481,-16143,-3183,20,95,111
26,1082,930166,-501,-16169,-3280,20,76,107
26,1083,930171,-458,-16171,-3418,21,74,104
26,1084,930176,-381,-16135,-3503,24,85,98
26,1085,930181,-383,-16115,-3615,24,99,91
26,1086,930186,-356,-16084,-3744,22,106,85
26,1087,930191,-219,-16114,-3716,22,113,83
26,1088,930196,-146,-16121,-3705,24,112,77
26,1089,930201,-70,-16164,-3721,26,101,74
26,1090,930206,-82,-16177,-3727,27,85,71
26,1091,930211,-53,-16223,-3728,25,67,67
26,1092,930216,-8,-16263,-3688,27,52,66
26,1093,930221,19,-16279,-3597,31,40,61
26,1094,930226,-59,-16330,-3538,31,26,57
26,1095,930231,-101,-16296,-3608,31,22,54
26,1096,930236,-228,-16246,-3504,30,39,50
26,1097,930241,-287,-16184,-3369,30,50,45
26,1098,930246,-252,-16221,-3252,30,63,43
26,1099,930251,-125,-16220,-3175,27,77,40
26,1100,930256,-45,-16147,-3136,28,83,35
26,1101,930261,-6,-16115,-3091,28,77,30
26,1102,930266,-80,-16068,-3072,25,64,29
26,1103,930271,-30,-15998,-3070,20,47,27
26,1104,930276,59,-15999,-3087,21,26,27
26,1105,930281,158,-15968,-3141,20,7,28
26,1106,930286,228,-16005,-3234,22,-13,30
26,1107,930291,275,-16011,-3297,18,-26,29
26,1108,930296,160,-16007,-3565,20,-33,24
26,1109,930301,111,-16005,-3616,20,-22,20
26,1110,930306,156,-15998,-3619,18,-14,23
26,1111,930311,152,-15995,-3564,16,-4,20
26,1112,930316,82,-16005,-3501,17,1,17
26,1113,930321,12,-15996,-3466,14,9,18
26,1114,930326,57,-16028,-3441,14,21,17
26,1115,930331,135,-16093,-3396,14,31,16
26,1116,930336,154,-16188,-3367,14,40,16
26,1117,930341,119,-16194,-3283,14,40,10
26,1118,930346,-25,-16110,-3208,12,45,8
26,1119,930351,-157,-16110,-3178,9,49,6
26,1120,930356,-134,-16104,-3155,9,52,8
26,1121,930361,4,-16107,-3088,8,50,8
26,1122,930366,24,-16164,-3115,5,47,5
26,1123,930371,37,-16201,-3106,4,38,4
26,1124,930376,7,-16178,-3086,3,26,4
26,1125,930381,-71,-16195,-3165,0,14,5
26,1126,930386,-52,-16225,-3273,1,4,3
26,1127,930391,-61,-16285,-3370,-1,-2,1
26,1128,930396,-39,-16279,-3367,-3,-12,0
26,1129,930401,-19,-16295,-3313,-5,-21,-2
26,1130,930406,-80,-16276,-3358,-5,-21,-4
26,1131,930411,-104,-16260,-3350,-6,-15,-5
26,1132,930416,-110,-16218,-3327,-8,-8,-7
26,1133,930421,-128,-16167,-3274,-9,-2,-7
26,1134,930426,-151,-16151,-3194,-8,-1,-10
26,1135,930431,-123,-16176,-3189,-8,-6,-11
26,1136,930436,-119,-16173,-3175,-12,-9,-13
26,1137,930441,-193,-16153,-3180,-13,-10,-16
26,1138,930446,-218,-16162,-3267,-12,-18,-16
26,1139,930451,-218,-16138,-3294,-13,-22,-20
26,1140,930456,-213,-16075,-3362,-16,-21,-21
26,1141,930461,-216,-16061,-3438,-16,-13,-21
26,1142,930466,-196,-16111,-3444,-15,-1,-21
26,1143,930471,-191,-16038,-3383,-18,8,-27
26,1144,930476,-219,-16034,-3376,-18,12,-29
26,1145,930481,-337,-16080,-3379,-17,21,-30
26,1146,930486,-293,-16046,-3400,-17,30,-30
26,1147,930491,-229,-16074,-3367,-17,37,-32
26,1148,930496,-211,-16058,-3370,-17,32,-35
26,1149,930501,-214,-16044,-3303,-18,25,-34
26,1150,930506,-225,-16076,-3200,-20,21,-37
26,1151,930511,-191,-16062,-3207,-19,15,-35
26,1152,930516,-173,-16083,-3229,-16,9,-39
26,1153,930521,-232,-15993,-3285,-20,-2,-37
26,1154,930526,-247,-16022,-3327,-18,-21,-38
26,1155,930531,-288,-16000,-3439,-16,-38,-40
26,1156,930536,-340,-15973,-3430,-14,-41,-39
26,1157,930541,-384,-15963,-3409,-15,-32,-42
26,1158,930546,-374,-15993,-3465,-16,-25,-42
26,1159,930551,-284,-16035,-3489,-14,-18,-42
26,1160,930556,-216,-16054,-3419,-15,-15,-45
26,1161,930561,-201,-16066,-3331,-13,-27,-45
26,1162,930566,-268,-16086,-3341,-12,-41,-46
26,1163,930571,-338,-16094,-3410,-12,-45,-47
26,1164,930576,-279,-16047,-3414,-10,-45,-45
26,1165,930581,-215,-16060,-3444,-10,-42,-45
26,1166,930586,-183,-16057,-3421,-12,-51,-45
26,1167,930591,-171,-16082,-3457,-11,-59,-45
26,1168,930596,-156,-16075,-3519,-7,-57,-43
26,1169,930601,-172,-16104,-3449,-6,-53,-43
26,1170,930606,-200,-16076,-3479,-2,-46,-44
26,1171,930611,-218,-16093,-3543,-4,-44,-44
26,1172,930616,-168,-16080,-3528,-3,-42,-43
26,1173,930621,-184,-16085,-3509,0,-42,-41
26,1174,930626,-190,-16090,-3496,1,-43,-40
26,1175,930631,-188,-16109,-3559,3,-48,-38
26,1176,930636,-206,-16150,-3571,2,-46,-40
26,1177,930641,-248,-16141,-3624,2,-41,-39
26,1178,930646,-253,-16128,-3620,4,-42,-35
26,1179,930651,-286,-16106,-3644,5,-40,-34
26,1180,930656,-252,-16111,-3615,6,-32,-34
26,1181,930661,-243,-16059,-3488,7,-21,-32
26,1182,930666,-196,-16054,-3482,8,-17,-33
26,1183,930671,-206,-16070,-3485,10,-14,-29
26,1184,930676,-135,-16079,-3522,9,-15,-28
26,1185,930681,-213,-16078,-3439,2,-14,-29
26,1186,930686,-253,-16067,-3497,3,-17,-27
26,1187,930691,-281,-16001,-3615,5,-16,-26
26,1188,930696,-228,-15990,-3620,4,-10,-28
26,1189,930701,-249,-15985,-3594,5,-2,-27
26,1190,930706,-239,-15951,-3635,2,-3,-26
26,1191,930711,-235,-15977,-3664,1,-7,-22
26,1192,930716,-263,-15983,-3662,2,-3,-23
26,1193,930721,-209,-15981,-3570,5,6,-22
26,1194,930726,-242,-16010,-3479,5,12,-23
26,1195,930731,-297,-16069,-3437,4,14,-22
26,1196,930736,-333,-16026,-3381,3,23,-23
26,1197,930741,-338,-16029,-3350,-1,31,-24
26,1198,930746,-279,-16044,-3280,-1,32,-23
26,1199,930751,-277,-16021,-3323,-1,25,-20
26,1200,930756,-244,-16052,-3290,-6,17,-21
26,1201,930761,-270,-16029,-3288,-7,9,-19
26,1202,930766,-244,-16064,-3335,-8,0,-18
26,1203,930771,-161,-16056,-3419,-10,-4,-18
26,1204,930776,-82,-16091,-3540,-11,0,-17
26,1205,930781,-92,-16073,-3548,-12,5,-19
26,1206,930786,-112,-16069,-3602,-12,4,-18
26,1207,930791,-196,-15996,-3695,-14,8,-17
26,1208,930796,-178,-16021,-3615,-16,18,-19
26,1209,930801,-158,-16038,-3543,-17,27,-19
26,1210,930806,-156,-16052,-3564,-13,26,-18
26,1211,930811,-153,-16053,-3525,-15,24,-15
26,1212,930816,-190,-16017,-3458,-15,23,-16
26,1213,930821,-200,-16021,-3490,-15,20,-19
26,1214,930826,-177,-16013,-3510,-16,14,-16
26,1215,930831,-180,-15961,-3530,-17,12,-17
26,1216,930836,-209,-16036,-3488,-16,14,-19
26,1217,930841,-260,-16059,-3466,-17,11,-20
26,1218,930846,-235,-16037,-3527,-20,14,-19
26,1219,930851,-270,-16031,-3505,-19,22,-19
26,1220,930856,-232,-16029,-3465,-20,21,-20
26,1221,930861,-181,-16047,-3457,-20,17,-23
26,1222,930866,-202,-16010,-3428,-21,15,-21
26,1223,930871,-210,-16026,-3473,-23,8,-21
26,1224,930876,-233,-16042,-3522,-23,-1,-21
26,1225,930881,-217,-16070,-3531,-22,-3,-19
26,1226,930886,-171,-16099,-3609,-20,-3,-21
26,1227,930891,-166,-16072,-3680,-23,-1,-24
26,1228,930896,-163,-16077,-3670,-24,2,-24
26,1229,930901,-214,-16076,-3611,-21,4,-23
26,1230,930906,-181,-16081,-3569,-24,8,-25
26,1231,930911,-188,-16115,-3509,-25,11,-23
26,1232,930916,-186,-16133,-3432,-27,14,-28
26,1233,930921,-144,-16112,-3536,-27,9,-27
26,1234,930926,-113,-16128,-3542,-26,5,-26
26,1235,930931,-193,-16138,-3479,-26,10,-28
26,1236,930936,-269,-16040,-3476,-27,8,-29
26,1237,930941,-232,-16074,-3508,-30,6,-31
26,1238,930946,-244,-16016,-3497,-31,15,-28
26,1239,930951,-185,-16020,-3442,-31,23,-31
26,1240,930956,-164,-16034,-3472,-30,24,-31
26,1241,930961,-138,-16068,-3473,-32,24,-28
26,1242,930966,-165,-16084,-3401,-33,27,-28
26,1243,930971,-220,-16089,-3367,-34,27,-31
26,1244,930976,-175,-16057,-3409,-36,20,-29
26,1245,930981,-172,-16081,-3470,-38,23,-30
26,1246,930986,-124,-16066,-3469,-36,28,-32
26,1247,930991,-104,-16054,-3450,-35,30,-30
26,1248,930996,-93,-16065,-3471,-36,31,-29
26,1249,931001,-66,-16103,-3493,-37,29,-29
26,1250,931006,-55,-16115,-3401,-38,28,-31
26,1251,931011,-96,-16141,-3436,-39,30,-29
26,1252,931016,-81,-16113,-3458,-41,27,-29
26,1253,931021,-85,-16045,-3471,-41,25,-31
26,1254,931026,-127,-16043,-3421,-42,27,-31
26,1255,931031,-172,-16010,-3346,-39,26,-25
26,1256,931036,-162,-16010,-3373,-38,21,-26
26,1257,931041,-47,-16003,-3358,-38,16,-25
26,1258,931046,-28,-16001,-3315,-39,12,-24
26,1259,931051,-30,-16029,-3382,-38,4,-25
26,1260,931056,-69,-15976,-3415,-38,-6,-23
26,1261,931061,-65,-15994,-3462,-37,-9,-19
26,1262,931066,-33,-15967,-3518,-35,-10,-20
26,1263,931071,-47,-15964,-3577,-34,-10,-20
26,1264,931076,-52,-15941,-3623,-33,-4,-18
26,1265,931081,-53,-15929,-3632,-30,1,-18
26,1266,931086,-26,-15950,-3613,-29,4,-15
26,1267,931091,-27,-15921,-3547,-28,7,-16
26,1268,931096,-19,-15956,-3453,-27,7,-14
26,1269,931101,-84,-15940,-3489,-23,6,-15
26,1270,931106,-84,-15914,-3459,-22,0,-12
26,1271,931111,-49,-15910,-3484,-16,-9,-7
26,1272,931116,-4,-15970,-3518,-16,-15,-7
26,1273,931121,-29,-15969,-3536,-14,-23,-7
26,1274,931126,-49,-15959,-3545,-14,-25,-6
26,1275,931131,-66,-15964,-3551,-14,-22,-6
26,1276,931136,-50,-15990,-3501,-9,-19,-4
26,1277,931141,-53,-15987,-3554,-8,-14,-3
26,1278,931146,-66,-15977,-3573,-6,-11,-2
26,1279,931151,-55,-15987,-3559,-5,-11,-1
26,1280,931156,-9,-15985,-3562,-4,-12,-3
26,1281,931161,15,-16051,-3558,-3,-9,2
26,1282,931166,43,-16071,-3514,-2,-7,2
26,1283,931171,57,-16094,-3482,-1,-3,2
26,1284,931176,45,-16113,-3485,0,-2,3
26,1285,931181,-1,-16056,-3561,4,-3,3
26,1286,931186,31,-16028,-3559,6,-5,8
26,1287,931191,-10,-16054,-3501,9,0,6
26,1288,931196,-78,-16032,-3504,6,3,4
26,1289,931201,-168,-16006,-3531,9,-2,4
26,1290,931206,-143,-15958,-3524,10,-5,5
26,1291,931211,-63,-15998,-3467,11,-1,7
26,1292,931216,-85,-16028,-3443,12,1,5
26,1293,931221,-49,-16044,-3535,14,3,4
26,1294,931226,-13,-16091,-3561,13,12,4
26,1295,931231,-2,-16081,-3528,13,18,4
26,1296,931236,-87,-16076,-3419,13,19,-1
26,1297,931241,-97,-16078,-3396,13,22,-1
26,1298,931246,-75,-16092,-3415,12,27,-1
26,1299,931251,-110,-16099,-3416,12,29,-3
26,1300,931256,-106,-16052,-3401,10,25,-5
26,1301,931261,-76,-16047,-3325,14,15,-3
26,1302,931266,-47,-16047,-3279,15,5,-5
26,1303,931271,-17,-16089,-3346,13,-1,-5
26,1304,931276,-19,-16080,-3430,18,-6,-5
26,1305,931281,3,-16102,-3519,18,-7,-2
26,1306,931286,52,-16086,-3562,17,-5,-6
26,1307,931291,93,-16053,-3543,18,-6,-10
26,1308,931296,70,-16045,-3507,18,-1,-9
26,1309,931301,46,-15987,-3484,16,1,-11
26,1310,931306,-3,-16024,-3507,16,7,-12
26,1311,931311,-31,-15976,-3480,17,13,-13
26,1312,931316,51,-15962,-3373,17,17,-13
26,1313,931321,53,-15951,-3348,17,17,-11
26,1314,931326,12,-15954,-3409,16,10,-13
26,1315,931331,-4,-15956,-3377,17,3,-14
26,1316,931336,28,-15933,-3380,16,2,-15
26,1317,931341,22,-15964,-3323,16,-1,-14
26,1318,931346,36,-15975,-3359,16,-5,-17
26,1319,931351,94,-16046,-3402,17,-7,-15
26,1320,931356,78,-16062,-3428,18,-6,-15
26,1321,931361,48,-16059,-3399,19,-7,-18
26,1322,931366,38,-16079,-3449,20,-15,-17
26,1323,931371,44,-16085,-3473,19,-15,-16
26,1324,931376,60,-16082,-3466,17,-12,-19
26,1325,931381,90,-16118,-3452,19,-14,-18
26,1326,931386,92,-16137,-3499,21,-14,-20
26,1327,931391,30,-16058,-3555,20,-13,-18
26,1328,931396,103,-16088,-3546,20,2,-20
26,1329,931401,143,-16118,-3538,21,2,-19
26,1330,931406,143,-16122,-3518,21,4,-20
26,1331,931411,68,-16115,-3480,20,7,-22
26,1332,931416,-27,-16094,-3450,20,9,-23
26,1333,931421,-75,-16083,-3414,20,6,-25
26,1334,931426,-57,-16044,-3456,23,-3,-23
26,1335,931431,-10,-16100,-3496,23,-11,-20
26,1336,931436,62,-16119,-3449,24,-17,-24
26,1337,931441,26,-16099,-3444,24,-21,-26
26,1338,931446,19,-16106,-3516,23,-26,-24
26,1339,931451,62,-16076,-3510,24,-22,-26
26,1340,931456,9,-16044,-3537,23,-19,-23
26,1341,931461,31,-16039,-3623,25,-12,-25
26,1342,931466,42,-16035,-3654,25,-4,-28
26,1343,931471,35,-16038,-3554,26,1,-27
26,1344,931476,16,-16056,-3482,26,6,-27
26,1345,931481,7,-16045,-3479,26,2,-29
26,1346,931486,-64,-16020,-3498,27,5,-29
26,1347,931491,-30,-16016,-3476,25,3,-27
26,1348,931496,26,-16012,-3496,23,-2,-26
26,1349,931501,61,-16014,-3471,24,-13,-27
26,1350,931506,51,-16037,-3498,23,-20,-25
26,1351,931511,-13,-16050,-3538,23,-17,-26
26,1352,931516,-55,-16116,-3596,25,-14,-26
26,1353,931521,-22,-16048,-3635,23,-9,-26
26,1354,931526,54,-16061,-3624,24,1,-27
26,1355,931531,-4,-16092,-3603,24,13,-26
26,1356,931536,-24,-16096,-3560,27,18,-28
26,1357,931541,-5,-16068,-3429,23,18,-26
26,1358,931546,-33,-16080,-3385,19,20,-27
26,1359,931551,3,-16099,-3433,20,19,-26
26,1360,931556,54,-16101,-3404,20,15,-24
26,1361,931561,48,-16052,-3433,21,6,-23
26,1362,931566,42,-16068,-3475,18,-6,-21
26,1363,931571,35,-16074,-3481,18,-13,-20
26,1364,931576,25,-16080,-3537,19,-12,-18
26,1365,931581,17,-16134,-3571,18,-6,-17
26,1366,931586,-14,-16129,-3604,17,1,-18
26,1367,931591,9,-16106,-3613,17,10,-18
26,1368,931596,17,-16100,-3582,15,14,-14
26,1369,931601,7,-16088,-3549,13,13,-13
26,1370,931606,48,-16136,-3496,12,12,-15
26,1371,931611,63,-16154,-3456,14,5,-15
26,1372,931616,72,-16159,-3407,13,-2,-13
26,1373,931621,86,-16106,-3414,13,-6,-11
26,1374,931626,26,-16114,-3462,15,-9,-7
26,1375,931631,17,-16058,-3520,12,-6,-9
26,1376,931636,55,-15999,-3596,12,-4,-7
26,1377,931641,71,-16019,-3625,11,2,-5
26,1378,931646,127,-16028,-3626,12,11,-5
26,1379,931651,111,-16005,-3654,13,17,-7
26,1380,931656,71,-15972,-3600,8,22,-6
26,1381,931661,50,-15990,-3583,11,29,-6
26,1382,931666,89,-16001,-3644,11,35,-3
26,1383,931671,115,-15894,-3620,11,40,-3
26,1384,931676,84,-15923,-3561,10,45,-5
26,1385,931681,26,-15934,-3537,9,45,-1
26,1386,931686,43,-15919,-3469,11,36,-1
26,1387,931691,93,-15971,-3491,11,32,1
26,1388,931696,146,-15974,-3541,10,26,4
26,1389,931701,95,-15981,-3543,11,11,3
26,1390,931706,23,-15983,-3564,11,-5,2
26,1391,931711,32,-15999,-3596,16,-14,2
26,1392,931716,15,-15984,-3629,14,-10,3
26,1393,931721,-40,-16003,-3689,12,-2,3
26,1394,931726,19,-15961,-3706,12,7,4
26,1395,931731,8,-15960,-3650,12,18,1
26,1396,931736,35,-16001,-3572,13,27,1
26,1397,931741,108,-16030,-3525,12,31,1
26,1398,931746,69,-16006,-3489,10,35,0
26,1399,931751,55,-16030,-3507,14,32,-1
26,1400,931756,42,-16030,-3531,13,30,0
26,1401,931761,66,-16059,-3499,8,29,1
26,1402,931766,112,-16090,-3400,8,18,1
26,1403,931771,65,-16043,-3332,8,9,1
26,1404,931776,91,-16040,-3318,6,1,2
26,1405,931781,116,-16008,-3340,7,-4,6
26,1406,931786,135,-16025,-3374,6,-6,6
26,1407,931791,84,-16076,-3343,3,-14,5
26,1408,931796,26,-16074,-3330,1,-21,4
26,1409,931801,-18,-16030,-3354,-2,-22,3
26,1410,931806,-30,-16013,-3411,-3,-19,4
26,1411,931811,-24,-15982,-3320,-4,-19,5
26,1412,931816,17,-16006,-3305,-5,-15,5
26,1413,931821,33,-16007,-3384,-7,-16,7
26,1414,931826,96,-16038,-3418,-9,-18,6
26,1415,931831,57,-16066,-3419,-10,-19,4
26,1416,931836,55,-16086,-3459,-10,-19,4
26,1417,931841,110,-16084,-3457,-10,-17,4
26,1418,931846,110,-16121,-3494,-12,-15,5
26,1419,931851,48,-16108,-3557,-14,-9,0
26,1420,931856,26,-16089,-3566,-14,-2,1
26,1421,931861,67,-16105,-3550,-14,7,5
26,1422,931866,39,-16093,-3516,-16,14,2
26,1423,931871,59,-16103,-3513,-15,21,1
26,1424,931876,107,-16105,-3408,-14,21,1
26,1425,931881,85,-16062,-3399,-13,20,-1
26,1426,931886,20,-16085,-3401,-19,15,-2
26,1427,931891,43,-16087,-3414,-18,10,-2
26,1428,931896,16,-16070,-3413,-15,16,-4
26,1429,931901,43,-16062,-3415,-17,17,-3
26,1430,931906,81,-16023,-3425,-17,11,-5
26,1431,931911,136,-16059,-3406,-17,8,-5
26,1432,931916,129,-16054,-3414,-18,4,-7
26,1433,931921,88,-16088,-3454,-15,6,-8
26,1434,931926,-13,-16059,-3404,-14,4,-9
26,1435,931931,-15,-16022,-3462,-13,2,-12
26,1436,931936,40,-16036,-3487,-12,3,-9
26,1437,931941,84,-16062,-3470,-12,-1,-10
26,1438,931946,45,-16064,-3497,-11,-6,-13
26,1439,931951,69,-16112,-3535,-9,-14,-10
26,1440,931956,111,-16130,-3523,-9,-17,-11
26,1441,931961,126,-16139,-3548,-9,-16,-13
26,1442,931966,153,-16119,-3563,-7,-18,-15
26,1443,931971,154,-16131,-3540,-5,-21,-16
26,1444,931976,122,-16116,-3556,-6,-17,-17
26,1445,931981,111,-16110,-3474,-6,-12,-20
26,1446,931986,41,-16107,-3451,-4,-9,-21
26,1447,931991,16,-16084,-3458,-1,-7,-22
26,1448,931996,-28,-16085,-3417,0,-7,-20
26,1449,932001,-36,-16062,-3441,2,-8,-19
26,1450,932006,-20,-16056,-3452,1,-5,-22
26,1451,932011,15,-16064,-3418,3,-8,-20
26,1452,932016,58,-16065,-3404,5,-15,-21
26,1453,932021,26,-16069,-3420,1,-14,-26
26,1454,932026,-2,-16066,-3363,1,-18,-27
26,1455,932031,-48,-16106,-3333,3,-20,-25
26,1456,932036,-1,-16137,-3331,3,-17,-25
26,1457,932041,58,-16165,-3404,2,-15,-26
26,1458,932046,60,-16099,-3457,7,-11,-28
26,1459,932051,25,-16083,-3462,6,-12,-26
26,1460,932056,-13,-16041,-3482,4,-15,-27
26,1461,932061,-53,-16053,-3451,5,-16,-27
26,1462,932066,-40,-16075,-3440,5,-15,-26
26,1463,932071,2,-16072,-3448,7,-16,-25
26,1464,932076,108,-16109,-3472,8,-21,-23
26,1465,932081,125,-16139,-3474,6,-24,-25
26,1466,932086,62,-16131,-3476,6,-25,-24
26,1467,932091,4,-16075,-3547,6,-26,-23
26,1468,932096,1,-16008,-3519,7,-26,-23
26,1469,932101,11,-16030,-3471,6,-24,-22
26,1470,932106,23,-16040,-3441,8,-21,-21
26,1471,932111,6,-16048,-3459,10,-19,-19
26,1472,932116,42,-16052,-3409,10,-17,-22
26,1473,932121,25,-16037,-3449,8,-16,-20
26,1474,932126,-32,-16001,-3449,8,-16,-16
26,1475,932131,-32,-15982,-3420,8,-21,-17
26,1476,932136,27,-16004,-3438,9,-24,-14
26,1477,932141,31,-16019,-3403,6,-28,-11
26,1478,932146,31,-16044,-3433,9,-32,-10
26,1479,932151,54,-16022,-3493,10,-27,-10
26,1480,932156,34,-16040,-3564,7,-24,-10
26,1481,932161,28,-15958,-3555,7,-25,-5
26,1482,932166,-65,-16041,-3526,5,-23,-6
26,1483,932171,-28,-16048,-3553,6,-24,-5
26,1484,932176,109,-15986,-3621,5,-22,-3
26,1485,932181,135,-16006,-3475,4,-18,-2
26,1486,932186,140,-16064,-3432,5,-28,1
26,1487,932191,107,-16055,-3464,4,-32,3
26,1488,932196,70,-16055,-3492,2,-27,3
26,1489,932201,21,-16038,-3494,4,-14,2
26,1490,932206,-9,-16032,-3451,2,-13,6
26,1491,932211,-40,-16011,-3496,1,-14,7
26,1492,932216,-21,-16017,-3527,1,-14,8
26,1493,932221,48,-16050,-3482,3,-9,11
26,1494,932226,76,-16067,-3432,-2,-11,12
26,1495,932231,74,-16083,-3458,3,-19,13
26,1496,932236,64,-16081,-3567,0,-19,13
26,1497,932241,70,-16095,-3589,-1,-11,14
26,1498,932246,52,-16087,-3595,0,-5,15
26,1499,932251,34,-16059,-3617,-2,-1,17
26,1500,932256,82,-16037,-3599,-4,0,15
26,1501,932261,76,-16030,-3587,-6,5,16
26,1502,932266,89,-16050,-3521,-5,5,17
26,1503,932271,129,-16028,-3566,-5,4,20
26,1504,932276,118,-16046,-3631,-3,7,21
26,1505,932281,92,-16078,-3593,-4,11,19
26,1506,932286,50,-15996,-3565,-5,19,21
26,1507,932291,13,-15945,-3567,-5,19,20
26,1508,932296,7,-15923,-3584,-4,21,22
26,1509,932301,87,-15917,-3625,-3,23,23
26,1510,932306,140,-15928,-3567,-3,24,22
26,1511,932311,149,-15909,-3488,-2,22,24
26,1512,932316,173,-15942,-3551,-3,18,23
26,1513,932321,154,-15937,-3600,-3,15,22
26,1514,932326,163,-15953,-3606,-2,16,25
26,1515,932331,161,-15951,-3615,-4,14,27
26,1516,932336,171,-15962,-3605,-4,13,28
26,1517,932341,223,-15969,-3598,-1,13,29
26,1518,932346,227,-15988,-3572,1,14,26
26,1519,932351,247,-16030,-3575,1,9,28
26,1520,932356,219,-15997,-3506,0,10,26
26,1521,932361,195,-15979,-3462,1,13,26
26,1522,932366,128,-16024,-3472,-1,16,27
26,1523,932371,169,-16035,-3478,-2,18,28
26,1524,932376,226,-16050,-3503,0,20,24
26,1525,932381,229,-16031,-3516,1,19,25
26,1526,932386,176,-15995,-3566,1,19,24
26,1527,932391,150,-15971,-3545,1,19,24
26,1528,932396,104,-15956,-3520,1,22,22
26,1529,932401,87,-15982,-3556,0,22,20
26,1530,932406,136,-16002,-3591,-1,30,18
26,1531,932411,170,-16070,-3506,-2,35,19
26,1532,932416,210,-16114,-3435,1,31,19
26,1533,932421,183,-16149,-3481,-1,27,19
26,1534,932426,172,-16139,-3436,-1,30,14
26,1535,932431,159,-16133,-3417,0,24,13
26,1536,932436,127,-16170,-3416,0,15,12
26,1537,932441,186,-16205,-3487,-1,8,11
26,1538,932446,118,-16169,-3495,-2,6,10
26,1539,932451,36,-16178,-3533,-5,2,6
26,1540,932456,55,-16158,-3582,-1,-1,4
26,1541,932461,33,-16174,-3509,-2,1,4
26,1542,932466,-21,-16162,-3507,-2,3,3
26,1543,932471,-1,-16148,-3523,-2,10,0
26,1544,932476,50,-16153,-3519,-2,17,-2
26,1545,932481,78,-16173,-3440,-2,22,-5
26,1546,932486,46,-16185,-3378,-4,20,-8
26,1547,932491,-39,-16115,-3381,-2,7,-12
26,1548,932496,13,-16104,-3388,-3,7,-12
26,1549,932501,22,-16113,-3362,-4,1,-12
26,1550,932506,7,-16124,-3433,-4,-11,-17
26,1551,932511,52,-16137,-3483,-7,-17,-21
26,1552,932516,92,-16135,-3392,-6,-18,-21
26,1553,932521,42,-16162,-3400,-6,-20,-22
26,1554,932526,39,-16151,-3457,-9,-26,-23
26,1555,932531,30,-16086,-3443,-8,-26,-24
26,1556,932536,25,-16085,-3411,-6,-30,-26
26,1557,932541,8,-16075,-3471,-8,-30,-27
26,1558,932546,54,-16092,-3494,-10,-34,-27
26,1559,932551,53,-16105,-3513,-7,-33,-29
26,1560,932556,28,-16078,-3536,-8,-31,-28
26,1561,932561,51,-16049,-3585,-6,-28,-31
26,1562,932566,57,-16080,-3594,-7,-24,-35
26,1563,932571,24,-16046,-3562,-8,-19,-36
26,1564,932576,3,-16020,-3577,-6,-16,-35
26,1565,932581,3,-16019,-3577,-7,-11,-36
26,1566,932586,19,-16002,-3510,-8,-10,-36
26,1567,932591,93,-16018,-3483,-6,-18,-33
26,1568,932596,148,-16047,-3469,-6,-22,-37
26,1569,932601,131,-16072,-3443,-6,-22,-36
26,1570,932606,95,-16011,-3420,-5,-25,-36
26,1571,932611,93,-15992,-3487,-5,-31,-34
26,1572,932616,80,-16016,-3493,-6,-34,-32
26,1573,932621,64,-16022,-3580,-8,-32,-33
26,1574,932626,145,-16051,-3600,-8,-33,-33
26,1575,932631,152,-16009,-3601,-4,-39,-28
26,1576,932636,148,-16050,-3568,-4,-37,-28
26,1577,932641,112,-16044,-3556,-3,-37,-30
26,1578,932646,108,-16015,-3582,-3,-37,-27
26,1579,932651,128,-15983,-3567,-4,-32,-26
26,1580,932656,94,-16011,-3588,-3,-25,-24
26,1581,932661,155,-15986,-3567,-3,-19,-23
26,1582,932666,104,-15974,-3523,-4,-14,-21
26,1583,932671,153,-15950,-3473,-4,-12,-21
26,1584,932676,133,-15967,-3414,-3,-17,-22
26,1585,932681,128,-15993,-3416,1,-17,-17
26,1586,932686,94,-15912,-3511,0,-16,-15
26,1587,932691,65,-15946,-3541,-2,-15,-15
26,1588,932696,124,-15924,-3459,-3,-18,-14
26,1589,932701,137,-15907,-3459,-2,-26,-11
26,1590,932706,67,-15924,-3530,-2,-23,-10
26,1591,932711,68,-15928,-3539,-1,-21,-9
26,1592,932716,142,-15941,-3546,3,-20,-5
26,1593,932721,161,-15967,-3524,2,-18,-3
26,1594,932726,150,-15955,-3524,1,-17,-4
26,1595,932731,132,-15986,-3499,2,-18,0
26,1596,932736,156,-16019,-3520,1,-14,-1
26,1597,932741,134,-16041,-3537,1,-8,0
26,1598,932746,97,-16040,-3530,0,-7,1
26,1599,932751,55,-16010,-3508,2,-5,4
