event_id,seq,ts_ms,ax,ay,az,gx,gy,gz
2,0,70039,-1133,-16236,689,3,-45,-4
2,1,70044,-1205,-16239,651,6,-42,-5
2,2,70049,-1205,-16163,683,7,-30,-6
2,3,70054,-1165,-16196,719,8,-14,-6
2,4,70059,-1113,-16222,729,11,6,-8
2,5,70064,-1097,-16236,739,12,28,-8
2,6,70069,-1067,-16302,724,15,48,-11
2,7,70074,-1017,-16326,848,13,53,-10
2,8,70079,-979,-16341,993,13,47,-10
2,9,70084,-929,-16366,1138,13,43,-12
2,10,70089,-977,-16351,1135,14,39,-12
2,11,70094,-987,-16351,1034,14,25,-14
2,12,70099,-1069,-16428,966,15,2,-13
2,13,70104,-1028,-16459,1010,11,-29,-13
2,14,70109,-1050,-16501,1092,8,-58,-12
2,15,70114,-1024,-16408,1073,6,-78,-12
2,16,70119,-1066,-16368,849,10,-86,-11
2,17,70124,-1149,-16304,702,14,-81,-13
2,18,70129,-1127,-16287,676,11,-76,-14
2,19,70134,-1024,-16310,694,10,-76,-10
2,20,70139,-912,-16303,857,9,-72,-12
2,21,70144,-900,-16296,956,14,-59,-13
2,22,70149,-943,-16286,975,17,-36,-15
2,23,70154,-1029,-16206,971,16,-16,-16
2,24,70159,-1103,-16207,850,20,-5,-14
2,25,70164,-1088,-16202,779,19,1,-15
2,26,70169,-1080,-16190,816,16,-2,-16
2,27,70174,-1048,-16180,949,14,-14,-16
2,28,70179,-1025,-16057,1137,14,-28,-16
2,29,70184,-1001,-16089,1118,15,-32,-20
2,30,70189,-974,-16061,1122,15,-44,-16
2,31,70194,-968,-16093,1074,14,-62,-17
2,32,70199,-897,-16147,998,12,-85,-18
2,33,70204,-900,-16255,904,11,-101,-17
2,34,70209,-854,-16396,954,10,-100,-14
2,35,70214,-846,-16462,1017,10,-89,-15
2,36,70219,-835,-16532,1064,10,-69,-14
2,37,70224,-881,-16618,903,12,-47,-15
2,38,70229,-870,-16651,838,14,-20,-15
2,39,70234,-880,-16650,924,12,1,-14
2,40,70239,-925,-16625,973,11,14,-15
2,41,70244,-931,-16546,914,12,28,-16
2,42,70249,-991,-16451,885,13,47,-16
2,43,70254,-1008,-16436,934,11,61,-15
2,44,70259,-997,-16413,998,15,64,-15
2,45,70264,-970,-16404,1028,14,58,-16
2,46,70269,-928,-16354,1076,12,52,-19
2,47,70274,-948,-16350,1134,10,43,-17
2,48,70279,-978,-16365,1153,10,28,-19
2,49,70284,-951,-16398,1136,10,8,-16
2,50,70289,-969,-16422,1078,8,-13,-13
2,51,70294,-976,-16473,993,7,-33,-15
2,52,70299,-997,-16576,947,7,-53,-13
2,53,70304,-992,-16600,855,7,-69,-12
2,54,70309,-1062,-16666,801,5,-74,-12
2,55,70314,-1032,-16719,739,9,-72,-14
2,56,70319,-1028,-16802,697,13,-63,-12
2,57,70324,-949,-16851,735,12,-52,-10
2,58,70329,-895,-16843,780,13,-39,-12
2,59,70334,-976,-16859,809,13,-28,-14
2,60,70339,-917,-16827,833,12,-12,-15
2,61,70344,-956,-16790,851,14,6,-15
2,62,70349,-973,-16776,859,16,19,-14
2,63,70354,-987,-16720,856,14,23,-15
2,64,70359,-1049,-16695,848,12,28,-18
2,65,70364,-1036,-16661,793,15,28,-16
2,66,70369,-1040,-16643,850,16,26,-15
2,67,70374,-979,-16623,852,17,23,-14
2,68,70379,-941,-16593,838,19,20,-13
2,69,70384,-1062,-16594,949,19,15,-12
2,70,70389,-1122,-16573,1029,17,9,-15
2,71,70394,-1068,-16480,1027,19,-3,-17
2,72,70399,-969,-16509,1082,18,-13,-14
2,73,70404,-861,-16476,1151,16,-22,-12
2,74,70409,-867,-16440,1219,13,-35,-14
2,75,70414,-878,-16445,1142,11,-55,-13
2,76,70419,-960,-16481,1121,8,-75,-13
2,77,70424,-903,-16496,1020,9,-86,-14
2,78,70429,-849,-16530,946,9,-85,-7
2,79,70434,-872,-16540,898,12,-75,-8
2,80,70439,-940,-16510,803,12,-64,-11
2,81,70444,-1032,-16468,634,11,-49,-11
2,82,70449,-1067,-16418,609,14,-29,-11
2,83,70454,-1149,-16377,672,13,-8,-13
2,84,70459,-1081,-16332,742,12,15,-14
2,85,70464,-1017,-16256,752,15,38,-14
2,86,70469,-983,-16232,785,17,58,-16
2,87,70474,-978,-16204,865,17,67,-16
2,88,70479,-989,-16199,978,18,62,-14
2,89,70484,-998,-16206,1060,16,56,-15
2,90,70489,-973,-16220,1052,15,50,-15
2,91,70494,-988,-16251,1010,17,43,-14
2,92,70499,-959,-16270,1102,17,34,-13
2,93,70504,-903,-16320,1232,15,18,-12
2,94,70509,-818,-16413,1269,14,1,-9
2,95,70514,-722,-16492,1296,10,-11,-11
2,96,70519,-748,-16482,1238,10,-16,-11
2,97,70524,-834,-16515,1183,12,-23,-7
2,98,70529,-945,-16529,1125,8,-32,-6
2,99,70534,-937,-16497,1103,5,-43,-7
2,100,70539,-861,-16487,1052,5,-46,-4
2,101,70544,-834,-16456,1056,5,-49,-2
2,102,70549,-914,-16354,944,5,-41,-4
2,103,70554,-1054,-16283,868,3,-33,-3
2,104,70559,-1192,-16176,834,4,-22,-3
2,105,70564,-1205,-16146,685,5,-15,-5
2,106,70569,-1141,-16192,632,7,-5,-6
2,107,70574,-1049,-16236,612,6,7,-7
2,108,70579,-1021,-16256,708,5,22,-8
2,109,70584,-1034,-16271,845,5,37,-8
2,110,70589,-1015,-16266,960,6,51,-9
2,111,70594,-1032,-16293,993,9,70,-9
2,112,70599,-1007,-16315,926,13,81,-11
2,113,70604,-933,-16350,957,14,84,-9
2,114,70609,-859,-16402,1202,9,76,-8
2,115,70614,-745,-16488,1372,5,66,-6
2,116,70619,-746,-16467,1393,4,52,-6
2,117,70624,-791,-16530,1403,4,41,-6
2,118,70629,-856,-16512,1402,1,29,-5
2,119,70634,-995,-16485,1305,1,7,-1
2,120,70639,-1085,-16454,1155,2,-16,0
2,121,70644,-1095,-16407,1000,-4,-41,-2
2,122,70649,-1095,-16311,941,-6,-63,1
2,123,70654,-1057,-16262,934,-8,-80,2
2,124,70659,-986,-16221,962,-9,-92,1
2,125,70664,-990,-16203,965,-5,-98,0
2,126,70669,-979,-16158,884,-6,-93,0
2,127,70674,-1048,-16127,790,-6,-80,-1
2,128,70679,-1042,-16167,678,-4,-69,-4
2,129,70684,-1109,-16192,609,-3,-51,-2
2,130,70689,-1165,-16262,630,0,-29,-4
2,131,70694,-1168,-16296,711,-2,2,-6
2,132,70699,-1133,-16316,805,0,27,-7
2,133,70704,-1183,-16339,902,4,48,-8
2,134,70709,-1177,-16268,1120,3,70,-10
2,135,70714,-1114,-16298,1322,1,88,-11
2,136,70719,-963,-16351,1399,-1,92,-10
2,137,70724,-854,-16346,1484,-2,82,-10
2,138,70729,-778,-16324,1545,-4,65,-11
2,139,70734,-700,-16327,1576,-9,39,-8
2,140,70739,-927,-16346,1535,-13,14,-8
2,141,70744,-1099,-16374,1303,-14,-17,-10
2,142,70749,-1321,-16239,1151,-17,-39,-8
2,143,70754,-1208,-16174,971,-18,-55,-4
2,144,70759,-943,-16054,883,-19,-63,-5
2,145,70764,-813,-15970,805,-18,-74,-5
2,146,70769,-729,-15943,775,-19,-88,-5
2,147,70774,-776,-15857,638,-20,-104,-6
2,148,70779,-845,-15830,602,-17,-104,-5
2,149,70784,-860,-15836,543,-17,-90,-3
2,150,70789,-837,-15931,426,-16,-68,-3
2,151,70794,-736,-16042,393,-11,-45,-3
2,152,70799,-751,-16133,409,-7,-24,-6
2,153,70804,-834,-16249,543,-5,3,-6
2,154,70809,-905,-16338,619,-4,25,-6
2,155,70814,-998,-16386,803,-3,49,-5
2,156,70819,-979,-16487,968,-4,73,-3
2,157,70824,-833,-16542,1078,-3,88,-2
2,158,70829,-792,-16667,1096,2,93,-3
2,159,70834,-875,-16699,1035,1,88,-2
2,160,70839,-1006,-16674,1155,-6,69,-2
2,161,70844,-1164,-16672,1302,-6,52,-2
2,162,70849,-1139,-16624,1292,-9,36,-2
2,163,70854,-1013,-16578,1287,-7,23,1
2,164,70859,-875,-16537,1325,-10,15,-1
2,165,70864,-752,-16474,1346,-12,-2,1
2,166,70869,-804,-16414,1339,-15,-28,-1
2,167,70874,-859,-16418,1157,-18,-51,-3
2,168,70879,-921,-16490,1007,-17,-58,1
2,169,70884,-979,-16548,773,-15,-58,4
2,170,70889,-923,-16721,702,-16,-57,4
2,171,70894,-888,-16883,710,-15,-53,3
2,172,70899,-898,-16953,749,-14,-47,3
2,173,70904,-972,-17027,854,-15,-27,4
2,174,70909,-1028,-17153,770,-13,-9,1
2,175,70914,-1001,-17243,710,-10,25,6
2,176,70919,-974,-17213,793,-9,34,3
2,177,70924,-1109,-17166,787,-6,31,2
2,178,70929,-1184,-17104,787,-6,35,-2
2,179,70934,-1236,-17040,832,-7,41,-3
2,180,70939,-1215,-16942,921,-4,42,-3
2,181,70944,-1150,-16933,863,-2,36,-4
2,182,70949,-1058,-16926,825,-1,31,-4
2,183,70954,-1042,-16929,895,-3,17,-5
2,184,70959,-1016,-16957,1007,-5,7,-5
2,185,70964,-968,-16987,912,-4,-4,-7
2,186,70969,-968,-17070,743,-1,-9,-3
2,187,70974,-968,-17139,629,1,-7,-1
2,188,70979,-992,-17116,598,0,-6,-2
2,189,70984,-1042,-17159,649,3,-19,-3
2,190,70989,-1071,-17061,644,4,-33,-4
2,191,70994,-1132,-16971,682,4,-43,-5
2,192,70999,-1110,-16911,759,4,-53,-3
2,193,71004,-1060,-16770,912,7,-67,-2
2,194,71009,-1020,-16626,991,7,-86,-5
2,195,71014,-991,-16494,1027,5,-110,-4
2,196,71019,-1008,-16338,1028,5,-137,-2
2,197,71024,-1088,-16211,1019,6,-161,-5
2,198,71029,-1046,-16087,1127,5,-184,-5
2,199,71034,-952,-15991,1141,1,-195,-3
2,200,71039,-787,-15952,1175,3,-191,-3
2,201,71044,-709,-15917,1288,2,-182,-1
2,202,71049,-622,-15906,1217,2,-170,-2
2,203,71054,-661,-15898,1227,-2,-153,-4
2,204,71059,-706,-15864,1172,0,-128,-1
2,205,71064,-757,-15853,920,-3,-94,-1
2,206,71069,-783,-15832,855,-3,-53,-1
2,207,71074,-775,-15888,714,0,-22,4
2,208,71079,-787,-15861,645,0,5,2
2,209,71084,-832,-15813,621,-3,22,-1
2,210,71089,-926,-15817,644,-1,31,-2
2,211,71094,-925,-15766,871,1,37,-1
2,212,71099,-910,-15760,1081,-4,41,-2
2,213,71104,-908,-15744,1260,-3,54,-1
2,214,71109,-878,-15774,1262,-1,59,-1
2,215,71114,-917,-15792,1273,-2,63,-2
2,216,71119,-925,-15799,1349,-5,63,-3
2,217,71124,-942,-15857,1376,-7,55,1
2,218,71129,-958,-15889,1350,-10,47,-1
2,219,71134,-934,-15924,1339,-12,48,-3
2,220,71139,-963,-15948,1450,-16,49,-1
2,221,71144,-897,-15881,1608,-21,40,1
2,222,71149,-837,-15834,1684,-21,28,0
2,223,71154,-839,-15857,1549,-21,21,-1
2,224,71159,-892,-15883,1459,-23,12,3
2,225,71164,-870,-15896,1397,-28,-1,1
2,226,71169,-813,-16009,1390,-32,-12,2
2,227,71174,-737,-16101,1246,-37,-16,3
2,228,71179,-682,-16117,1266,-36,1,0
2,229,71184,-654,-16323,1250,-36,17,5
2,230,71189,-523,-16331,1303,-42,33,5
2,231,71194,-443,-16392,1270,-44,57,9
2,232,71199,-354,-16474,1063,-44,100,8
2,233,71204,-554,-16475,927,-40,161,3
2,234,71209,-560,-16667,749,-36,213,7
2,235,71214,-659,-16548,747,-39,257,7
2,236,71219,-543,-16604,772,-39,294,13
2,237,71224,-761,-16532,891,-39,327,10
2,238,71229,-861,-16478,808,-36,344,7
2,239,71234,-995,-16278,889,-37,344,8
2,240,71239,-925,-16189,874,-37,325,15
2,241,71244,-759,-16019,985,-36,295,13
2,242,71249,-742,-15981,977,-36,247,15
2,243,71254,-811,-15931,936,-38,183,13
2,244,71259,-943,-15929,815,-40,112,15
2,245,71264,-1062,-16031,707,-39,57,15
2,246,71269,-1079,-16132,684,-37,13,16
2,247,71274,-1040,-16366,523,-34,-33,20
2,248,71279,-955,-16855,367,-35,-66,18
2,249,71284,-898,-17175,502,-31,-60,21
2,250,71289,-892,-17408,489,-28,-52,21
2,251,71294,-948,-17576,391,-25,-26,21
2,252,71299,-1132,-17692,347,-20,6,18
2,253,71304,-1234,-17727,332,-16,26,14
2,254,71309,-1290,-17725,372,-13,38,18
2,255,71314,-1238,-17624,557,-13,49,15
2,256,71319,-1186,-17498,714,-12,54,13
2,257,71324,-1168,-17394,795,-9,50,11
2,258,71329,-1172,-17308,719,-7,32,11
2,259,71334,-1233,-17260,767,-4,12,8
2,260,71339,-1336,-17160,824,-8,-10,5
2,261,71344,-1438,-17100,775,-6,-35,4
2,262,71349,-1587,-17034,686,-1,-53,4
2,263,71354,-1613,-16955,576,1,-61,3
2,264,71359,-1668,-16920,434,2,-70,-2
2,265,71364,-1697,-16876,266,6,-80,-6
2,266,71369,-1694,-16844,163,6,-86,-8
2,267,71374,-1720,-16810,25,12,-85,-12
2,268,71379,-1722,-16738,-47,18,-79,-16
2,269,71384,-1720,-16634,-134,18,-69,-21
2,270,71389,-1671,-16540,-159,24,-65,-25
2,271,71394,-1648,-16433,-193,30,-67,-25
2,272,71399,-1547,-16338,-206,35,-73,-31
2,273,71404,-1478,-16286,-91,38,-78,-33
2,274,71409,-1341,-16252,111,42,-89,-33
2,275,71414,-1132,-16298,561,47,-108,-38
2,276,71419,-1023,-16240,854,46,-133,-44
2,277,71424,-863,-16293,960,52,-139,-41
2,278,71429,-865,-16397,931,54,-125,-36
2,279,71434,-872,-16490,1127,54,-106,-33
2,280,71439,-736,-16672,1197,50,-121,-32
2,281,71444,-591,-16668,937,50,-148,-38
2,282,71449,-604,-16651,1032,53,-132,-37
2,283,71454,-728,-16605,1229,53,-106,-33
2,284,71459,-801,-16589,1436,49,-88,-31
2,285,71464,-810,-16487,1261,46,-86,-31
2,286,71469,-724,-16388,1037,43,-76,-31
2,287,71474,-693,-16297,1037,44,-50,-29
2,288,71479,-746,-16310,1175,42,-38,-29
2,289,71484,-798,-16313,1406,42,-41,-28
2,290,71489,-803,-16259,1366,39,-51,-27
2,291,71494,-787,-16273,1239,38,-48,-27
2,292,71499,-757,-16295,1229,35,-47,-28
2,293,71504,-768,-16334,1296,32,-61,-26
2,294,71509,-745,-16323,1314,30,-83,-22
2,295,71514,-789,-16307,1333,29,-99,-20
2,296,71519,-826,-16402,1288,29,-106,-19
2,297,71524,-863,-16323,1226,25,-101,-20
2,298,71529,-896,-16225,1140,25,-99,-22
2,299,71534,-816,-16167,1057,23,-98,-18
2,300,71539,-787,-16134,954,20,-89,-14
2,301,71544,-836,-16124,896,20,-72,-14
2,302,71549,-800,-16129,952,20,-51,-17
2,303,71554,-890,-16123,977,20,-26,-18
2,304,71559,-846,-16114,981,20,-4,-16
2,305,71564,-872,-16080,981,21,21,-15
2,306,71569,-866,-16116,984,22,38,-17
2,307,71574,-807,-16111,1117,19,41,-19
2,308,71579,-737,-16136,1206,18,37,-15
2,309,71584,-688,-16113,1225,17,28,-16
2,310,71589,-727,-16164,1148,15,22,-15
2,311,71594,-757,-16220,1168,14,15,-15
2,312,71599,-786,-16095,1201,13,-8,-15
2,313,71604,-748,-16043,1153,10,-34,-7
2,314,71609,-742,-15981,1066,9,-48,-6
2,315,71614,-780,-15973,1048,7,-50,-3
2,316,71619,-774,-15941,1037,6,-59,-4
2,317,71624,-783,-15890,970,7,-73,-6
2,318,71629,-815,-15886,902,5,-77,-8
2,319,71634,-901,-15892,841,5,-66,-5
2,320,71639,-983,-15993,827,9,-44,-1
2,321,71644,-880,-16064,813,10,-25,1
2,322,71649,-967,-16406,814,7,14,-4
2,323,71654,-1135,-16356,871,9,33,-8
2,324,71659,-1133,-16421,1023,10,57,-4
2,325,71664,-1095,-16414,1160,10,84,-7
2,326,71669,-974,-16401,1192,9,103,-5
2,327,71674,-918,-16343,1275,8,114,-7
2,328,71679,-857,-16303,1351,7,110,-8
2,329,71684,-831,-16250,1444,3,93,-9
2,330,71689,-820,-16242,1509,1,69,-8
2,331,71694,-871,-16231,1398,-4,40,-5
2,332,71699,-876,-16286,1250,-1,9,-5
2,333,71704,-918,-16374,1057,-5,-28,-4
2,334,71709,-906,-16484,962,-8,-65,-1
2,335,71714,-845,-16582,889,-8,-96,0
2,336,71719,-968,-16684,740,-7,-121,2
2,337,71724,-1079,-16813,567,-4,-129,2
2,338,71729,-1095,-16908,509,-6,-116,0
2,339,71734,-1054,-16966,659,-3,-96,2
2,340,71739,-926,-17054,744,-4,-78,3
2,341,71744,-889,-17054,661,0,-58,0
2,342,71749,-1015,-16982,590,2,-36,-4
2,343,71754,-1142,-16917,635,0,-16,-4
2,344,71759,-1148,-16804,800,1,-6,0
2,345,71764,-1092,-16724,905,4,-4,-4
2,346,71769,-1057,-16656,978,5,1,-7
2,347,71774,-1029,-16583,1017,5,11,-7
2,348,71779,-989,-16609,1017,5,10,-8
2,349,71784,-906,-16637,960,6,4,-9
2,350,71789,-877,-16639,913,5,-4,-9
2,351,71794,-846,-16686,887,3,-10,-6
2,352,71799,-846,-16740,1011,4,-14,-6
2,353,71804,-862,-16756,1022,6,-16,-5
2,354,71809,-825,-16741,1038,3,-14,-5
2,355,71814,-831,-16804,940,5,-13,-4
2,356,71819,-895,-16801,881,5,-17,-2
2,357,71824,-1010,-16770,917,5,-27,-2
2,358,71829,-1072,-16721,838,2,-43,-4
2,359,71834,-1102,-16670,701,5,-49,-1
2,360,71839,-1121,-16561,528,8,-47,-2
2,361,71844,-1158,-16459,506,7,-42,-3
2,362,71849,-1165,-16407,528,7,-42,-6
2,363,71854,-1084,-16340,574,12,-45,-9
2,364,71859,-1049,-16303,623,10,-45,-7
2,365,71864,-990,-16326,687,14,-44,-8
2,366,71869,-886,-16375,821,16,-37,-8
2,367,71874,-817,-16475,918,17,-37,-9
2,368,71879,-745,-16562,1137,15,-37,-5
2,369,71884,-662,-16658,1318,15,-40,-6
2,370,71889,-662,-16696,1367,14,-41,-5
2,371,71894,-642,-16737,1307,13,-39,-3
2,372,71899,-598,-16820,1226,11,-30,-1
2,373,71904,-652,-16819,1182,12,-19,3
2,374,71909,-737,-16746,1143,7,-12,4
2,375,71914,-767,-16657,1084,6,-8,3
2,376,71919,-798,-16571,1039,8,4,5
2,377,71924,-734,-16465,1045,4,19,7
2,378,71929,-704,-16360,1153,3,32,6
2,379,71934,-704,-16282,1138,2,33,6
2,380,71939,-732,-16229,1049,2,27,4
2,381,71944,-832,-16199,1033,2,22,6
2,382,71949,-840,-16219,1010,-2,14,9
2,383,71954,-807,-16242,1162,-3,-1,9
2,384,71959,-781,-16281,1141,-2,-12,11
2,385,71964,-864,-16374,1120,-1,-14,11
2,386,71969,-882,-16367,1071,-2,-18,11
2,387,71974,-827,-16412,1121,-3,-19,16
2,388,71979,-704,-16531,1093,-5,-13,18
2,389,71984,-705,-16555,1187,-8,2,18
2,390,71989,-653,-16611,1112,-6,19,16
2,391,71994,-844,-16568,1088,-4,42,14
2,392,71999,-985,-16663,252,-8,59,17
2,393,72004,-1207,-16714,-869,-16,96,19
2,394,72009,-1433,-16770,-1024,-30,141,25
2,395,72014,-3167,-16603,3588,8,167,20
2,396,72019,-2489,-16679,1636,42,218,29
2,397,72024,-298,-16909,-145,41,350,61
2,398,72029,629,-16867,1369,7,358,74
2,399,72034,-416,-16675,3382,-19,85,60
2,400,72039,-2432,-16470,2480,-30,-286,52
2,401,72044,-3624,-16304,640,-31,-429,76
2,402,72049,-3560,-16576,-3,-24,-331,121
2,403,72054,-2903,-16810,486,-17,-229,144
2,404,72059,-2406,-16942,568,-20,-289,149
2,405,72064,-2298,-16879,-207,-23,-421,149
2,406,72069,-2633,-16819,-792,-22,-445,162
2,407,72074,-3225,-16975,-288,-17,-355,187
2,408,72079,-3582,-17137,306,-10,-286,211
2,409,72084,-3600,-17147,329,0,-261,229
2,410,72089,-3402,-17028,-52,7,-228,249
2,411,72094,-3194,-16931,231,19,-164,280
2,412,72099,-3200,-16860,1176,31,-133,309
2,413,72104,-3255,-16660,1637,28,-187,330
2,414,72109,-3386,-16370,1363,25,-278,357
2,415,72114,-3628,-16216,1171,23,-335,393
2,416,72119,-3831,-16071,1157,23,-374,434
2,417,72124,-4093,-16060,1380,21,-421,472
2,418,72129,-4442,-15994,1599,19,-491,508
2,419,72134,-4663,-15942,1944,20,-549,550
2,420,72139,-4698,-15987,2120,23,-564,598
2,421,72144,-4239,-16133,2509,35,-539,645
2,422,72149,-3647,-16177,3132,42,-533,690
2,423,72154,-3136,-16238,3434,44,-596,732
2,424,72159,-2717,-16242,3319,41,-699,777
2,425,72164,-2670,-16178,3380,34,-800,824
2,426,72169,-3205,-16043,3706,30,-895,877
2,427,72174,-3999,-16030,3533,28,-982,926
2,428,72179,-4447,-15944,3011,33,-1034,978
2,429,72184,-4437,-15967,2446,46,-1021,1028
2,430,72189,-4406,-16026,2256,61,-972,1078
2,431,72194,-4364,-16057,2156,75,-920,1122
2,432,72199,-4455,-16128,1810,85,-870,1162
2,433,72204,-4706,-16257,1603,99,-788,1205
2,434,72209,-5176,-16451,1757,112,-677,1249
2,435,72214,-5403,-16661,1538,127,-565,1295
2,436,72219,-5406,-16965,1614,146,-432,1338
2,437,72224,-5403,-17293,1787,167,-303,1381
2,438,72229,-5567,-17562,1768,185,-175,1420
2,439,72234,-5586,-17744,1744,202,-64,1458
2,440,72239,-5191,-17960,1924,210,24,1505
2,441,72244,-5164,-18035,2252,215,88,1545
2,442,72249,-5470,-18199,2290,219,119,1580
2,443,72254,-5968,-18181,2059,223,141,1621
2,444,72259,-6544,-18149,1935,226,165,1668
2,445,72264,-6977,-18068,2045,232,191,1712
2,446,72269,-7391,-17965,2441,234,206,1755
2,447,72274,-7372,-17987,2162,238,210,1792
2,448,72279,-6961,-18011,1706,242,222,1836
2,449,72284,-6578,-18017,1782,242,246,1875
2,450,72289,-6745,-18029,2079,240,232,1908
2,451,72294,-7216,-17903,2024,236,170,1948
2,452,72299,-7498,-17828,1833,234,119,1985
2,453,72304,-7577,-17718,1644,238,104,2019
2,454,72309,-7704,-17539,1664,250,112,2054
2,455,72314,-7896,-17335,1664,260,88,2085
2,456,72319,-7998,-16941,1513,263,24,2121
2,457,72324,-7920,-16534,1475,259,-54,2161
2,458,72329,-7997,-16168,1438,259,-127,2198
2,459,72334,-8224,-15797,1750,268,-208,2229
2,460,72339,-8502,-15483,2058,272,-316,2265
2,461,72344,-8568,-15214,2087,275,-437,2300
2,462,72349,-8604,-15086,2342,285,-535,2330
2,463,72354,-8837,-15109,2526,302,-629,2354
2,464,72359,-9039,-15041,2602,310,-726,2386
2,465,72364,-9040,-14989,2499,318,-829,2419
2,466,72369,-9243,-14918,2325,327,-923,2441
2,467,72374,-9535,-14842,2281,336,-992,2461
2,468,72379,-10243,-14686,2509,361,-1050,2499
2,469,72384,-10374,-14666,2373,384,-1013,2517
2,470,72389,-10247,-14747,1975,411,-926,2534
2,471,72394,-10052,-14855,1718,441,-810,2549
2,472,72399,-9826,-14851,1626,465,-708,2557
2,473,72404,-9752,-14519,1485,481,-632,2562
2,474,72409,-9964,-14145,1256,499,-562,2565
2,475,72414,-10373,-13781,1204,521,-479,2573
2,476,72419,-10828,-13379,1125,544,-382,2578
2,477,72424,-11196,-13079,1318,560,-283,2586
2,478,72429,-11485,-12812,1395,575,-196,2595
2,479,72434,-11606,-12615,1454,593,-119,2596
2,480,72439,-11413,-12805,1509,605,-42,2597
2,481,72444,-13850,-12587,2727,609,11,2592
2,482,72449,-10329,-13015,257,629,22,2583
2,483,72454,-12442,-12738,1550,652,143,2626
2,484,72459,-11189,-14208,2681,649,188,2620
2,485,72464,-13059,-13184,1592,662,163,2563
2,486,72469,-12675,-13865,2257,674,194,2611
2,487,72474,-11690,-14094,2076,672,237,2625
2,488,72479,-11365,-14084,3028,677,332,2599
2,489,72484,-11264,-14181,3267,677,348,2588
2,490,72489,-11932,-13670,2508,682,315,2583
2,491,72494,-12159,-13571,2408,682,331,2591
2,492,72499,-12432,-13127,1681,688,375,2589
2,493,72504,-12523,-12893,1968,693,420,2588
2,494,72509,-12582,-12625,1959,691,398,2587
2,495,72514,-12716,-12239,1605,692,362,2577
2,496,72519,-13030,-11948,1655,691,359,2570
2,497,72524,-13255,-11755,1606,691,375,2567
2,498,72529,-13327,-11560,1613,690,399,2561
2,499,72534,-13417,-11490,1534,688,418,2552
2,500,72539,-13409,-11392,1508,679,447,2536
2,501,72544,-13095,-11173,1417,673,492,2528
2,502,72549,-12868,-11010,1000,668,571,2516
2,503,72554,-12440,-10949,771,665,691,2497
2,504,72559,-12611,-10698,915,661,830,2488
2,505,72564,-12564,-10750,1231,651,974,2482
2,506,72569,-12885,-10402,861,641,1137,2471
2,507,72574,-12929,-10277,224,628,1329,2463
2,508,72579,-12912,-9950,-223,615,1529,2448
2,509,72584,-12800,-9645,-193,596,1715,2436
2,510,72589,-12628,-9474,-97,575,1873,2424
2,511,72594,-12451,-9155,-209,553,2031,2408
2,512,72599,-12400,-9006,-81,531,2205,2393
2,513,72604,-12423,-8775,78,504,2362,2375
2,514,72609,-12126,-8413,622,474,2479,2363
2,515,72614,-11972,-8299,1000,446,2543,2366
2,516,72619,-11637,-8170,1404,411,2573,2355
2,517,72624,-11628,-8053,2139,364,2556,2353
2,518,72629,-11627,-8003,2556,317,2480,2354
2,519,72634,-11744,-7871,2501,273,2385,2352
2,520,72639,-11761,-7738,2386,232,2277,2330
2,521,72644,-11599,-7594,2656,192,2141,2315
2,522,72649,-11216,-7401,2989,149,1963,2314
2,523,72654,-11052,-7306,3296,111,1771,2311
2,524,72659,-11201,-7687,3828,74,1590,2295
2,525,72664,-11622,-7915,3378,31,1413,2283
2,526,72669,-12735,-7669,2290,5,1263,2278
2,527,72674,-13620,-7397,1257,-11,1117,2244
2,528,72679,-14329,-7014,1155,-35,926,2209
2,529,72684,-14743,-6746,1042,-61,691,2205
2,530,72689,-15019,-6717,800,-78,475,2180
2,531,72694,-15260,-6780,556,-93,303,2137
2,532,72699,-14554,-6852,212,-98,154,2103
2,533,72704,-12327,-6997,-51,-94,20,2077
2,534,72709,-10743,-6839,116,-88,-107,2034
2,535,72714,-11995,-6208,1014,-91,-266,1998
2,536,72719,-12623,-5421,424,-101,-480,2013
2,537,72724,-11056,-5001,2115,-101,-627,2021
2,538,72729,-12831,-4662,1280,-86,-815,1937
2,539,72734,-15068,-3678,730,-104,-1054,1889
2,540,72739,-15517,-2855,1875,-140,-1385,1924
2,541,72744,-16773,-2247,1968,-95,-1803,1794
2,542,72749,-16810,-1896,2311,-102,-1987,1738
2,543,72754,-16318,-1346,2571,-97,-2153,1699
2,544,72759,-15733,-886,2486,-87,-2275,1653
2,545,72764,-15415,-228,2405,-92,-2315,1598
2,546,72769,-15239,230,2757,-94,-2268,1556
2,547,72774,-15447,450,2040,-90,-2199,1511
2,548,72779,-15542,255,641,-69,-2067,1458
2,549,72784,-15785,0,418,-52,-1880,1407
2,550,72789,-15804,-73,842,-54,-1738,1369
2,551,72794,-15661,55,1258,-58,-1629,1322
2,552,72799,-15793,271,1561,-53,-1518,1271
2,553,72804,-16245,501,1482,-57,-1413,1226
2,554,72809,-16139,621,1869,-65,-1290,1182
2,555,72814,-15265,404,2002,-67,-1177,1139
2,556,72819,-14227,115,1958,-62,-1062,1099
2,557,72824,-13508,-130,2251,-58,-943,1054
2,558,72829,-13198,-151,2601,-59,-848,1005
2,559,72834,-13119,-199,2675,-63,-773,965
2,560,72839,-13311,-266,2653,-67,-681,938
2,561,72844,-13638,-464,2610,-71,-567,911
2,562,72849,-13852,-780,2515,-74,-452,879
2,563,72854,-13417,-956,1761,-64,-366,861
2,564,72859,-13422,-540,3425,-59,-290,845
2,565,72864,-13854,-259,3849,-67,-305,801
2,566,72869,-14298,-397,2679,-73,-329,769
2,567,72874,-14477,-567,2280,-76,-249,757
2,568,72879,-14408,-432,1931,-71,-114,746
2,569,72884,-14122,-447,2577,-63,0,733
2,570,72889,-14087,-216,2892,-69,-5,706
2,571,72894,-14281,139,2589,-77,-24,671
2,572,72899,-14299,486,2461,-71,18,647
2,573,72904,-14394,842,2699,-69,96,620
2,574,72909,-14466,1029,2984,-64,165,589
2,575,72914,-14369,1089,2771,-63,210,552
2,576,72919,-14082,1161,2646,-51,274,524
2,577,72924,-13630,1176,2948,-41,342,502
2,578,72929,-13339,1099,3199,-38,385,472
2,579,72934,-13371,907,2838,-39,405,445
2,580,72939,-13425,794,2403,-32,447,426
2,581,72944,-13490,982,3036,-25,521,413
2,582,72949,-13627,1291,3482,-24,582,392
2,583,72954,-13677,1352,3068,-18,645,361
2,584,72959,-13319,1239,2582,-10,735,337
2,585,72964,-13138,1196,2861,4,839,316
2,586,72969,-13241,1194,3157,10,898,289
2,587,72974,-13516,1194,3124,12,906,256
2,588,72979,-13856,1196,2686,12,909,217
2,589,72984,-14152,1167,2426,10,926,184
2,590,72989,-14405,1249,2296,8,946,152
2,591,72994,-14500,1482,1831,13,956,122
2,592,72999,-14304,1440,1281,24,972,85
2,593,73004,-14116,1553,1296,33,991,41
2,594,73009,-13686,1395,1992,39,998,7
2,595,73014,-13074,1326,2168,47,989,-43
2,596,73019,-12765,1150,2353,61,1015,-90
2,597,73024,-13175,1003,2719,76,1057,-142
2,598,73029,-13714,908,3173,88,1076,-184
2,599,73034,-13597,751,2735,94,1055,-223
2,600,73039,-13051,663,2560,86,1043,-256
2,601,73044,-12520,788,3149,76,1017,-299
2,602,73049,-11881,961,3762,74,967,-347
2,603,73054,-11827,1143,4816,79,903,-396
2,604,73059,-12284,945,5612,85,827,-446
2,605,73064,-11983,21,3865,90,756,-489
2,606,73069,-11508,-967,3277,73,712,-532
2,607,73074,-11363,-1528,2867,39,583,-580
2,608,73079,-11760,-1730,2851,13,407,-629
2,609,73084,-12831,-1508,2368,-5,254,-682
2,610,73089,-12554,-1168,935,-8,242,-728
2,611,73094,-9324,-1048,-531,-1,403,-792
2,612,73099,-13249,-741,4206,10,549,-907
2,613,73104,-16378,-318,2161,46,406,-940
2,614,73109,-14811,-701,-1086,63,432,-956
2,615,73114,-12161,-1074,1997,27,647,-1096
2,616,73119,-11771,-1402,2408,34,424,-1181
2,617,73124,-12614,-1399,172,22,153,-1276
2,618,73129,-14020,-1289,-197,12,83,-1345
2,619,73134,-14852,-1214,1070,9,82,-1389
2,620,73139,-14469,-1294,1893,11,11,-1438
2,621,73144,-13465,-1240,1557,6,-102,-1515
2,622,73149,-12720,-1373,912,3,-179,-1586
2,623,73154,-12341,-1365,548,-6,-203,-1653
2,624,73159,-12348,-1589,897,-14,-221,-1710
2,625,73164,-12608,-1666,989,-25,-274,-1778
2,626,73169,-12876,-1746,528,-29,-315,-1851
2,627,73174,-13088,-1899,-158,-30,-285,-1919
2,628,73179,-13165,-2193,-478,-28,-199,-1976
2,629,73184,-13110,-2636,-398,-26,-131,-2035
2,630,73189,-13014,-3050,-613,-26,-108,-2102
2,631,73194,-13118,-3474,-837,-25,-82,-2172
2,632,73199,-13369,-3867,-1014,-23,-43,-2245
2,633,73204,-13644,-4277,-614,-19,-13,-2311
2,634,73209,-13772,-4714,-84,-13,-18,-2369
2,635,73214,-13678,-5065,56,-11,-51,-2434
2,636,73219,-13612,-5386,-31,-5,-78,-2503
2,637,73224,-13286,-5514,-118,-4,-106,-2564
2,638,73229,-12946,-5630,362,-9,-144,-2623
2,639,73234,-12673,-5694,944,-19,-216,-2685
2,640,73239,-12369,-5749,1250,-23,-293,-2750
2,641,73244,-12395,-6046,1018,-22,-353,-2802
2,642,73249,-12586,-6395,1158,-29,-390,-2863
2,643,73254,-12660,-6744,1214,-41,-447,-2920
2,644,73259,-12468,-7070,668,-45,-511,-2968
2,645,73264,-11913,-7645,13,-51,-553,-3018
2,646,73269,-11707,-8044,-55,-64,-573,-3078
2,647,73274,-11559,-8441,248,-75,-615,-3130
2,648,73279,-11494,-8688,462,-86,-685,-3179
2,649,73284,-11466,-8926,704,-95,-741,-3232
2,650,73289,-11625,-9242,1107,-109,-774,-3283
2,651,73294,-11583,-9536,1530,-122,-811,-3329
2,652,73299,-11494,-9907,1884,-140,-872,-3367
2,653,73304,-11270,-10182,2129,-164,-954,-3419
2,654,73309,-10502,-10095,1993,-187,-1053,-3465
2,655,73314,-9593,-10042,1309,-204,-1142,-3490
2,656,73319,-8870,-10381,1044,-225,-1221,-3527
2,657,73324,-9275,-10426,1212,-263,-1345,-3580
2,658,73329,-10216,-10039,1253,-299,-1504,-3620
2,659,73334,-11244,-9946,1086,-328,-1620,-3667
2,660,73339,-12022,-9734,-35,-358,-1639,-3709
2,661,73344,-12306,-10063,267,-373,-1532,-3729
2,662,73349,-10723,-11399,-1463,-397,-1392,-3778
2,663,73354,-9322,-11900,-1760,-411,-1185,-3783
2,664,73359,-8270,-12698,-1127,-412,-1012,-3839
2,665,73364,-9074,-12948,-886,-438,-920,-3923
2,666,73369,-10702,-13572,-722,-443,-862,-3943
2,667,73374,-10752,-14395,-99,-465,-743,-3967
2,668,73379,-10569,-14328,115,-469,-559,-4002
2,669,73384,-9662,-14579,127,-448,-358,-4031
2,670,73389,-9214,-14423,-878,-433,-222,-4066
2,671,73394,-8586,-14517,-912,-436,-141,-4101
2,672,73399,-8737,-14552,-598,-453,-126,-4138
2,673,73404,-9348,-14782,88,-457,-113,-4176
2,674,73409,-10054,-14961,150,-447,-51,-4218
2,675,73414,-9906,-15321,-38,-434,78,-4243
2,676,73419,-8383,-15954,168,-424,247,-4238
2,677,73424,-5326,-17013,1241,-421,383,-4238
2,678,73429,-2449,-18381,2279,-415,452,-4247
2,679,73434,-1963,-20152,2965,-407,456,-4260
2,680,73439,-4247,-21409,2748,-399,400,-4300
2,681,73444,-8075,-21781,2383,-401,306,-4330
2,682,73449,-10531,-21624,2075,-410,191,-4306
2,683,73454,-9918,-21385,2415,-428,104,-4270
2,684,73459,-7747,-21366,3386,-431,16,-4257
2,685,73464,-6183,-21669,3775,-433,-152,-4277
2,686,73469,-6195,-22208,2831,-446,-403,-4307
2,687,73474,-6772,-22945,928,-471,-646,-4316
2,688,73479,-7680,-24775,1608,-537,-835,-4275
2,689,73484,-7352,-25010,1911,-557,-883,-4278
2,690,73489,-6274,-25600,1281,-556,-896,-4261
2,691,73494,-4934,-25957,538,-581,-881,-4250
2,692,73499,-3847,-26270,1526,-613,-869,-4233
2,693,73504,-3529,-26799,2884,-640,-914,-4210
2,694,73509,-7321,-28497,2906,-618,-1055,-4213
2,695,73514,1850,-21561,13600,793,5801,-7345
2,696,73519,5510,13262,-26342,1407,-9072,-7473
2,697,73524,12141,-7369,-18401,-1957,7986,-1002
2,698,73529,-27821,-2830,32767,-1615,29228,-4694
2,699,73534,-31242,-15187,32767,-1736,8486,-4062
2,700,73539,-31499,12174,30595,1101,1232,-3914
2,701,73544,9650,-11437,-15665,2835,-4742,-1431
2,702,73549,32767,-25479,-32768,471,-17,-1641
2,703,73554,31930,-22873,6473,-1287,10697,-3510
2,704,73559,642,-25611,32767,-858,6891,-4183
2,705,73564,-32768,-19451,32767,-180,-4452,-5005
2,706,73569,1342,-4256,-5296,1068,-16459,-3539
2,707,73574,-19272,17303,-7236,597,-13687,-2038
2,708,73579,14911,-19316,-32262,-716,-8073,-1268
2,709,73584,26147,4256,-20963,-867,-1539,-1215
2,710,73589,24268,-21110,20545,-704,3390,-2192
2,711,73594,-30739,-9852,32534,-506,1876,-4031
2,712,73599,-32768,-12358,-1919,-142,-4284,-3541
2,713,73604,-19173,-3075,-30963,-113,-5333,-2230
2,714,73609,16675,-8932,-25803,-302,135,-1607
2,715,73614,25661,-8209,5011,-380,5156,-2119
2,716,73619,1702,-9951,29257,-376,5480,-2760
2,717,73624,-22971,-7588,20455,-364,1583,-3006
2,718,73629,-16855,-7990,-4176,-298,-1993,-2675
2,719,73634,1875,-7603,-12396,-344,-1637,-2299
2,720,73639,9979,-9915,2174,-338,796,-2180
2,721,73644,3052,-10230,16313,-281,1871,-2355
2,722,73649,-5956,-12992,12795,-249,864,-2397
2,723,73654,-5833,-13758,-3975,-315,-489,-2409
2,724,73659,529,-12629,-11774,-439,-377,-2385
2,725,73664,3123,-14405,-3661,-437,1004,-2290
2,726,73669,-672,-15557,4673,-345,2015,-2329
2,727,73674,-4088,-16955,1708,-229,2044,-2311
2,728,73679,-1159,-16993,-6669,-207,1754,-2253
2,729,73684,2367,-16698,-8091,-239,1914,-2185
2,730,73689,4085,-16725,1484,-241,2219,-2159
2,731,73694,1292,-16804,8546,-200,2027,-2163
2,732,73699,-1070,-16265,6126,-148,1409,-2168
2,733,73704,-986,-15652,1455,-136,942,-2097
2,734,73709,1240,-15934,-125,-163,778,-1993
2,735,73714,3104,-16305,4788,-173,702,-1916
2,736,73719,3080,-16828,7818,-198,283,-1895
2,737,73724,2463,-17118,5504,-207,-251,-1900
2,738,73729,2007,-17100,1310,-216,-473,-1860
2,739,73734,1902,-17436,-613,-221,-269,-1782
2,740,73739,2734,-17873,1029,-232,82,-1726
2,741,73744,4064,-18202,3420,-236,285,-1667
2,742,73749,4733,-18405,3340,-231,349,-1639
2,743,73754,4183,-17985,-3130,-256,529,-1661
2,744,73759,2412,-17989,-2922,-207,1074,-1603
2,745,73764,2583,-20072,1876,-171,1354,-1485
2,746,73769,3312,-19611,-2428,-184,1077,-1502
2,747,73774,4823,-20119,-3328,-174,1173,-1453
2,748,73779,5521,-19810,-50,-145,1409,-1400
2,749,73784,5624,-19913,2826,-134,1359,-1349
2,750,73789,5612,-19335,2809,-130,1136,-1306
2,751,73794,6747,-18973,981,-104,989,-1230
2,752,73799,7392,-18830,800,-77,947,-1151
2,753,73804,6807,-18381,1478,-69,815,-1097
2,754,73809,5395,-17821,1874,-94,519,-1053
2,755,73814,4290,-17231,1393,-109,215,-1007
2,756,73819,4347,-16844,2217,-102,82,-936
2,757,73824,5157,-16862,2611,-94,-34,-868
2,758,73829,5699,-16645,1456,-98,-151,-818
2,759,73834,5664,-16976,1158,-106,-168,-747
2,760,73839,5695,-16725,1776,-88,-144,-703
2,761,73844,5462,-15706,1100,-100,-336,-642
2,762,73849,5022,-14925,-334,-111,-361,-598
2,763,73854,4739,-14389,135,-104,-258,-526
2,764,73859,4504,-14004,958,-97,-195,-460
2,765,73864,4897,-13828,1142,-93,-207,-407
2,766,73869,5952,-13592,1376,-95,-236,-365
2,767,73874,6404,-13490,1523,-97,-277,-322
2,768,73879,6385,-13809,1292,-92,-300,-268
2,769,73884,6249,-13868,1218,-87,-260,-219
2,770,73889,6021,-13887,760,-82,-189,-158
2,771,73894,5614,-13601,445,-75,-86,-107
2,772,73899,5175,-13270,41,-70,6,-64
2,773,73904,4866,-13098,-167,-66,81,-17
2,774,73909,4872,-12850,443,-69,127,30
2,775,73914,5215,-12759,1085,-66,131,80
2,776,73919,5347,-12679,1516,-60,113,121
2,777,73924,5262,-12694,1815,-56,80,159
2,778,73929,5066,-12650,1857,-49,16,208
2,779,73934,5162,-12690,1743,-51,-76,263
2,780,73939,5392,-12750,1791,-52,-169,310
2,781,73944,5599,-13156,1769,-52,-263,361
2,782,73949,5605,-13450,1694,-50,-343,404
2,783,73954,5546,-13753,1517,-47,-396,448
2,784,73959,5566,-14029,1485,-44,-418,493
2,785,73964,5608,-14366,1385,-42,-431,537
2,786,73969,5666,-14598,1469,-46,-417,584
2,787,73974,5586,-14651,1504,-39,-389,630
2,788,73979,5504,-14663,1216,-30,-350,673
2,789,73984,5271,-14663,822,-23,-299,712
2,790,73989,5095,-14886,410,-16,-258,756
2,791,73994,4969,-15021,438,-12,-219,799
2,792,73999,5027,-15052,788,-10,-190,844
2,793,74004,5057,-15064,1057,1,-176,883
2,794,74009,4954,-15168,1180,14,-166,920
2,795,74014,4984,-15322,1072,18,-167,959
2,796,74019,5006,-15493,989,27,-187,1003
2,797,74024,5032,-15593,793,31,-224,1042
2,798,74029,4915,-15699,728,35,-257,1079
2,799,74034,4724,-15769,838,46,-302,1116
2,800,74039,4464,-15732,805,56,-354,1150
2,801,74044,4330,-15644,556,62,-413,1186
2,802,74049,4481,-15504,494,69,-455,1223
2,803,74054,4530,-15671,536,76,-480,1263
2,804,74059,4326,-15932,597,86,-501,1293
2,805,74064,4011,-15994,216,98,-532,1320
2,806,74069,3792,-16109,-472,120,-511,1356
2,807,74074,3670,-16490,59,137,-454,1394
2,808,74079,3964,-16542,64,145,-440,1423
2,809,74084,3905,-16644,-364,142,-375,1458
2,810,74089,4155,-17117,2174,183,-246,1491
2,811,74094,4114,-16942,1007,203,-336,1497
2,812,74099,3937,-16674,-1211,175,-379,1512
2,813,74104,3597,-16086,151,182,-251,1550
2,814,74109,3344,-16735,1649,195,-211,1617
2,815,74114,3206,-16721,1080,194,-277,1608
2,816,74119,3324,-16382,197,210,-315,1619
2,817,74124,3151,-16690,-1290,214,-315,1660
2,818,74129,2997,-16883,868,216,-212,1691
2,819,74134,2816,-16593,1179,222,-266,1701
2,820,74139,2878,-17080,871,240,-312,1727
2,821,74144,2914,-17201,856,252,-299,1738
2,822,74149,2836,-17148,76,252,-296,1760
2,823,74154,2413,-17228,22,249,-235,1798
2,824,74159,2458,-17388,1981,265,-179,1814
2,825,74164,2214,-16878,618,270,-277,1806
2,826,74169,2243,-17165,-260,274,-265,1848
2,827,74174,2555,-17047,1557,281,-184,1861
2,828,74179,2228,-16493,724,269,-213,1868
2,829,74184,2324,-16981,1467,290,-180,1899
2,830,74189,1758,-17065,1007,287,-199,1891
2,831,74194,1399,-17348,-559,294,-198,1911
2,832,74199,1182,-17652,904,291,-119,1928
2,833,74204,1120,-17581,1100,288,-137,1937
2,834,74209,1482,-17807,1328,298,-136,1950
2,835,74214,854,-17418,975,302,-123,1954
2,836,74219,833,-17508,1464,297,-124,1966
2,837,74224,1112,-17271,1442,291,-162,1970
2,838,74229,1422,-17060,1670,286,-199,1978
2,839,74234,1558,-17116,2240,284,-222,1985
2,840,74239,1181,-16795,2307,279,-240,1983
2,841,74244,872,-16637,1931,283,-240,1988
2,842,74249,519,-16594,1217,280,-218,1990
2,843,74254,532,-16597,938,278,-172,1994
2,844,74259,646,-16682,1288,269,-118,1998
2,845,74264,650,-16742,1370,265,-68,1991
2,846,74269,405,-17028,1082,267,3,1985
2,847,74274,-196,-17253,577,267,84,1975
2,848,74279,-478,-17343,392,266,156,1975
2,849,74284,-223,-17218,792,261,190,1982
2,850,74289,33,-17087,1515,250,181,1979
2,851,74294,-45,-17016,2081,241,135,1964
2,852,74299,-654,-16905,2029,240,74,1953
2,853,74304,-1157,-16993,1838,236,30,1949
2,854,74309,-1194,-17026,1592,230,-12,1945
2,855,74314,-889,-17176,1731,222,-45,1945
2,856,74319,-582,-17228,1708,214,-85,1932
2,857,74324,-549,-17278,1549,211,-120,1915
2,858,74329,-1008,-17409,1212,208,-135,1900
2,859,74334,-1484,-17611,676,208,-136,1887
2,860,74339,-1569,-17626,383,205,-123,1882
2,861,74344,-1414,-17576,591,200,-109,1872
2,862,74349,-1068,-17588,554,197,-90,1857
2,863,74354,-1526,-17141,764,198,-41,1840
2,864,74359,-1310,-17378,575,198,18,1808
2,865,74364,-2370,-16947,1075,191,91,1791
2,866,74369,-2184,-17188,1083,188,129,1789
2,867,74374,-2243,-17210,777,190,171,1767
2,868,74379,-2183,-17357,706,183,204,1743
2,869,74384,-2523,-17492,805,176,199,1722
2,870,74389,-2599,-17716,1186,168,163,1701
2,871,74394,-2579,-17895,1321,164,121,1689
2,872,74399,-2351,-18117,1144,160,105,1666
2,873,74404,-2586,-18139,835,159,113,1641
2,874,74409,-2934,-18240,688,158,112,1622
2,875,74414,-3387,-18282,542,154,86,1599
2,876,74419,-3468,-18383,651,148,48,1577
2,877,74424,-3259,-18280,868,143,10,1558
2,878,74429,-2997,-18256,1288,142,-15,1538
2,879,74434,-3053,-18212,1681,140,-54,1511
2,880,74439,-3280,-18195,1698,137,-112,1487
2,881,74444,-3393,-18122,1281,136,-172,1466
2,882,74449,-3693,-17951,1272,131,-207,1447
2,883,74454,-3647,-17940,1316,125,-241,1420
2,884,74459,-3837,-17680,1666,122,-268,1390
2,885,74464,-3659,-17715,1419,118,-293,1375
2,886,74469,-3535,-17652,1172,110,-286,1344
2,887,74474,-3668,-17810,1148,113,-259,1314
2,888,74479,-3874,-18013,1019,110,-237,1287
2,889,74484,-3920,-18107,1035,108,-209,1261
2,890,74489,-3812,-18157,1041,104,-167,1240
2,891,74494,-4124,-18051,1144,100,-111,1215
2,892,74499,-4338,-18028,1141,95,-65,1177
2,893,74504,-4782,-18010,2403,91,-13,1133
2,894,74509,-5025,-17459,585,98,-135,1076
2,895,74514,-5087,-17042,1777,96,-109,1053
2,896,74519,-5332,-16360,138,73,-184,1058
2,897,74524,-5167,-16976,848,70,3,1097
2,898,74529,-4967,-16950,2122,54,220,1051
2,899,74534,-3888,-16912,1681,62,171,1001
2,900,74539,-2801,-16341,645,66,-9,950
2,901,74544,-3348,-15982,-910,54,-91,910
2,902,74549,-5153,-15752,460,52,44,873
2,903,74554,-6635,-15858,2884,59,133,865
2,904,74559,-6409,-16528,2451,58,16,862
2,905,74564,-5005,-16155,381,38,-123,823
2,906,74569,-3747,-16511,809,27,-108,816
2,907,74574,-4012,-16323,2240,16,-117,774
2,908,74579,-5904,-15828,2554,20,-416,708
2,909,74584,-6013,-15471,1018,12,-489,693
2,910,74589,-5580,-15221,1393,2,-414,680
2,911,74594,-5415,-15308,2004,-6,-382,655
2,912,74599,-5429,-15227,1674,-5,-450,612
2,913,74604,-5468,-15033,415,-8,-533,576
2,914,74609,-5562,-14902,-113,-16,-521,553
2,915,74614,-5644,-14922,736,-26,-426,535
2,916,74619,-5687,-14989,1039,-21,-348,508
2,917,74624,-5652,-14908,397,-14,-280,466
2,918,74629,-5553,-14743,-301,-15,-180,433
2,919,74634,-5581,-14580,38,-24,-69,407
2,920,74639,-5604,-14458,1237,-34,0,380
2,921,74644,-5325,-14222,1798,-35,6,353
2,922,74649,-5095,-13837,1487,-35,22,326
2,923,74654,-5317,-13555,1248,-40,75,296
2,924,74659,-5825,-13284,1522,-53,110,264
2,925,74664,-6188,-12996,1930,-62,74,240
2,926,74669,-6010,-12766,1799,-71,11,223
2,927,74674,-5808,-12631,1491,-81,5,194
2,928,74679,-5726,-12711,1466,-84,51,166
2,929,74684,-6124,-12874,1474,-91,84,131
2,930,74689,-6353,-12923,921,-95,75,106
2,931,74694,-6342,-13099,107,-99,87,85
2,932,74699,-6167,-13325,-451,-104,160,61
2,933,74704,-5867,-13640,-235,-105,231,35
2,934,74709,-5740,-13414,96,-113,248,-2
2,935,74714,-5743,-13099,283,-116,248,-27
2,936,74719,-5981,-12862,337,-117,280,-57
2,937,74724,-5977,-12671,528,-121,344,-76
2,938,74729,-5641,-12616,1143,-127,397,-92
2,939,74734,-5400,-12648,1768,-137,414,-118
2,940,74739,-5470,-12666,1946,-147,416,-155
2,941,74744,-5796,-12784,1513,-149,436,-183
2,942,74749,-6018,-13106,1146,-152,506,-206
2,943,74754,-6028,-13328,1255,-168,577,-221
2,944,74759,-5717,-13430,1619,-183,626,-243
2,945,74764,-5539,-13459,1746,-189,643,-272
2,946,74769,-5686,-13514,1374,-195,648,-303
2,947,74774,-6049,-13634,1507,-208,665,-327
2,948,74779,-6261,-13683,1967,-222,670,-348
2,949,74784,-6128,-13837,2127,-229,657,-365
2,950,74789,-5874,-14083,1690,-228,647,-385
2,951,74794,-5635,-14275,1159,-240,644,-412
2,952,74799,-5696,-14519,1294,-254,628,-436
2,953,74804,-5871,-14795,1566,-266,570,-459
2,954,74809,-5792,-14953,1473,-274,503,-477
2,955,74814,-5454,-14901,1150,-279,471,-494
2,956,74819,-4963,-14832,1439,-283,467,-506
2,957,74824,-4892,-14708,1574,-288,438,-523
2,958,74829,-5141,-14491,1863,-300,364,-549
2,959,74834,-5838,-14114,2260,-311,262,-573
2,960,74839,-6628,-13765,4195,-307,180,-583
2,961,74844,-7365,-13435,6298,-288,89,-588
2,962,74849,-7363,-13141,7235,-260,-17,-586
2,963,74854,-7231,-12841,8621,-247,-164,-573
2,964,74859,-4631,-13059,5845,-252,-434,-556
2,965,74864,-944,-13595,3981,-298,-681,-572
2,966,74869,-1388,-13861,5289,-356,-1003,-627
2,967,74874,-4934,-14455,4935,-376,-1409,-661
2,968,74879,-7776,-15329,2581,-367,-1639,-660
2,969,74884,-8589,-15877,330,-355,-1528,-624
2,970,74889,-7496,-16391,984,-329,-1164,-580
2,971,74894,-6458,-16562,2011,-289,-856,-567
2,972,74899,-5594,-16415,1338,-266,-730,-588
2,973,74904,-4934,-16051,-447,-246,-623,-622
2,974,74909,-5020,-15885,-787,-228,-421,-648
2,975,74914,-6257,-15813,125,-209,-208,-670
2,976,74919,-7658,-15738,975,-187,-75,-687
2,977,74924,-8333,-15617,726,-159,11,-694
2,978,74929,-6673,-15630,-641,-127,156,-692
2,979,74934,-5326,-15571,391,-110,371,-712
2,980,74939,-5818,-15455,2125,-94,448,-751
2,981,74944,-11827,-14738,2545,-61,271,-779
2,982,74949,-10314,-14555,-465,-47,321,-730
2,983,74954,-7739,-14815,322,-56,560,-718
2,984,74959,-6906,-15063,815,-62,617,-763
2,985,74964,-7576,-15279,873,-64,440,-790
2,986,74969,-8052,-14910,-360,-67,229,-818
2,987,74974,-8255,-14920,-1971,-42,235,-822
2,988,74979,-8762,-15104,-1618,-19,421,-810
2,989,74984,-8653,-15474,-309,-9,518,-808
2,990,74989,-8419,-15277,-489,-5,444,-809
2,991,74994,-8074,-15258,-1331,1,347,-823
2,992,74999,-8550,-15690,-1004,-5,307,-857
2,993,75004,-9107,-15336,-2459,0,262,-852
2,994,75009,-7910,-15925,-3064,-4,225,-814
2,995,75014,-6080,-16475,-2954,-43,123,-829
2,996,75019,-4273,-16448,-2175,-65,-1,-861
2,997,75024,-4522,-16418,-2832,-37,-87,-868
2,998,75029,-5207,-15846,-4133,3,-37,-857
2,999,75034,-6380,-14955,-3986,35,110,-825
