event_id,seq,ts_ms,ax,ay,az,gx,gy,gz
9,0,83840,-2570,-15768,-4073,-4,-50,0
9,1,83845,-2517,-15759,-4083,-8,-36,-5
9,2,83850,-2518,-15718,-3918,-6,-20,-8
9,3,83855,-2562,-15672,-3929,-5,-38,-3
9,4,83860,-2578,-15694,-4053,-3,-43,-3
9,5,83865,-2607,-15708,-4142,-4,-27,-4
9,6,83870,-2673,-15754,-3967,-7,-8,-8
9,7,83875,-2644,-15743,-3928,-4,-5,-6
9,8,83880,-2502,-15746,-4012,-4,-4,-3
9,9,83885,-2397,-15768,-4063,-3,3,0
9,10,83890,-2398,-15743,-4043,-2,1,-2
9,11,83895,-2394,-15748,-4135,-3,-8,-2
9,12,83900,-2398,-15784,-4087,-3,-12,-2
9,13,83905,-2400,-15785,-3810,-4,-9,-1
9,14,83910,-2400,-15767,-3656,-2,-4,-2
9,15,83915,-2416,-15783,-3581,0,-2,-2
9,16,83920,-2404,-15793,-3625,2,-8,0
9,17,83925,-2319,-15737,-3735,4,-17,-1
9,18,83930,-2340,-15674,-3883,1,-24,-4
9,19,83935,-2416,-15614,-4001,0,-20,-4
9,20,83940,-2483,-15590,-4059,1,-15,-6
9,21,83945,-2507,-15717,-4103,1,-19,-5
9,22,83950,-2465,-15749,-4055,2,-23,-1
9,23,83955,-2461,-15714,-4162,2,-19,-1
9,24,83960,-2559,-15710,-4270,1,-6,-3
9,25,83965,-2704,-15715,-4160,-1,6,-4
9,26,83970,-2728,-15747,-4021,-1,1,-3
9,27,83975,-2583,-15835,-4070,3,-6,3
9,28,83980,-2537,-15894,-4074,3,4,1
9,29,83985,-2496,-15873,-3988,3,17,-1
9,30,83990,-2598,-15751,-3797,0,23,-3
9,31,83995,-2511,-15732,-3712,2,18,1
9,32,84000,-2445,-15772,-3695,4,13,4
9,33,84005,-2442,-15798,-3728,7,18,0
9,34,84010,-2397,-15765,-3884,6,28,-1
9,35,84015,-2395,-15693,-3820,6,33,-3
9,36,84020,-2483,-15649,-3631,4,20,-6
9,37,84025,-2525,-15683,-3573,3,-5,-3
9,38,84030,-2451,-15742,-3682,5,-25,2
9,39,84035,-2357,-15739,-3854,3,-27,-3
9,40,84040,-2421,-15724,-3874,3,-18,-4
9,41,84045,-2481,-15688,-3882,1,-8,-6
9,42,84050,-2506,-15745,-3860,2,-4,-3
9,43,84055,-2476,-15764,-3720,0,-6,0
9,44,84060,-2440,-15842,-3845,1,-16,1
9,45,84065,-2564,-15823,-4005,3,-19,-2
9,46,84070,-2768,-15808,-3983,-2,-14,-8
9,47,84075,-2711,-15828,-3983,-2,-15,-4
9,48,84080,-2597,-15798,-3935,-1,-10,2
9,49,84085,-2508,-15773,-3950,1,-2,0
9,50,84090,-2429,-15758,-3897,2,-4,2
9,51,84095,-2404,-15753,-3815,-1,-4,-2
9,52,84100,-2439,-15779,-3764,0,-11,1
9,53,84105,-2431,-15815,-3816,0,-13,-1
9,54,84110,-2416,-15733,-3829,1,-5,-2
9,55,84115,-2384,-15695,-3814,3,1,0
9,56,84120,-2488,-15707,-3823,3,3,-2
9,57,84125,-2532,-15731,-3812,4,5,-6
9,58,84130,-2569,-15713,-3796,5,8,-5
9,59,84135,-2634,-15708,-3807,3,10,-6
9,60,84140,-2622,-15748,-3861,2,11,-10
9,61,84145,-2598,-15731,-3933,2,8,-10
9,62,84150,-2615,-15686,-3812,-2,6,-12
9,63,84155,-2640,-15673,-3793,-1,-8,-9
9,64,84160,-2589,-15768,-3960,2,-20,-8
9,65,84165,-2587,-15770,-3990,-1,-16,-8
9,66,84170,-2574,-15758,-3864,-2,-20,-8
9,67,84175,-2565,-15747,-3730,-2,-27,-8
9,68,84180,-2545,-15722,-3767,0,-36,-5
9,69,84185,-2552,-15774,-4034,3,-49,-4
9,70,84190,-2566,-15768,-4144,5,-46,-8
9,71,84195,-2581,-15724,-4096,6,-43,-7
9,72,84200,-2506,-15760,-4026,4,-38,-6
9,73,84205,-2442,-15779,-3991,7,-33,-7
9,74,84210,-2292,-15775,-3895,6,-14,-6
9,75,84215,-2299,-15770,-3801,5,4,-7
9,76,84220,-2442,-15731,-3747,6,13,-9
9,77,84225,-2490,-15711,-3660,6,-1,-10
9,78,84230,-2358,-15735,-3719,3,-2,-10
9,79,84235,-2327,-15781,-3838,0,5,-10
9,80,84240,-2312,-15776,-3875,0,7,-10
9,81,84245,-2403,-15725,-3760,-2,-1,-12
9,82,84250,-2439,-15741,-3746,-2,-17,-10
9,83,84255,-2416,-15792,-3941,2,-27,-8
9,84,84260,-2401,-15771,-4241,5,-21,-8
9,85,84265,-2608,-15706,-4199,3,-7,-10
9,86,84270,-2618,-15711,-4015,1,-5,-9
9,87,84275,-2485,-15690,-3887,1,-7,-7
9,88,84280,-2396,-15771,-3838,2,-10,-6
9,89,84285,-2419,-15776,-3760,4,-11,-5
9,90,84290,-2489,-15762,-3692,2,-18,-7
9,91,84295,-2537,-15785,-3770,5,-31,-5
9,92,84300,-2569,-15785,-3825,4,-32,-3
9,93,84305,-2490,-15792,-3882,1,-22,-3
9,94,84310,-2373,-15805,-3940,3,-20,-2
9,95,84315,-2339,-15819,-3905,4,-12,-5
9,96,84320,-2382,-15817,-3871,1,-5,-9
9,97,84325,-2361,-15829,-3867,1,2,-7
9,98,84330,-2330,-15746,-3835,2,1,-2
9,99,84335,-2288,-15722,-3924,1,-1,-4
9,100,84340,-2297,-15756,-3950,3,-4,-3
9,101,84345,-2487,-15732,-3880,2,2,-5
9,102,84350,-2605,-15709,-3870,0,5,-5
9,103,84355,-2640,-15740,-3941,6,8,-3
9,104,84360,-2585,-15722,-4001,6,15,-4
9,105,84365,-2557,-15718,-3973,4,14,-3
9,106,84370,-2519,-15672,-3922,1,1,-2
9,107,84375,-2502,-15721,-3926,1,-6,-1
9,108,84380,-2498,-15763,-3945,3,-5,-2
9,109,84385,-2506,-15769,-3968,5,-2,-5
9,110,84390,-2456,-15822,-4022,5,5,-5
9,111,84395,-2548,-15754,-3951,3,14,-5
9,112,84400,-2530,-15754,-3862,3,13,-8
9,113,84405,-2486,-15732,-3874,4,7,-9
9,114,84410,-2486,-15677,-3803,6,4,-8
9,115,84415,-2352,-15605,-3678,4,-4,-8
9,116,84420,-2418,-15600,-3635,3,-17,-12
9,117,84425,-2385,-15632,-3593,5,-26,-9
9,118,84430,-2286,-15624,-3580,4,-32,-7
9,119,84435,-2215,-15613,-3741,3,-38,-8
9,120,84440,-2270,-15602,-3790,3,-34,-7
9,121,84445,-2482,-15564,-3862,1,-33,-7
9,122,84450,-2526,-15662,-3734,-4,-28,-8
9,123,84455,-2553,-15750,-3691,-1,-30,-4
9,124,84460,-2458,-15853,-3734,1,-26,-1
9,125,84465,-2415,-15925,-3738,-1,-21,-1
9,126,84470,-2421,-15914,-3807,-1,-24,-4
9,127,84475,-2576,-15861,-3765,-3,-15,-4
9,128,84480,-2651,-15892,-3695,-2,-6,-4
9,129,84485,-2637,-15861,-3694,-2,3,-4
9,130,84490,-2555,-15823,-3706,-1,9,-2
9,131,84495,-2403,-15799,-3666,-2,10,-2
9,132,84500,-2193,-15709,-3554,-4,5,-2
9,133,84505,-2178,-15782,-3643,-4,-2,-4
9,134,84510,-2199,-15815,-3801,-3,-10,-5
9,135,84515,-2310,-15779,-3843,-6,-8,-5
9,136,84520,-2279,-15756,-4011,-6,-18,2
9,137,84525,-2263,-15781,-4069,-4,-16,-2
9,138,84530,-2373,-15759,-4056,-4,-6,-6
9,139,84535,-2510,-15764,-4007,-5,-10,-5
9,140,84540,-2514,-15743,-3993,-4,-22,-4
9,141,84545,-2467,-15673,-3995,-2,-32,0
9,142,84550,-2361,-15685,-4043,-3,-28,-1
9,143,84555,-2399,-15736,-3962,-4,-17,-4
9,144,84560,-2578,-15703,-3827,-3,-11,-4
9,145,84565,-2624,-15680,-3727,-1,-15,-2
9,146,84570,-2529,-15780,-3838,-2,-16,3
9,147,84575,-2415,-15796,-3938,-2,-8,4
9,148,84580,-2414,-15743,-3941,0,-2,3
9,149,84585,-2422,-15729,-3969,-1,-11,-2
9,150,84590,-2419,-15747,-4196,-1,-27,5
9,151,84595,-2426,-15785,-4356,0,-16,3
9,152,84600,-2432,-15747,-4242,-3,1,-2
9,153,84605,-2531,-15746,-4118,-3,8,-3
9,154,84610,-2505,-15763,-4123,1,11,-1
9,155,84615,-2407,-15720,-4132,2,23,-2
9,156,84620,-2407,-15666,-4139,3,36,-2
9,157,84625,-2427,-15635,-4038,3,45,-8
9,158,84630,-2505,-15603,-3969,4,44,-8
9,159,84635,-2458,-15653,-4114,6,36,-5
9,160,84640,-2469,-15634,-4003,4,37,-8
9,161,84645,-2586,-15577,-3815,4,29,-8
9,162,84650,-2604,-15685,-3853,9,12,-4
9,163,84655,-2564,-15752,-3902,9,8,-2
9,164,84660,-2519,-15793,-3724,6,22,-5
9,165,84665,-2413,-15899,-3561,5,27,-5
9,166,84670,-2398,-15948,-3600,4,13,-2
9,167,84675,-2469,-15846,-3729,8,-5,1
9,168,84680,-2541,-15852,-3870,7,-17,1
9,169,84685,-2493,-15811,-3909,5,-22,5
9,170,84690,-2489,-15744,-3933,4,-19,6
9,171,84695,-2465,-15754,-4072,2,-14,5
9,172,84700,-2515,-15779,-3952,4,-2,2
9,173,84705,-2624,-15723,-3683,4,5,0
9,174,84710,-2616,-15722,-3513,4,-8,0
9,175,84715,-2566,-15739,-3551,3,-26,0
9,176,84720,-2538,-15740,-3756,4,-34,-1
9,177,84725,-2441,-15744,-3867,7,-30,-2
9,178,84730,-2502,-15710,-3913,3,-23,-3
9,179,84735,-2532,-15735,-3984,4,-23,-4
9,180,84740,-2482,-15743,-4064,5,-18,0
9,181,84745,-2369,-15755,-4095,3,4,-5
9,182,84750,-2459,-15755,-3864,3,24,-8
9,183,84755,-2554,-15721,-3688,3,19,-7
9,184,84760,-2482,-15713,-3763,8,2,-1
9,185,84765,-2426,-15719,-3828,8,-2,-4
9,186,84770,-2500,-15758,-3774,5,3,-6
9,187,84775,-2536,-15745,-3739,2,-1,-4
9,188,84780,-2528,-15735,-3816,4,-10,-5
9,189,84785,-2424,-15760,-3994,1,-20,0
9,190,84790,-2435,-15797,-3895,2,-12,-2
9,191,84795,-2472,-15751,-3811,-1,-10,-6
9,192,84800,-2538,-15772,-3986,3,-17,-6
9,193,84805,-2540,-15802,-4077,1,-27,-5
9,194,84810,-2593,-15743,-3990,0,-24,-6
9,195,84815,-2600,-15732,-3891,1,-28,-8
9,196,84820,-2623,-15720,-3889,4,-37,-7
9,197,84825,-2633,-15789,-3987,5,-40,-2
9,198,84830,-2688,-15776,-3909,1,-40,-5
9,199,84835,-2591,-15765,-3775,3,-45,-6
9,200,84840,-2429,-15784,-3642,3,-49,-1
9,201,84845,-2383,-15852,-3760,7,-49,1
9,202,84850,-2382,-15902,-3939,11,-44,-1
9,203,84855,-2390,-15826,-4082,9,-30,-4
9,204,84860,-2453,-15739,-4097,7,-12,-4
9,205,84865,-2488,-15691,-3943,7,-3,-7
9,206,84870,-2455,-15659,-3913,6,6,-6
9,207,84875,-2329,-15665,-3956,8,16,-5
9,208,84880,-2286,-15611,-3997,6,22,-6
9,209,84885,-2329,-15637,-3889,4,20,-8
9,210,84890,-2401,-15593,-3818,4,6,-11
9,211,84895,-2497,-15558,-3775,5,-9,-8
9,212,84900,-2445,-15677,-3701,5,-14,-6
9,213,84905,-2421,-15734,-3707,4,-13,-9
9,214,84910,-2425,-15696,-3803,3,-11,-10
9,215,84915,-2407,-15704,-3853,2,-8,-8
9,216,84920,-2439,-15729,-3823,4,-12,-8
9,217,84925,-2427,-15805,-3818,1,-19,-5
9,218,84930,-2433,-15872,-3859,1,-29,-2
9,219,84935,-2433,-15912,-3906,3,-29,-4
9,220,84940,-2509,-15805,-3738,3,-20,-3
9,221,84945,-2530,-15778,-3715,5,-24,0
9,222,84950,-2515,-15838,-3815,4,-27,-1
9,223,84955,-2481,-15756,-3824,7,-34,-2
9,224,84960,-2472,-15732,-3928,8,-48,-1
9,225,84965,-2451,-15709,-3963,6,-55,0
9,226,84970,-2306,-15719,-3976,6,-53,-1
9,227,84975,-2236,-15789,-3917,7,-52,-2
9,228,84980,-2201,-15772,-4066,8,-48,0
9,229,84985,-2335,-15716,-4200,8,-36,0
9,230,84990,-2531,-15724,-4196,6,-16,-5
9,231,84995,-2614,-15673,-4126,5,3,-8
9,232,85000,-2564,-15602,-3923,4,19,-6
9,233,85005,-2603,-15635,-3764,5,21,-8
9,234,85010,-2641,-15602,-3735,8,9,-10
9,235,85015,-2733,-15549,-3692,4,-4,-8
9,236,85020,-2707,-15625,-3778,5,-18,-8
9,237,85025,-2494,-15681,-3890,4,-15,-4
9,238,85030,-2476,-15704,-3713,0,12,-8
9,239,85035,-2556,-15655,-3494,-1,24,-11
9,240,85040,-2554,-15655,-3474,1,8,-4
9,241,85045,-2376,-15722,-3549,1,-10,-2
9,242,85050,-2156,-15775,-3637,-2,-17,1
9,243,85055,-2219,-15839,-3585,-1,-15,-2
9,244,85060,-2335,-15850,-3617,0,-32,-5
9,245,85065,-2418,-15791,-3799,-1,-51,-4
9,246,85070,-2524,-15768,-3922,-4,-50,-4
9,247,85075,-2551,-15793,-3905,-6,-35,-3
9,248,85080,-2511,-15813,-3683,-6,-21,-5
9,249,85085,-2411,-15845,-3576,-5,-21,-6
9,250,85090,-2312,-15808,-3709,-3,-25,-1
9,251,85095,-2326,-15823,-3898,-3,-13,-2
9,252,85100,-2456,-15783,-3885,-2,9,-4
9,253,85105,-2549,-15664,-3770,-2,17,-6
9,254,85110,-2519,-15734,-3730,-4,5,-5
9,255,85115,-2435,-15764,-3862,-5,-10,-2
9,256,85120,-2428,-15765,-3909,-2,-12,0
9,257,85125,-2564,-15721,-3772,-5,-8,-2
9,258,85130,-2549,-15697,-3669,-7,-10,-1
9,259,85135,-2469,-15702,-3752,-4,-14,-1
9,260,85140,-2413,-15714,-3807,-6,-8,-3
9,261,85145,-2438,-15692,-3719,-8,0,-3
9,262,85150,-2506,-15680,-3729,-9,-2,1
9,263,85155,-2482,-15757,-3781,-10,-4,-1
9,264,85160,-2460,-15768,-3699,-12,-4,0
9,265,85165,-2486,-15758,-3666,-7,-1,1
9,266,85170,-2429,-15824,-3786,-9,-1,2
9,267,85175,-2414,-15840,-3880,-9,0,0
9,268,85180,-2452,-15729,-3903,-9,3,-2
9,269,85185,-2475,-15731,-3913,-11,-1,2
9,270,85190,-2392,-15739,-4012,-11,-2,0
9,271,85195,-2343,-15722,-3986,-12,1,-2
9,272,85200,-2384,-15682,-3921,-11,-1,-3
9,273,85205,-2390,-15718,-3860,-9,-10,-2
9,274,85210,-2374,-15712,-3810,-11,-17,1
9,275,85215,-2358,-15740,-3771,-10,-17,0
9,276,85220,-2360,-15764,-3816,-8,-12,0
9,277,85225,-2463,-15781,-3943,-8,-7,-1
9,278,85230,-2485,-15780,-4136,-10,-8,-1
9,279,85235,-2536,-15738,-4102,-11,-10,-2
9,280,85240,-2613,-15776,-3978,-12,-15,0
9,281,85245,-2620,-15788,-3960,-11,-19,2
9,282,85250,-2584,-15840,-4073,-9,-21,3
9,283,85255,-2569,-15826,-4107,-7,-10,3
9,284,85260,-2534,-15828,-4202,-7,-5,4
9,285,85265,-2534,-15888,-4356,-9,-9,0
9,286,85270,-2589,-15824,-4294,-4,-11,5
9,287,85275,-2719,-15769,-4032,-6,-7,0
9,288,85280,-2748,-15727,-3996,-6,-3,0
9,289,85285,-2543,-15750,-4080,-2,5,-1
9,290,85290,-2424,-15776,-4045,2,18,0
9,291,85295,-2363,-15795,-3974,0,14,-2
9,292,85300,-2436,-15702,-3955,-1,-3,-4
9,293,85305,-2501,-15658,-4063,3,-12,-2
9,294,85310,-2619,-15684,-4126,6,-4,-3
9,295,85315,-2599,-15635,-4037,4,16,-5
9,296,85320,-2550,-15666,-3817,6,16,-5
9,297,85325,-2541,-15617,-3750,9,-4,0
9,298,85330,-2523,-15618,-4010,7,-16,-2
9,299,85335,-2632,-15662,-4189,5,-16,-1
9,300,85340,-2724,-15725,-4175,4,-12,-3
9,301,85345,-2696,-15759,-4110,3,-11,-6
9,302,85350,-2563,-15731,-4151,3,-13,-5
9,303,85355,-2581,-15786,-4260,9,-17,-5
9,304,85360,-2657,-15804,-4247,7,-19,-11
9,305,85365,-2751,-15738,-4127,6,-26,-8
9,306,85370,-2702,-15799,-3991,6,-30,-5
9,307,85375,-2691,-15757,-3972,7,-24,-6
9,308,85380,-2630,-15788,-3948,12,-10,-9
9,309,85385,-2550,-15824,-3866,13,-4,-7
9,310,85390,-2410,-15778,-3755,10,-13,-4
9,311,85395,-2345,-15717,-3657,10,-34,-3
9,312,85400,-2372,-15778,-3759,15,-47,-2
9,313,85405,-2399,-15778,-3907,16,-47,-2
9,314,85410,-2305,-15750,-3909,12,-37,-2
9,315,85415,-2193,-15734,-4014,12,-28,0
9,316,85420,-2273,-15686,-4059,13,-16,-2
9,317,85425,-2537,-15702,-3900,11,-6,-6
9,318,85430,-2707,-15723,-3769,13,-1,-6
9,319,85435,-2629,-15596,-3717,10,0,-5
9,320,85440,-2472,-15595,-3658,5,7,-5
9,321,85445,-2292,-15690,-3520,7,7,-7
9,322,85450,-2382,-15736,-3469,9,-11,-8
9,323,85455,-2537,-15718,-3474,6,-32,-9
9,324,85460,-2682,-15742,-3702,9,-52,-5
9,325,85465,-2639,-15776,-3986,7,-54,-2
9,326,85470,-2610,-15849,-3877,1,-34,-1
9,327,85475,-2610,-15799,-3562,-1,-23,-3
9,328,85480,-2543,-15805,-3562,4,-31,1
9,329,85485,-2550,-15976,-3816,8,-28,4
9,330,85490,-2609,-16040,-3901,7,-19,5
9,331,85495,-2650,-16074,-3735,3,-14,5
9,332,85500,-2707,-16059,-3599,3,-25,7
9,333,85505,-2696,-16008,-3732,6,-30,9
9,334,85510,-2765,-16030,-3782,7,-15,10
9,335,85515,-2855,-16034,-3715,7,10,8
9,336,85520,-2848,-15918,-3745,9,26,5
9,337,85525,-2985,-15802,-3538,11,34,3
9,338,85530,-3115,-15711,-3384,13,25,5
9,339,85535,-3187,-15671,-3345,15,12,12
9,340,85540,-3153,-15614,-3285,18,-3,15
9,341,85545,-2988,-15670,-3237,20,-22,18
9,342,85550,-3038,-15661,-3075,21,-39,19
9,343,85555,-3140,-15661,-3034,28,-59,18
9,344,85560,-3125,-15660,-3086,31,-69,26
9,345,85565,-3060,-15597,-2991,32,-79,31
9,346,85570,-3000,-15555,-2641,34,-96,33
9,347,85575,-3234,-15632,-2656,43,-137,38
9,348,85580,-3408,-15614,-3441,53,-173,45
9,349,85585,-3401,-15420,-3889,50,-157,51
9,350,85590,-3526,-15341,-3677,46,-131,48
9,351,85595,-3680,-15402,-3431,51,-139,52
9,352,85600,-3805,-15558,-3776,62,-150,60
9,353,85605,-3900,-15585,-4188,65,-111,59
9,354,85610,-3921,-15485,-4117,63,-40,56
9,355,85615,-3779,-15460,-3544,61,10,54
9,356,85620,-3700,-15588,-3353,65,2,56
9,357,85625,-3827,-15708,-3515,74,-16,58
9,358,85630,-3928,-15662,-3767,77,-14,63
9,359,85635,-3826,-15554,-3736,76,21,65
9,360,85640,-3716,-15572,-3444,72,49,67
9,361,85645,-3509,-15531,-3133,70,39,70
9,362,85650,-3450,-15545,-3094,72,5,81
9,363,85655,-3373,-15567,-3394,70,-16,86
9,364,85660,-3348,-15516,-3497,65,-17,89
9,365,85665,-3496,-15416,-3127,57,-18,88
9,366,85670,-3622,-15336,-2942,55,-47,96
9,367,85675,-3655,-15431,-3185,56,-68,106
9,368,85680,-3705,-15472,-3218,53,-52,105
9,369,85685,-3889,-15383,-3285,51,-53,120
9,370,85690,-3886,-15394,-3587,49,-74,127
9,371,85695,-3959,-15463,-3679,44,-80,132
9,372,85700,-4090,-15513,-3314,41,-71,136
9,373,85705,-4206,-15504,-3104,40,-70,139
9,374,85710,-4124,-15458,-3291,42,-72,150
9,375,85715,-3984,-15513,-3298,41,-60,157
9,376,85720,-4131,-15608,-2890,41,-53,153
9,377,85725,-4314,-15654,-2772,47,-81,164
9,378,85730,-4289,-15557,-3209,54,-106,177
9,379,85735,-4263,-15435,-3612,57,-89,183
9,380,85740,-4409,-15390,-3490,51,-56,184
9,381,85745,-4488,-15443,-3494,54,-45,193
9,382,85750,-4365,-15588,-3716,61,-43,205
9,383,85755,-4242,-15661,-3614,61,-10,208
9,384,85760,-4279,-15596,-3236,61,28,211
9,385,85765,-4326,-15508,-3047,67,41,222
9,386,85770,-4280,-15567,-3265,72,31,230
9,387,85775,-4356,-15587,-3421,77,29,239
9,388,85780,-4456,-15556,-3211,77,35,245
9,389,85785,-4431,-15558,-3086,83,29,254
9,390,85790,-4327,-15594,-3149,90,20,266
9,391,85795,-4347,-15658,-3258,92,17,276
9,392,85800,-4286,-15732,-3392,98,12,284
9,393,85805,-4341,-15754,-3493,104,23,286
9,394,85810,-4395,-15770,-3540,107,34,291
9,395,85815,-4362,-15718,-3574,112,47,302
9,396,85820,-4333,-15762,-3724,113,61,307
9,397,85825,-4390,-15812,-3812,120,68,312
9,398,85830,-4413,-15684,-3695,121,70,316
9,399,85835,-4467,-15669,-3538,122,65,324
9,400,85840,-4669,-15809,-3546,129,60,328
9,401,85845,-4779,-15834,-3531,136,77,333
9,402,85850,-4643,-15582,-3347,133,109,338
9,403,85855,-4466,-15297,-2994,137,126,346
9,404,85860,-4382,-15333,-2875,143,107,351
9,405,85865,-4320,-15551,-2988,148,68,360
9,406,85870,-4419,-15560,-3197,151,33,366
9,407,85875,-4520,-15577,-3325,153,24,371
9,408,85880,-4634,-15651,-3212,147,48,370
9,409,85885,-4634,-15691,-3046,146,72,371
9,410,85890,-4555,-15761,-2950,148,89,376
9,411,85895,-4542,-15718,-2995,151,94,380
9,412,85900,-4646,-15625,-3087,152,92,382
9,413,85905,-4707,-15597,-3176,151,73,387
9,414,85910,-4702,-15674,-3266,147,58,390
9,415,85915,-4576,-15768,-3302,148,57,396
9,416,85920,-4470,-15791,-3122,143,77,393
9,417,85925,-4490,-15820,-2856,142,83,395
9,418,85930,-4673,-15930,-2791,146,61,398
9,419,85935,-4718,-16025,-3024,148,39,404
9,420,85940,-4592,-16056,-3298,147,39,412
9,421,85945,-4534,-15967,-3191,143,69,410
9,422,85950,-4578,-15803,-3116,140,75,409
9,423,85955,-4740,-15702,-3233,142,59,415
9,424,85960,-4948,-15731,-3284,142,44,417
9,425,85965,-5004,-15792,-3232,140,47,425
9,426,85970,-4825,-15801,-3000,138,63,431
9,427,85975,-4636,-15807,-2815,140,72,431
9,428,85980,-4563,-15855,-2850,141,58,433
9,429,85985,-4720,-15972,-3102,142,35,432
9,430,85990,-4877,-15919,-3330,141,29,437
9,431,85995,-4855,-15828,-3404,137,51,437
9,432,86000,-4730,-15807,-3342,133,81,433
9,433,86005,-4723,-15785,-3312,134,99,434
9,434,86010,-4672,-15832,-3329,136,103,438
9,435,86015,-4662,-15821,-3288,137,101,435
9,436,86020,-4735,-15838,-3094,137,97,436
9,437,86025,-4796,-15841,-2989,135,80,438
9,438,86030,-4700,-15818,-3049,133,52,443
9,439,86035,-4732,-15762,-3069,136,27,445
9,440,86040,-4748,-15683,-2963,136,13,444
9,441,86045,-4820,-15701,-2977,137,0,445
9,442,86050,-4681,-15743,-3054,137,1,449
9,443,86055,-4679,-15637,-2972,132,13,445
9,444,86060,-4822,-15641,-2906,132,5,443
9,445,86065,-4805,-15545,-2971,130,-11,446
9,446,86070,-4630,-15601,-3198,130,-19,451
9,447,86075,-4636,-15726,-3394,131,5,447
9,448,86080,-4907,-15728,-3155,127,46,437
9,449,86085,-5034,-15635,-3087,128,69,437
9,450,86090,-4914,-15599,-3238,126,90,437
9,451,86095,-4791,-15559,-3135,125,118,434
9,452,86100,-4708,-15555,-2888,122,121,430
9,453,86105,-4763,-15601,-2831,125,87,425
9,454,86110,-4857,-15675,-3069,129,42,426
9,455,86115,-4967,-15674,-3129,126,27,425
9,456,86120,-4984,-15613,-3126,125,28,422
9,457,86125,-4843,-15647,-3111,126,29,419
9,458,86130,-4903,-15661,-3050,126,22,419
9,459,86135,-4969,-15588,-3107,128,6,420
9,460,86140,-4794,-15555,-3194,128,0,416
9,461,86145,-4701,-15517,-2921,126,13,411
9,462,86150,-4739,-15443,-2576,126,-2,407
9,463,86155,-4689,-15481,-2585,128,-39,410
9,464,86160,-4573,-15565,-2887,130,-64,417
9,465,86165,-4528,-15630,-3181,129,-53,412
9,466,86170,-4736,-15552,-3120,123,-18,401
9,467,86175,-4963,-15374,-2875,117,-1,398
9,468,86180,-4855,-15309,-2856,117,-2,406
9,469,86185,-4756,-15468,-3062,121,4,403
9,470,86190,-4736,-15562,-3124,118,21,396
9,471,86195,-4759,-15563,-2868,120,19,394
9,472,86200,-4818,-15535,-2763,116,-6,392
9,473,86205,-4868,-15526,-3015,117,-32,392
9,474,86210,-4699,-15584,-3247,118,-30,392
9,475,86215,-4597,-15624,-3083,111,-6,381
9,476,86220,-4485,-15578,-2898,113,-6,380
9,477,86225,-4478,-15629,-3134,118,-22,382
9,478,86230,-4512,-15616,-3518,115,-15,377
9,479,86235,-4625,-15565,-3426,110,18,368
9,480,86240,-4661,-15545,-3238,110,50,365
9,481,86245,-4613,-15494,-3094,109,79,364
9,482,86250,-4561,-15474,-3142,104,98,358
9,483,86255,-4593,-15464,-2967,103,106,351
9,484,86260,-4617,-15473,-2847,102,97,347
9,485,86265,-4561,-15562,-2957,104,72,347
9,486,86270,-4568,-15608,-3079,100,58,339
9,487,86275,-4535,-15558,-3167,94,45,335
9,488,86280,-4420,-15491,-3112,90,27,331
9,489,86285,-4338,-15516,-3129,90,13,325
9,490,86290,-4284,-15523,-3225,93,5,317
9,491,86295,-4233,-15433,-3274,93,14,311
9,492,86300,-4177,-15379,-3039,88,21,300
9,493,86305,-4133,-15369,-2723,86,-7,293
9,494,86310,-4149,-15275,-2823,88,-58,289
9,495,86315,-4146,-15105,-3224,84,-91,282
9,496,86320,-4233,-15032,-3500,81,-89,272
9,497,86325,-4207,-15063,-3620,77,-73,263
9,498,86330,-4215,-15040,-3353,71,-46,251
9,499,86335,-4218,-14995,-3400,69,-25,240
9,500,86340,-3987,-14974,-3791,68,1,233
9,501,86345,-4007,-14948,-3636,63,47,213
9,502,86350,-4279,-14902,-3230,58,63,195
9,503,86355,-4314,-15024,-3367,60,42,189
9,504,86360,-3964,-15054,-3536,57,41,184
9,505,86365,-3681,-15104,-3331,50,66,165
9,506,86370,-3864,-15129,-2911,44,74,141
9,507,86375,-3970,-15145,-3108,48,17,136
9,508,86380,-3883,-15260,-3547,48,-33,135
9,509,86385,-3607,-15325,-3692,39,-26,121
9,510,86390,-3444,-15285,-3620,34,19,101
9,511,86395,-3600,-15235,-3312,32,59,83
9,512,86400,-3563,-15144,-3347,30,50,69
9,513,86405,-3291,-15060,-3465,29,29,60
9,514,86410,-3312,-15027,-3381,24,23,40
9,515,86415,-3448,-14974,-3127,19,0,25
9,516,86420,-3141,-15000,-3620,15,-62,5
9,517,86425,-3159,-15103,-3831,10,-36,-10
9,518,86430,-3359,-15071,-3705,4,8,-33
9,519,86435,-3319,-15004,-3535,1,23,-42
9,520,86440,-3031,-15054,-3667,-2,11,-54
9,521,86445,-2929,-15142,-3787,-5,11,-74
9,522,86450,-3223,-15160,-3760,-6,21,-92
9,523,86455,-3365,-15048,-3733,-10,19,-105
9,524,86460,-3322,-15061,-3753,-16,20,-115
9,525,86465,-3081,-15257,-3775,-15,29,-129
9,526,86470,-2791,-15382,-3627,-21,41,-147
9,527,86475,-2811,-15335,-3385,-25,30,-170
9,528,86480,-3000,-15317,-3350,-29,-11,-185
9,529,86485,-2911,-15361,-3677,-32,-55,-193
9,530,86490,-2779,-15385,-3803,-39,-54,-209
9,531,86495,-2880,-15366,-3644,-45,-38,-236
9,532,86500,-3050,-15296,-3572,-48,-36,-255
9,533,86505,-2992,-15229,-3762,-53,-38,-263
9,534,86510,-2682,-15267,-3779,-58,-20,-278
9,535,86515,-2491,-15347,-3499,-65,-2,-294
9,536,86520,-2471,-15526,-3343,-68,-29,-311
9,537,86525,-2476,-15605,-3585,-73,-95,-321
9,538,86530,-2520,-15468,-4017,-79,-140,-337
9,539,86535,-2801,-15386,-4265,-86,-133,-354
9,540,86540,-2953,-15552,-4461,-94,-83,-373
9,541,86545,-2710,-15671,-4411,-103,-21,-390
9,542,86550,-2190,-15719,-4148,-109,30,-404
9,543,86555,-2063,-15670,-3722,-113,51,-425
9,544,86560,-2110,-15528,-3541,-118,27,-445
9,545,86565,-1937,-15417,-3646,-119,-22,-450
9,546,86570,-1774,-15540,-3801,-128,-54,-461
9,547,86575,-1689,-15709,-3870,-136,-67,-478
9,548,86580,-1519,-15801,-3813,-145,-80,-494
9,549,86585,-1258,-15803,-3955,-149,-93,-508
9,550,86590,-1301,-15923,-4279,-152,-95,-524
9,551,86595,-1630,-16048,-4452,-162,-88,-546
9,552,86600,-1788,-16071,-4395,-173,-76,-561
9,553,86605,-1610,-16108,-4391,-181,-55,-572
9,554,86610,-1346,-16191,-4258,-190,-17,-588
9,555,86615,-1377,-16232,-3819,-194,-2,-609
9,556,86620,-1305,-16233,-3724,-197,-52,-624
9,557,86625,-1255,-16328,-3982,-201,-124,-630
9,558,86630,-1260,-16389,-4192,-209,-169,-645
9,559,86635,-1274,-16362,-4226,-221,-191,-663
9,560,86640,-1123,-16417,-4542,-223,-203,-678
9,561,86645,-1141,-16532,-4843,-231,-186,-699
9,562,86650,-1067,-16577,-4813,-240,-156,-721
9,563,86655,-936,-16594,-4520,-252,-129,-740
9,564,86660,-739,-16682,-4502,-256,-129,-756
9,565,86665,-488,-16960,-4774,-260,-153,-771
9,566,86670,-362,-17087,-4853,-269,-186,-789
9,567,86675,-433,-17034,-4972,-275,-204,-811
9,568,86680,-591,-17086,-5296,-279,-196,-831
9,569,86685,-506,-17162,-5528,-286,-141,-849
9,570,86690,-246,-17298,-5341,-296,-53,-870
9,571,86695,58,-17481,-4998,-302,16,-894
9,572,86700,331,-17606,-4836,-303,54,-916
9,573,86705,208,-17592,-4703,-310,75,-946
9,574,86710,-190,-17538,-4578,-317,78,-967
9,575,86715,-346,-17651,-4899,-325,63,-977
9,576,86720,-312,-17671,-4951,-335,80,-994
9,577,86725,-403,-17693,-4523,-342,123,-1020
9,578,86730,-526,-17836,-4063,-347,145,-1042
9,579,86735,-623,-17921,-3761,-346,132,-1061
9,580,86740,-769,-17816,-3601,-350,86,-1080
9,581,86745,-1039,-17733,-3742,-355,4,-1099
9,582,86750,-1616,-17675,-3881,-358,-89,-1119
9,583,86755,-2155,-17599,-4196,-364,-184,-1139
9,584,86760,-2383,-17500,-4550,-367,-241,-1156
9,585,86765,-2386,-17501,-4608,-371,-238,-1180
9,586,86770,-2243,-17571,-4378,-373,-223,-1202
9,587,86775,-2147,-17470,-4147,-376,-218,-1224
9,588,86780,-2242,-17401,-4087,-378,-215,-1246
9,589,86785,-2660,-17302,-4001,-388,-142,-1286
9,590,86790,-2607,-17266,-4123,-392,-98,-1302
9,591,86795,-2546,-17264,-4090,-396,-70,-1317
9,592,86800,-2754,-17307,-4219,-397,-46,-1338
9,593,86805,-3005,-17341,-4635,-394,2,-1353
9,594,86810,-3114,-17281,-4676,-402,97,-1369
9,595,86815,-3173,-17191,-4207,-408,182,-1381
9,596,86820,-3274,-17239,-3467,-406,206,-1393
9,597,86825,-3263,-17145,-3026,-400,158,-1396
9,598,86830,-3224,-16968,-3071,-391,84,-1393
9,599,86835,3775,-2953,-9370,-430,-3,-1309
9,600,86840,-22577,5825,18227,-343,831,-1721
9,601,86845,8750,-15185,-7986,-181,-400,-258
9,602,86850,17465,-16230,-18698,-105,255,-409
9,603,86855,-2897,-20572,8366,-383,2855,-1730
9,604,86860,-10733,-16980,10233,-256,-327,-1263
9,605,86865,-6734,-13692,-4944,-10,-2477,-512
9,606,86870,-3157,-14802,-20631,-128,-1410,-734
9,607,86875,-2145,-18986,-14499,-329,988,-1048
9,608,86880,-4751,-18001,3135,-436,2232,-1230
9,609,86885,-2659,-14716,5386,-295,1028,-1083
9,610,86890,-1596,-16647,-4093,-81,-172,-851
9,611,86895,-2380,-18005,-8841,-138,111,-933
9,612,86900,-3199,-16641,-3484,-279,935,-1043
9,613,86905,-2568,-15644,1845,-298,982,-1023
9,614,86910,-1944,-16312,136,-236,271,-947
9,615,86915,-1774,-17327,-5687,-188,-267,-876
9,616,86920,-2273,-16854,-7156,-213,4,-903
9,617,86925,-3071,-16219,-3849,-243,550,-947
9,618,86930,-2881,-16136,-997,-236,638,-937
9,619,86935,-1775,-16505,-1779,-210,283,-874
9,620,86940,-1138,-16813,-3958,-201,15,-832
9,621,86945,-1831,-16823,-3993,-225,112,-856
9,622,86950,-2821,-16646,-2358,-237,291,-868
9,623,86955,-2789,-16276,-1999,-221,265,-835
9,624,86960,-1991,-16236,-3438,-197,110,-795
9,625,86965,-1575,-16355,-4553,-200,63,-786
9,626,86970,-2002,-16448,-4430,-217,145,-797
9,627,86975,-2404,-16285,-3754,-231,218,-793
9,628,86980,-2099,-16084,-3689,-231,201,-776
9,629,86985,-1614,-16021,-3910,-225,157,-755
9,630,86990,-1380,-16054,-3995,-220,145,-747
9,631,86995,-1584,-16047,-3689,-221,167,-748
9,632,87000,-1657,-16034,-3680,-217,140,-732
9,633,87005,-1444,-15953,-3753,-214,93,-714
9,634,87010,-1256,-16025,-3677,-213,76,-701
9,635,87015,-859,-16196,-3887,-210,95,-686
9,636,87020,-535,-16347,-4220,-201,149,-674
9,637,87025,-512,-16211,-4269,-203,184,-675
9,638,87030,-639,-16181,-4038,-198,168,-664
9,639,87035,-726,-16199,-4227,-193,141,-648
9,640,87040,-470,-16206,-4780,-189,151,-633
9,641,87045,-327,-16246,-4622,-194,196,-633
9,642,87050,-553,-16189,-3933,-199,191,-630
9,643,87055,-461,-15921,-3636,-188,84,-609
9,644,87060,-299,-15785,-4047,-176,-15,-592
9,645,87065,-205,-15975,-4554,-169,-46,-583
9,646,87070,-174,-16036,-4646,-164,-33,-580
9,647,87075,-321,-15987,-4484,-166,-42,-577
9,648,87080,-416,-15854,-4439,-161,-71,-568
9,649,87085,-315,-15777,-4867,-154,-64,-560
9,650,87090,-163,-15719,-5155,-153,29,-559
9,651,87095,-62,-15680,-4796,-156,132,-561
9,652,87100,-146,-15702,-4259,-151,151,-554
9,653,87105,-89,-15746,-4327,-139,98,-540
9,654,87110,47,-15878,-4974,-132,89,-532
9,655,87115,22,-15977,-5113,-135,176,-538
9,656,87120,84,-15843,-4509,-138,241,-543
9,657,87125,185,-15714,-4092,-135,203,-535
9,658,87130,390,-15812,-4471,-124,108,-518
9,659,87135,395,-15888,-4763,-113,58,-511
9,660,87140,234,-15926,-4925,-108,47,-508
9,661,87145,335,-15851,-4907,-108,53,-503
9,662,87150,517,-15827,-4249,-101,54,-493
9,663,87155,629,-15910,-4423,-92,55,-487
9,664,87160,777,-15823,-4474,-88,84,-486
9,665,87165,722,-15625,-4253,-90,92,-488
9,666,87170,507,-15543,-4044,-92,43,-481
9,667,87175,327,-15593,-4227,-89,-28,-470
9,668,87180,261,-15682,-4762,-88,-59,-462
9,669,87185,187,-15585,-4849,-95,-36,-459
9,670,87190,166,-15374,-4438,-98,-26,-456
9,671,87195,227,-15381,-4098,-95,-58,-447
9,672,87200,419,-15581,-4314,-86,-104,-432
9,673,87205,723,-15677,-4617,-85,-98,-422
9,674,87210,815,-15539,-4415,-90,-35,-426
9,675,87215,664,-15588,-4083,-90,6,-428
9,676,87220,635,-15638,-4171,-87,-11,-415
9,677,87225,890,-15686,-4563,-86,-38,-398
9,678,87230,1086,-15781,-4600,-86,-25,-396
9,679,87235,1067,-15752,-4535,-89,-22,-392
9,680,87240,948,-15558,-4532,-88,-56,-378
9,681,87245,899,-15403,-4682,-86,-105,-364
9,682,87250,891,-15342,-4862,-86,-137,-354
9,683,87255,939,-15388,-4878,-90,-136,-345
9,684,87260,1050,-15357,-4738,-92,-122,-338
9,685,87265,1142,-15296,-4347,-93,-123,-333
9,686,87270,1104,-15320,-4045,-96,-144,-322
9,687,87275,1128,-15203,-3962,-96,-170,-309
9,688,87280,1256,-15070,-4126,-96,-179,-294
9,689,87285,1231,-15097,-4015,-100,-166,-286
9,690,87290,1334,-15067,-3931,-101,-185,-272
9,691,87295,1577,-15078,-4125,-99,-227,-254
9,692,87300,1634,-15159,-4367,-101,-255,-237
9,693,87305,1542,-15216,-4851,-103,-257,-226
9,694,87310,1243,-15155,-5059,-105,-223,-221
9,695,87315,1147,-14993,-5152,-112,-194,-213
9,696,87320,1154,-15049,-5067,-115,-164,-207
9,697,87325,1139,-15137,-4873,-114,-128,-196
9,698,87330,1309,-15257,-4701,-112,-97,-186
9,699,87335,1446,-15220,-4488,-113,-70,-181
9,700,87340,1575,-15220,-4330,-113,-61,-172
9,701,87345,1697,-15293,-4485,-108,-83,-163
9,702,87350,1666,-15426,-4849,-104,-117,-152
9,703,87355,1715,-15460,-5190,-104,-142,-143
9,704,87360,1613,-15425,-5268,-105,-138,-136
9,705,87365,1542,-15332,-5218,-107,-116,-130
9,706,87370,1465,-15229,-4887,-105,-96,-126
9,707,87375,1424,-15129,-4509,-103,-98,-116
9,708,87380,1639,-15170,-4382,-93,-118,-105
9,709,87385,1860,-15096,-4464,-87,-137,-90
9,710,87390,1989,-15068,-4815,-82,-159,-82
9,711,87395,1953,-15106,-5145,-82,-175,-74
9,712,87400,1935,-15017,-5249,-84,-190,-69
9,713,87405,2010,-14877,-5377,-74,-198,-61
9,714,87410,1966,-14940,-5571,-70,-172,-57
9,715,87415,2095,-15008,-5454,-65,-128,-55
9,716,87420,2266,-14974,-5014,-65,-105,-49
9,717,87425,2506,-15053,-5019,-54,-119,-43
9,718,87430,2567,-15356,-5461,-47,-123,-38
9,719,87435,2483,-15336,-5593,-48,-86,-43
9,720,87440,2307,-15078,-5299,-48,-42,-46
9,721,87445,2143,-14895,-5119,-45,-33,-41
9,722,87450,2157,-14930,-5051,-38,-44,-30
9,723,87455,2358,-14904,-4904,-35,-54,-25
9,724,87460,2542,-14898,-5013,-23,-60,-22
9,725,87465,2560,-14801,-5324,-16,-52,-21
9,726,87470,2412,-14631,-5477,-16,-37,-22
9,727,87475,2403,-14717,-5535,-15,-35,-19
9,728,87480,2522,-14733,-5614,-11,-10,-19
9,729,87485,2613,-14706,-5647,-7,27,-23
9,730,87490,2508,-14683,-5602,-2,59,-24
9,731,87495,2675,-14667,-5417,1,71,-21
9,732,87500,3008,-14761,-5225,2,62,-18
9,733,87505,3198,-14998,-5032,6,54,-20
9,734,87510,3282,-15076,-5023,9,34,-18
9,735,87515,3491,-15060,-5315,14,-27,-12
9,736,87520,3623,-15094,-5430,16,-50,-8
9,737,87525,3517,-15294,-5363,13,-69,-14
9,738,87530,3330,-15345,-5558,19,-85,-14
9,739,87535,3315,-15140,-5801,19,-65,-7
9,740,87540,3409,-15152,-6223,19,-19,-11
9,741,87545,3277,-15300,-5998,16,44,-21
9,742,87550,3161,-15225,-5394,15,57,-25
9,743,87555,3073,-15116,-5287,18,53,-26
9,744,87560,3186,-15107,-5470,20,74,-24
9,745,87565,3253,-15049,-5272,16,121,-31
9,746,87570,3140,-15099,-4789,12,124,-39
9,747,87575,3026,-15182,-4911,14,72,-40
9,748,87580,3092,-15100,-5207,13,28,-36
9,749,87585,3194,-15007,-5292,8,43,-35
9,750,87590,3185,-15057,-5011,0,74,-42
9,751,87595,3383,-15063,-4825,-4,54,-44
9,752,87600,3590,-15115,-4742,-7,5,-38
9,753,87605,3600,-15244,-4636,-8,-34,-42
9,754,87610,3478,-15304,-4638,-8,-48,-45
9,755,87615,3672,-15198,-4865,-13,-48,-43
9,756,87620,3864,-15260,-5055,-20,-55,-43
9,757,87625,3861,-15355,-5328,-20,-84,-44
9,758,87630,3543,-15252,-5461,-26,-108,-50
9,759,87635,3330,-15074,-5536,-29,-107,-55
9,760,87640,3300,-15065,-5326,-32,-78,-53
9,761,87645,3543,-15084,-5124,-33,-55,-53
9,762,87650,3675,-15070,-4647,-36,-50,-52
9,763,87655,3668,-15072,-4655,-33,-95,-51
9,764,87660,3486,-15010,-5134,-28,-166,-44
9,765,87665,3383,-14855,-5834,-28,-206,-41
9,766,87670,3015,-14706,-5858,-33,-177,-44
9,767,87675,2827,-14708,-5943,-32,-153,-45
9,768,87680,2990,-14755,-6224,-27,-117,-43
9,769,87685,3133,-14717,-6118,-33,-54,-53
9,770,87690,3184,-14686,-5803,-28,-19,-60
9,771,87695,2970,-14791,-5616,-25,-16,-63
9,772,87700,2979,-14700,-5592,-21,-22,-62
9,773,87705,3069,-14745,-5525,-20,-16,-60
9,774,87710,3121,-14825,-5332,-16,0,-61
9,775,87715,3208,-14857,-5233,-10,-2,-55
9,776,87720,3339,-15083,-5269,-10,-27,-51
9,777,87725,3485,-15233,-5523,-4,-61,-48
9,778,87730,3501,-15244,-5650,-1,-65,-44
9,779,87735,3262,-15229,-5708,3,-53,-47
9,780,87740,3050,-15156,-5593,7,-58,-44
9,781,87745,3285,-15131,-5604,13,-75,-35
9,782,87750,3477,-15335,-5836,19,-83,-30
9,783,87755,3693,-15466,-5835,24,-76,-28
9,784,87760,3723,-15382,-5761,23,-63,-28
9,785,87765,3361,-15295,-5640,26,-57,-33
9,786,87770,3115,-15218,-5837,32,-76,-27
9,787,87775,3059,-15075,-6063,34,-73,-16
9,788,87780,3222,-15002,-6141,33,-40,-13
9,789,87785,3278,-15064,-5900,38,3,-17
9,790,87790,3227,-15059,-5669,38,26,-8
9,791,87795,3204,-14988,-5615,43,24,-5
9,792,87800,3207,-14798,-5573,46,25,-3
9,793,87805,3152,-14852,-5545,47,41,4
9,794,87810,3244,-14992,-5277,49,52,5
9,795,87815,3416,-14927,-5343,52,40,11
9,796,87820,3519,-14918,-5525,53,32,14
9,797,87825,3475,-14964,-5755,52,26,15
9,798,87830,3355,-15017,-5987,48,25,20
9,799,87835,3199,-15068,-5989,43,32,21
9,800,87840,3242,-15028,-5648,40,56,17
9,801,87845,3242,-15126,-5413,40,81,18
9,802,87850,3351,-15271,-5374,42,103,21
9,803,87855,3559,-15130,-5140,37,124,20
9,804,87860,3512,-15060,-4887,34,113,18
9,805,87865,3374,-15060,-4897,33,72,22
9,806,87870,3371,-15020,-5098,30,45,29
9,807,87875,3351,-14972,-5161,29,45,33
9,808,87880,3278,-15062,-5080,23,19,34
9,809,87885,3271,-14999,-5102,18,-20,37
9,810,87890,3214,-14961,-5294,17,-60,40
9,811,87895,3125,-15062,-5593,14,-82,38
9,812,87900,3013,-15078,-5594,9,-73,34
9,813,87905,2985,-15036,-5424,6,-50,33
9,814,87910,3080,-15066,-5654,5,-36,32
9,815,87915,3201,-15226,-5690,0,-13,29
9,816,87920,3274,-15300,-5683,-2,3,25
9,817,87925,3246,-15302,-5625,-3,-5,22
9,818,87930,3114,-15349,-5684,-4,-19,16
9,819,87935,2966,-15342,-5739,-9,-7,12
9,820,87940,3156,-15340,-5733,-12,23,13
9,821,87945,3318,-15229,-5399,-16,59,7
9,822,87950,3315,-15280,-5133,-15,56,5
9,823,87955,3279,-15279,-5161,-13,9,5
9,824,87960,3293,-15215,-5426,-13,-41,9
9,825,87965,3239,-15184,-5654,-15,-53,10
9,826,87970,3196,-15138,-5671,-17,-40,6
9,827,87975,3143,-15165,-5661,-19,-32,2
9,828,87980,3114,-15134,-5631,-20,-33,-2
9,829,87985,3134,-15073,-5486,-21,-48,-1
9,830,87990,3057,-15017,-5437,-19,-60,-1
9,831,87995,3184,-14987,-5399,-19,-69,-3
9,832,88000,3319,-14970,-5587,-21,-71,-6
9,833,88005,3302,-15054,-5850,-21,-85,-6
9,834,88010,3295,-15050,-6012,-22,-93,-7
9,835,88015,3260,-15068,-6188,-23,-79,-12
9,836,88020,3242,-15115,-6354,-24,-34,-16
9,837,88025,3195,-15110,-6044,-28,39,-20
9,838,88030,3359,-15050,-5380,-29,86,-23
9,839,88035,3440,-15057,-5212,-24,73,-23
9,840,88040,3421,-14998,-5357,-21,32,-22
9,841,88045,3398,-14901,-5544,-22,-12,-19
9,842,88050,3319,-14796,-5616,-22,-48,-13
9,843,88055,3350,-14834,-5969,-16,-74,-11
9,844,88060,3467,-14929,-6245,-15,-60,-10
9,845,88065,3473,-14947,-6142,-18,-25,-16
9,846,88070,3394,-14931,-6010,-20,-3,-21
9,847,88075,3364,-14924,-5751,-16,11,-23
9,848,88080,3379,-14970,-5481,-17,25,-24
9,849,88085,3414,-15065,-5360,-19,29,-25
9,850,88090,3541,-15117,-5229,-18,14,-23
9,851,88095,3603,-15041,-5173,-19,-23,-22
9,852,88100,3572,-15046,-5409,-15,-69,-17
9,853,88105,3679,-15067,-5700,-14,-94,-16
9,854,88110,3714,-15030,-5758,-15,-82,-19
9,855,88115,3670,-14949,-5765,-16,-65,-23
9,856,88120,3538,-14890,-5877,-15,-71,-20
9,857,88125,3391,-14770,-5908,-17,-79,-15
9,858,88130,3318,-14766,-5909,-16,-83,-18
9,859,88135,3326,-14883,-5853,-14,-70,-20
9,860,88140,3469,-14974,-5967,-14,-50,-24
9,861,88145,3517,-14931,-5796,-14,-34,-25
9,862,88150,3519,-14880,-5956,-11,-48,-24
9,863,88155,3373,-14907,-6296,-10,-55,-25
9,864,88160,3259,-14994,-6273,-15,-25,-29
9,865,88165,3283,-15060,-6016,-16,25,-33
9,866,88170,3412,-15023,-5713,-14,62,-29
9,867,88175,3507,-15161,-5437,-15,72,-29
9,868,88180,3496,-15259,-5345,-13,51,-34
9,869,88185,3494,-15427,-5340,-12,15,-33
9,870,88190,3497,-15370,-5463,-12,-16,-30
9,871,88195,3576,-15292,-5500,-10,-26,-29
9,872,88200,3708,-15367,-5560,-14,-36,-29
9,873,88205,3769,-15449,-5701,-15,-57,-26
9,874,88210,3736,-15327,-5746,-18,-65,-29
9,875,88215,3635,-15257,-5813,-18,-58,-29
9,876,88220,3484,-15198,-5826,-16,-32,-27
9,877,88225,3510,-15239,-5925,-19,-11,-24
9,878,88230,3465,-15235,-5667,-23,4,-26
9,879,88235,3367,-15218,-5554,-23,-2,-27
9,880,88240,3375,-15181,-5689,-24,-19,-24
9,881,88245,3395,-15080,-5592,-26,14,-28
9,882,88250,3406,-15031,-5390,-25,32,-31
9,883,88255,3444,-14956,-5433,-24,29,-28
9,884,88260,3379,-14934,-5571,-26,21,-28
9,885,88265,3404,-14917,-5684,-28,33,-27
9,886,88270,3500,-14963,-5530,-28,47,-23
9,887,88275,3558,-15021,-5654,-28,41,-23
9,888,88280,3549,-15107,-5781,-30,29,-25
9,889,88285,3454,-15013,-5716,-33,30,-27
9,890,88290,3375,-14997,-5648,-34,28,-25
9,891,88295,3316,-15033,-5563,-35,33,-26
9,892,88300,3372,-15034,-5360,-33,43,-25
9,893,88305,3428,-15043,-5382,-34,47,-25
9,894,88310,3403,-15098,-5421,-37,47,-25
9,895,88315,3427,-15054,-5321,-36,36,-24
9,896,88320,3394,-14971,-5231,-34,17,-24
9,897,88325,3405,-14974,-5353,-32,-8,-17
9,898,88330,3412,-15051,-5438,-32,-19,-17
9,899,88335,3345,-15085,-5562,-33,-25,-15
9,900,88340,3370,-15081,-5642,-34,-30,-14
9,901,88345,3379,-15035,-5640,-35,-30,-15
9,902,88350,3298,-15003,-5657,-34,-26,-19
9,903,88355,3190,-14965,-5764,-32,-34,-16
9,904,88360,3287,-14973,-5937,-30,-54,-12
9,905,88365,3177,-14978,-5953,-32,-61,-15
9,906,88370,3035,-14965,-5807,-32,-60,-20
9,907,88375,3086,-14882,-5825,-29,-42,-19
9,908,88380,3188,-14822,-5762,-22,-13,-19
9,909,88385,3229,-14843,-5662,-23,15,-22
9,910,88390,3173,-14902,-5495,-24,18,-25
9,911,88395,3059,-14897,-5600,-23,-4,-24
9,912,88400,2978,-14921,-5796,-23,-9,-20
9,913,88405,3081,-14889,-5779,-21,25,-21
9,914,88410,3080,-14913,-5581,-25,68,-25
9,915,88415,3092,-14969,-5233,-24,85,-26
9,916,88420,3291,-14929,-5080,-26,65,-23
9,917,88425,3344,-14929,-5114,-21,30,-20
9,918,88430,3326,-14963,-5253,-22,2,-18
9,919,88435,3571,-14960,-5212,-24,-10,-13
9,920,88440,3671,-15012,-5220,-23,-28,-13
9,921,88445,3605,-15010,-5168,-23,-55,-7
9,922,88450,3538,-14985,-5284,-21,-97,-3
9,923,88455,3528,-15016,-5556,-18,-120,0
9,924,88460,3372,-15006,-5819,-17,-116,1
9,925,88465,3238,-15088,-6004,-14,-101,1
9,926,88470,3203,-15057,-6130,-19,-83,2
9,927,88475,3064,-14962,-6003,-20,-52,0
9,928,88480,3046,-14903,-6004,-15,-42,4
9,929,88485,3120,-14958,-6173,-11,-28,6
9,930,88490,3126,-14976,-6018,-14,14,1
9,931,88495,3075,-15017,-5605,-18,53,-1
9,932,88500,3125,-14945,-5361,-14,64,-1
9,933,88505,3271,-14926,-5402,-7,70,0
9,934,88510,3334,-14998,-5450,-8,75,3
9,935,88515,3337,-14966,-5411,-8,62,3
9,936,88520,3377,-14933,-5623,-8,31,9
9,937,88525,3373,-14962,-5850,-8,8,12
9,938,88530,3413,-14907,-5847,-8,17,12
9,939,88535,3403,-14862,-5700,-8,34,13
9,940,88540,3395,-14884,-5383,-6,34,14
9,941,88545,3443,-14895,-5185,-6,21,16
9,942,88550,3536,-14877,-5172,-1,0,19
9,943,88555,3645,-14893,-5361,0,-17,20
9,944,88560,3585,-14888,-5567,-2,-36,22
9,945,88565,3499,-14815,-5727,-1,-62,23
9,946,88570,3441,-14828,-5916,0,-82,29
9,947,88575,3348,-14886,-6136,-1,-72,31
9,948,88580,3372,-14920,-6226,-1,-42,30
9,949,88585,3404,-14932,-5927,-4,-3,28
9,950,88590,3466,-14912,-5787,-5,12,27
9,951,88595,3399,-14874,-5422,-3,15,25
9,952,88600,3356,-14968,-5476,2,-19,32
9,953,88605,3314,-14985,-5695,4,-30,34
9,954,88610,3456,-15011,-5773,-6,-5,29
9,955,88615,3532,-15113,-5924,-1,-17,34
9,956,88620,3561,-15157,-5849,-2,4,33
9,957,88625,3661,-15102,-5756,-5,36,28
9,958,88630,3729,-15054,-5549,-3,52,25
9,959,88635,3753,-15025,-5448,-3,53,27
9,960,88640,3747,-15025,-5438,-2,42,35
9,961,88645,3733,-15019,-5588,1,11,33
9,962,88650,3552,-15086,-5833,0,-2,31
9,963,88655,3447,-15046,-5988,-2,16,31
9,964,88660,3535,-14960,-5883,-7,45,31
9,965,88665,3667,-14977,-5797,-8,50,28
9,966,88670,3527,-15098,-5815,-8,48,23
9,967,88675,3394,-15138,-5778,-8,42,21
9,968,88680,3317,-15117,-5796,-8,37,18
9,969,88685,3289,-15083,-5748,-10,39,18
9,970,88690,3405,-15158,-5725,-7,40,19
9,971,88695,3524,-15284,-5679,-6,35,17
9,972,88700,3631,-15347,-5754,-5,20,15
9,973,88705,3714,-15299,-5840,-3,3,12
9,974,88710,3675,-15159,-5806,-5,7,8
9,975,88715,3518,-15130,-5887,-3,13,4
9,976,88720,3599,-15096,-5876,-5,31,3
9,977,88725,3623,-14978,-5635,-5,42,-3
9,978,88730,3441,-14853,-5593,-3,24,-4
9,979,88735,3358,-14809,-5789,-2,-11,-6
9,980,88740,3279,-14795,-5948,-3,-24,-6
9,981,88745,3340,-14747,-6023,-8,-24,-7
9,982,88750,3428,-14757,-5722,-13,-12,-11
9,983,88755,3567,-14805,-5473,-12,-17,-13
9,984,88760,3740,-14884,-5465,-6,-37,-10
9,985,88765,3798,-14892,-5577,-6,-56,-11
9,986,88770,3702,-14993,-5775,-4,-69,-16
9,987,88775,3593,-15080,-5980,-4,-76,-17
9,988,88780,3597,-15074,-6105,-6,-59,-18
9,989,88785,3604,-15104,-6266,-6,-40,-20
9,990,88790,3480,-15165,-6198,-6,-10,-27
9,991,88795,3364,-15072,-5969,-11,15,-28
9,992,88800,3222,-14980,-5673,-10,19,-28
9,993,88805,3226,-15059,-5702,-8,-8,-28
9,994,88810,3341,-15044,-5767,-5,-36,-23
9,995,88815,3458,-14876,-5418,-6,-48,-24
9,996,88820,3436,-14804,-5354,-3,-79,-25
9,997,88825,3364,-14874,-5772,1,-103,-23
9,998,88830,3441,-14870,-6058,-6,-92,-21
9,999,88835,3442,-14863,-5902,-12,-61,-24
