event_id,seq,ts_ms,ax,ay,az,gx,gy,gz
5,0,297020,-114,-16382,199,7,-8,-15
5,1,297025,-110,-16374,197,6,-5,-14
5,2,297030,-103,-16355,196,10,-1,-16
5,3,297035,-92,-16373,217,8,2,-15
5,4,297040,-92,-16410,234,8,0,-9
5,5,297045,-149,-16416,246,8,1,-14
5,6,297050,-204,-16454,227,5,0,-12
5,7,297055,-186,-16440,163,5,-1,-15
5,8,297060,-198,-16454,129,5,0,-17
5,9,297065,-186,-16428,119,8,0,-15
5,10,297070,-156,-16407,119,8,4,-18
5,11,297075,-179,-16448,195,8,6,-17
5,12,297080,-149,-16430,206,4,2,-17
5,13,297085,-110,-16395,217,5,-3,-21
5,14,297090,-47,-16414,185,6,-7,-19
5,15,297095,-58,-16378,233,7,-9,-18
5,16,297100,-6,-16367,248,9,-12,-18
5,17,297105,-18,-16354,278,5,-19,-15
5,18,297110,-32,-16387,263,8,-27,-18
5,19,297115,-97,-16400,292,9,-34,-19
5,20,297120,-124,-16404,228,6,-38,-14
5,21,297125,-142,-16405,166,4,-37,-16
5,22,297130,-137,-16365,150,4,-34,-20
5,23,297135,-56,-16345,139,7,-35,-15
5,24,297140,-8,-16307,146,6,-33,-19
5,25,297145,12,-16322,182,8,-34,-17
5,26,297150,28,-16284,160,8,-30,-15
5,27,297155,35,-16276,190,5,-29,-16
5,28,297160,42,-16296,143,4,-27,-14
5,29,297165,22,-16309,116,4,-21,-15
5,30,297170,35,-16363,159,6,-18,-16
5,31,297175,18,-16407,202,7,-13,-12
5,32,297180,-65,-16414,210,1,-9,-12
5,33,297185,-107,-16435,248,2,-5,-13
5,34,297190,-139,-16506,232,1,-5,-16
5,35,297195,-144,-16559,202,2,-8,-13
5,36,297200,-158,-16572,158,3,-5,-12
5,37,297205,-162,-16563,189,3,-2,-13
5,38,297210,-181,-16600,227,3,-3,-14
5,39,297215,-156,-16620,298,2,-5,-15
5,40,297220,-145,-16561,323,2,-9,-17
5,41,297225,-164,-16572,400,0,-12,-16
5,42,297230,-133,-16536,476,0,-16,-14
5,43,297235,-140,-16469,484,-2,-22,-15
5,44,297240,-126,-16456,444,-7,-28,-13
5,45,297245,-189,-16440,449,-5,-36,-12
5,46,297250,-294,-16464,494,-6,-38,-11
5,47,297255,-391,-16457,473,-5,-43,-11
5,48,297260,-499,-16462,479,-8,-46,-12
5,49,297265,-598,-16418,446,-11,-48,-14
5,50,297270,-623,-16408,396,-14,-49,-12
5,51,297275,-676,-16350,389,-14,-49,-16
5,52,297280,-704,-16334,425,-15,-48,-18
5,53,297285,-762,-16287,500,-15,-47,-18
5,54,297290,-826,-16229,596,-16,-49,-17
5,55,297295,-864,-16170,762,-18,-52,-21
5,56,297300,-979,-16141,872,-18,-60,-23
5,57,297305,-965,-16158,1038,-20,-72,-21
5,58,297310,-1005,-16204,1333,-23,-81,-21
5,59,297315,-1053,-16221,1589,-22,-94,-28
5,60,297320,-1056,-16219,1943,-24,-109,-31
5,61,297325,-1329,-16270,2371,-39,-146,-26
5,62,297330,-1518,-16313,2584,-52,-162,-27
5,63,297335,-1801,-16284,2545,-58,-180,-27
5,64,297340,-2065,-16279,2456,-64,-190,-30
5,65,297345,-2322,-16096,2478,-74,-194,-34
5,66,297350,-2559,-15940,2484,-79,-200,-39
5,67,297355,-2761,-15720,2437,-84,-204,-46
5,68,297360,-3035,-15540,2572,-88,-202,-53
5,69,297365,-3228,-15447,2478,-93,-208,-57
5,70,297370,-3436,-15353,2386,-105,-216,-65
5,71,297375,-3597,-15430,2008,-114,-226,-74
5,72,297380,-3726,-15640,1685,-119,-228,-83
5,73,297385,-3778,-15872,1131,-126,-238,-94
5,74,297390,-3826,-16028,898,-125,-224,-103
5,75,297395,-3815,-16299,757,-120,-212,-114
5,76,297400,-3752,-16600,733,-121,-198,-127
5,77,297405,-3675,-16735,832,-120,-184,-144
5,78,297410,-3450,-17172,954,-111,-189,-140
5,79,297415,-3143,-17247,963,-117,-193,-158
5,80,297420,-2974,-17416,580,-122,-178,-163
5,81,297425,-2871,-17401,1442,-124,-136,-173
5,82,297430,-2709,-17494,1234,-119,-199,-170
5,83,297435,-2774,-17664,1011,-121,-242,-168
5,84,297440,-2777,-17733,710,-125,-252,-167
5,85,297445,-2757,-17900,1129,-124,-227,-177
5,86,297450,-2745,-17850,1170,-131,-261,-193
5,87,297455,-2770,-17890,1403,-129,-309,-189
5,88,297460,-2742,-17949,934,-125,-391,-183
5,89,297465,-2887,-18095,919,-122,-394,-187
5,90,297470,-3031,-17965,1429,-130,-387,-198
5,91,297475,-3031,-18045,1309,-132,-462,-195
5,92,297480,-3214,-18085,1119,-134,-507,-202
5,93,297485,-3171,-18032,932,-137,-535,-209
5,94,297490,-3167,-18056,758,-134,-551,-209
5,95,297495,-3081,-17942,648,-136,-556,-218
5,96,297500,-2984,-17831,744,-137,-562,-224
5,97,297505,-2835,-17766,540,-136,-576,-228
5,98,297510,-2591,-17630,932,-139,-570,-240
5,99,297515,-2266,-17513,626,-140,-612,-241
5,100,297520,-2008,-17489,602,-144,-601,-241
5,101,297525,-1826,-17375,67,-144,-596,-238
5,102,297530,-1918,-17357,344,-144,-519,-238
5,103,297535,-1793,-17110,1120,-152,-491,-246
5,104,297540,-1500,-17165,-299,-149,-576,-241
5,105,297545,-1545,-17095,-229,-149,-496,-247
5,106,297550,-1164,-16897,-554,-149,-428,-256
5,107,297555,-1118,-16723,-294,-146,-349,-258
5,108,297560,-908,-16610,-302,-141,-327,-251
5,109,297565,-805,-16518,-270,-144,-315,-251
5,110,297570,-773,-16546,-678,-137,-300,-249
5,111,297575,-525,-16485,-650,-139,-247,-252
5,112,297580,-421,-16455,-487,-134,-211,-255
5,113,297585,-268,-16413,-718,-133,-210,-256
5,114,297590,-62,-16406,-662,-128,-221,-247
5,115,297595,60,-16455,-1368,-123,-225,-237
5,116,297600,142,-16333,-791,-119,-164,-242
5,117,297605,370,-16207,-650,-111,-193,-238
5,118,297610,606,-16154,-1286,-105,-237,-230
5,119,297615,884,-15998,-998,-100,-232,-230
5,120,297620,1201,-15750,-1080,-92,-266,-222
5,121,297625,1518,-15701,-1332,-82,-298,-213
5,122,297630,1737,-15637,-1211,-77,-314,-210
5,123,297635,1941,-15588,-1282,-74,-348,-196
5,124,297640,1988,-15594,-1299,-67,-370,-182
5,125,297645,2050,-15642,-1342,-55,-388,-170
5,126,297650,2020,-15704,-1397,-49,-402,-162
5,127,297655,2062,-15688,-1385,-42,-401,-158
5,128,297660,2199,-15651,-1373,-35,-405,-156
5,129,297665,2285,-15565,-1285,-32,-402,-151
5,130,297670,2384,-15395,-1307,-24,-393,-142
5,131,297675,2345,-15362,-1185,-17,-373,-128
5,132,297680,2154,-15286,-1223,-14,-360,-121
5,133,297685,1871,-15332,-1004,-11,-337,-112
5,134,297690,1535,-15443,-1551,-14,-302,-109
5,135,297695,1360,-15612,-1792,-1,-270,-100
5,136,297700,1249,-15696,-1727,7,-227,-103
5,137,297705,1335,-15787,-1640,16,-198,-108
5,138,297710,1174,-15835,-1396,20,-166,-108
5,139,297715,1257,-15902,-1500,23,-161,-105
5,140,297720,1357,-15743,-1382,24,-140,-112
5,141,297725,1569,-15678,-1415,28,-135,-114
5,142,297730,1729,-15549,-1253,38,-130,-113
5,143,297735,1951,-15462,-1169,44,-146,-113
5,144,297740,2018,-15387,-1095,47,-162,-107
5,145,297745,2134,-15336,-1134,50,-186,-96
5,146,297750,2131,-15271,-1032,50,-194,-88
5,147,297755,2021,-15190,-839,55,-207,-85
5,148,297760,1999,-15251,-785,60,-225,-80
5,149,297765,2042,-15469,-765,66,-233,-79
5,150,297770,2127,-15647,-780,67,-235,-78
5,151,297775,2290,-15769,-679,61,-230,-79
5,152,297780,2426,-15693,-847,61,-240,-76
5,153,297785,2354,-15643,-864,64,-232,-70
5,154,297790,2244,-15638,-1001,74,-227,-62
5,155,297795,1940,-15691,-771,79,-200,-56
5,156,297800,1705,-15671,-774,69,-194,-59
5,157,297805,1542,-15657,-768,68,-189,-61
5,158,297810,1519,-15586,-1035,69,-195,-68
5,159,297815,1587,-15650,-1339,68,-186,-75
5,160,297820,1716,-15908,-1704,72,-187,-72
5,161,297825,1732,-16251,-2066,76,-183,-64
5,162,297830,1891,-16781,-2136,86,-175,-64
5,163,297835,2282,-16887,-2437,92,-184,-86
5,164,297840,2572,-17052,-2326,97,-162,-89
5,165,297845,3024,-17169,-2320,94,-131,-86
5,166,297850,3254,-16784,-1142,105,-72,-89
5,167,297855,3965,-16703,-1218,126,-136,-60
5,168,297860,4112,-16418,-1121,122,-149,-50
5,169,297865,4345,-16360,-1239,123,-150,-36
5,170,297870,4207,-16125,-569,119,-114,-29
5,171,297875,4052,-15844,-720,113,-137,-15
5,172,297880,3884,-15867,-625,111,-151,2
5,173,297885,3650,-15904,-801,109,-157,11
5,174,297890,3439,-15827,-1051,103,-150,18
5,175,297895,3192,-15782,-1106,101,-118,20
5,176,297900,3054,-15773,-1183,97,-81,23
5,177,297905,2931,-15775,-1464,96,-67,28
5,178,297910,3004,-15621,-1701,101,-34,36
5,179,297915,2606,-16238,-2063,96,6,71
5,180,297920,2751,-16216,-1924,107,58,45
5,181,297925,2628,-15912,-1768,104,51,25
5,182,297930,3016,-16402,-2652,108,-41,55
5,183,297935,3378,-16585,-3438,108,-41,48
5,184,297940,3788,-16837,-3878,114,18,44
5,185,297945,4243,-16915,-3152,123,85,42
5,186,297950,4736,-17106,-2774,135,26,55
5,187,297955,5279,-17420,-3012,150,-69,74
5,188,297960,5877,-17649,-3072,156,-98,85
5,189,297965,6368,-17763,-2881,151,-94,89
5,190,297970,6745,-17768,-2608,153,-120,103
5,191,297975,7262,-17793,-2823,160,-184,126
5,192,297980,7721,-17525,-3148,168,-228,155
5,193,297985,7980,-18068,-3335,173,-241,198
5,194,297990,8317,-17370,-3168,175,-212,174
5,195,297995,8444,-17504,-2817,183,-201,222
5,196,298000,8757,-17380,-2869,185,-205,238
5,197,298005,8856,-16949,-2585,179,-178,241
5,198,298010,9055,-17011,-2853,179,-177,280
5,199,298015,9138,-16761,-2956,174,-135,284
5,200,298020,9145,-16630,-3069,172,-81,304
5,201,298025,8935,-16525,-2951,173,-17,326
5,202,298030,8853,-16608,-3224,174,18,344
5,203,298035,8737,-16707,-3249,172,64,364
5,204,298040,8685,-16872,-3576,168,105,361
5,205,298045,8852,-16631,-3566,163,166,348
5,206,298050,8948,-16764,-3241,173,225,379
5,207,298055,8972,-16851,-3108,178,248,402
5,208,298060,8205,-17131,-2137,170,308,440
5,209,298065,7858,-17081,-2025,160,308,450
5,210,298070,7381,-17355,-1771,158,332,469
5,211,298075,6949,-17316,-1899,148,345,462
5,212,298080,6811,-16922,-1932,138,367,458
5,213,298085,6393,-17186,-1702,142,399,483
5,214,298090,6207,-16900,-2142,131,402,477
5,215,298095,5879,-16792,-1787,127,470,486
5,216,298100,5287,-16914,-1653,124,518,499
5,217,298105,4796,-16670,-1563,111,536,484
5,218,298110,4386,-16482,-1575,103,570,485
5,219,298115,4015,-16528,-1601,98,609,484
5,220,298120,3902,-16601,-1565,89,645,476
5,221,298125,3501,-16583,-1213,84,700,464
5,222,298130,3195,-16642,-938,79,732,459
5,223,298135,2800,-16670,-745,68,748,456
5,224,298140,2530,-16716,-728,57,745,452
5,225,298145,2291,-16656,-788,44,750,441
5,226,298150,2054,-16586,-855,32,770,426
5,227,298155,1981,-16498,-1058,28,780,415
5,228,298160,1837,-16353,-1083,24,799,403
5,229,298165,1666,-16166,-873,18,817,394
5,230,298170,1495,-16087,-655,14,820,388
5,231,298175,1361,-16004,-570,5,819,381
5,232,298180,1259,-15999,-449,-4,816,365
5,233,298185,1150,-15868,-277,-12,815,349
5,234,298190,1093,-15772,-269,-18,803,341
5,235,298195,1035,-15770,-347,-25,782,333
5,236,298200,900,-15777,-510,-35,759,328
5,237,298205,827,-15806,-705,-42,735,319
5,238,298210,704,-15784,-880,-44,699,308
5,239,298215,618,-15786,-1097,-43,671,294
5,240,298220,709,-15792,-1150,-44,657,283
5,241,298225,748,-15842,-953,-42,644,276
5,242,298230,643,-15863,-704,-41,621,268
5,243,298235,495,-15919,-442,-44,586,263
5,244,298240,148,-15936,-350,-45,551,262
5,245,298245,-144,-16001,-536,-51,525,253
5,246,298250,-599,-16010,-804,-60,512,241
5,247,298255,-1077,-15973,-1046,-66,504,227
5,248,298260,-1453,-15914,-1409,-61,496,216
5,249,298265,-1549,-15930,-1888,-52,508,202
5,250,298270,-1316,-15910,-1841,-48,537,173
5,251,298275,-1075,-15693,-1545,-49,556,146
5,252,298280,-692,-15990,-1411,-40,546,147
5,253,298285,-252,-15972,-1086,-32,538,138
5,254,298290,-165,-16055,-606,-25,530,142
5,255,298295,-485,-16579,151,-22,507,152
5,256,298300,-900,-16594,371,-24,447,129
5,257,298305,-1471,-16822,21,-34,392,127
5,258,298310,-1887,-17044,-286,-41,410,117
5,259,298315,-2345,-17091,-209,-42,451,104
5,260,298320,-2409,-16929,-287,-42,433,90
5,261,298325,-2161,-16576,-745,-40,393,76
5,262,298330,-1769,-16114,-1449,-36,371,70
5,263,298335,-1272,-15641,-2047,-24,392,61
5,264,298340,-982,-15266,-2167,-16,450,55
5,265,298345,-939,-15033,-1793,-12,503,49
5,266,298350,-1140,-15130,-1572,-4,509,49
5,267,298355,-1424,-15436,-1619,7,497,51
5,268,298360,-1798,-15842,-1713,17,515,45
5,269,298365,-2261,-16267,-1479,19,566,31
5,270,298370,-2602,-16526,-1388,23,595,16
5,271,298375,-2887,-16644,-1274,33,605,11
5,272,298380,-2998,-16808,-1476,41,606,2
5,273,298385,-2983,-16979,-1753,48,635,-16
5,274,298390,-2922,-16865,-1556,56,711,-37
5,275,298395,-2782,-16797,-818,60,767,-46
5,276,298400,-2516,-16529,-994,65,714,-47
5,277,298405,-2230,-16346,-1706,71,696,-55
5,278,298410,-1894,-16032,-1550,72,776,-72
5,279,298415,-1763,-15716,-1131,81,833,-83
5,280,298420,-1746,-15576,-509,91,827,-87
5,281,298425,-2057,-15952,-163,107,757,-81
5,282,298430,-2307,-16142,516,109,737,-83
5,283,298435,-2618,-16345,864,109,684,-84
5,284,298440,-2989,-16739,987,108,631,-87
5,285,298445,-3395,-16926,1292,104,605,-97
5,286,298450,-3900,-17075,1566,100,570,-102
5,287,298455,-4180,-17183,1662,99,516,-106
5,288,298460,-4405,-17270,1549,99,472,-115
5,289,298465,-4565,-17483,1339,94,443,-134
5,290,298470,-4435,-17047,1192,86,425,-166
5,291,298475,-4376,-16814,1249,86,402,-161
5,292,298480,-4267,-16453,1047,88,355,-171
5,293,298485,-4073,-15960,930,85,330,-196
5,294,298490,-4122,-16058,1141,88,315,-188
5,295,298495,-4377,-16069,1274,82,287,-198
5,296,298500,-4618,-15910,1304,75,261,-230
5,297,298505,-4683,-15907,1369,68,245,-240
5,298,298510,-4865,-16060,1386,68,228,-239
5,299,298515,-5033,-16177,1411,67,211,-249
5,300,298520,-5135,-16295,1456,67,195,-257
5,301,298525,-5236,-16529,1586,64,182,-268
5,302,298530,-5218,-16587,1455,59,172,-295
5,303,298535,-5191,-16520,1758,53,206,-322
5,304,298540,-5277,-16475,2550,50,231,-334
5,305,298545,-5439,-16371,3135,42,185,-343
5,306,298550,-5597,-16423,3168,36,110,-340
5,307,298555,-5960,-16565,3412,27,82,-347
5,308,298560,-6180,-16646,3506,15,67,-367
5,309,298565,-6348,-16474,3938,1,51,-388
5,310,298570,-6554,-16496,3987,-12,-4,-407
5,311,298575,-6706,-16416,3682,-24,-69,-427
5,312,298580,-6668,-16307,3605,-31,-98,-449
5,313,298585,-6606,-16153,3500,-43,-110,-465
5,314,298590,-6503,-15984,3668,-53,-119,-483
5,315,298595,-6360,-15825,3450,-69,-167,-495
5,316,298600,-6270,-15714,3211,-79,-201,-504
5,317,298605,-6006,-15823,2720,-83,-208,-515
5,318,298610,-5949,-15696,2590,-94,-178,-536
5,319,298615,-5950,-15837,2882,-103,-151,-536
5,320,298620,-5885,-16003,2841,-111,-167,-561
5,321,298625,-5734,-15972,2109,-116,-181,-590
5,322,298630,-5690,-16014,2335,-122,-111,-600
5,323,298635,-5828,-16056,2647,-130,-75,-601
5,324,298640,-5939,-16218,2536,-137,-81,-604
5,325,298645,-6115,-16400,2442,-145,-72,-611
5,326,298650,-6214,-16602,2361,-151,-41,-629
5,327,298655,-6245,-16797,2425,-154,10,-646
5,328,298660,-6193,-16815,2683,-160,48,-661
5,329,298665,-5967,-16715,2758,-169,72,-676
5,330,298670,-5775,-16690,2984,-175,93,-686
5,331,298675,-5617,-16740,2854,-183,95,-692
5,332,298680,-5440,-16761,2725,-190,113,-700
5,333,298685,-5295,-16856,2666,-195,126,-707
5,334,298690,-5075,-16873,2439,-200,129,-716
5,335,298695,-4884,-16886,2375,-205,135,-719
5,336,298700,-4674,-16832,2303,-209,119,-722
5,337,298705,-4486,-16812,1991,-208,88,-724
5,338,298710,-4278,-16761,1800,-213,69,-725
5,339,298715,-4089,-16691,1769,-215,46,-723
5,340,298720,-3848,-16651,1699,-213,5,-723
5,341,298725,-3528,-16521,1375,-211,-56,-718
5,342,298730,-3256,-16458,1196,-210,-95,-717
5,343,298735,-2947,-16442,1123,-208,-130,-712
5,344,298740,-2674,-16358,1259,-202,-173,-701
5,345,298745,-2429,-16331,1256,-203,-238,-690
5,346,298750,-2383,-16331,1278,-198,-311,-674
5,347,298755,-2267,-16478,894,-197,-367,-660
5,348,298760,-2146,-16548,862,-197,-390,-652
5,349,298765,-2022,-16554,954,-198,-421,-646
5,350,298770,-1856,-16527,745,-192,-487,-633
5,351,298775,-1690,-16556,152,-187,-539,-619
5,352,298780,-1547,-16587,43,-183,-548,-606
5,353,298785,-1344,-16548,-42,-180,-560,-592
5,354,298790,-944,-16525,-476,-169,-632,-562
5,355,298795,-656,-16572,-680,-162,-638,-551
5,356,298800,-301,-16533,-669,-157,-636,-538
5,357,298805,-15,-16535,-819,-149,-651,-520
5,358,298810,275,-16534,-1072,-141,-660,-499
5,359,298815,426,-16503,-1213,-132,-646,-480
5,360,298820,531,-16380,-1283,-126,-633,-460
5,361,298825,674,-16343,-1419,-115,-628,-440
5,362,298830,883,-16351,-1497,-109,-626,-426
5,363,298835,1093,-16335,-1555,-100,-626,-408
5,364,298840,1328,-16326,-1689,-88,-626,-388
5,365,298845,1577,-16279,-1649,-75,-623,-363
5,366,298850,1602,-16219,-1441,-62,-614,-335
5,367,298855,1445,-16200,-1153,-51,-614,-312
5,368,298860,1353,-16245,-1126,-42,-635,-288
5,369,298865,1238,-16267,-1051,-36,-656,-267
5,370,298870,1125,-16365,-1054,-33,-673,-251
5,371,298875,1015,-16558,-1268,-24,-696,-233
5,372,298880,1014,-16780,-1443,-9,-713,-209
5,373,298885,953,-16963,-1421,-1,-726,-191
5,374,298890,1032,-17053,-1378,9,-752,-179
5,375,298895,1281,-17030,-1411,21,-783,-166
5,376,298900,1473,-16942,-1451,31,-817,-154
5,377,298905,1824,-16842,-1326,41,-854,-136
5,378,298910,2006,-16734,-1222,53,-898,-110
5,379,298915,2158,-16742,-1463,65,-942,-81
5,380,298920,2123,-16750,-1268,70,-943,-63
5,381,298925,2174,-16816,-1345,77,-964,-48
5,382,298930,2119,-16737,-931,89,-971,-35
5,383,298935,2306,-16661,-1273,97,-1001,-17
5,384,298940,2255,-16530,-1062,102,-977,-4
5,385,298945,2276,-16505,-1109,107,-981,12
5,386,298950,2127,-16405,-807,109,-972,29
5,387,298955,2061,-16379,-1148,118,-990,47
5,388,298960,1932,-16281,-1186,127,-966,55
5,389,298965,1885,-16226,-1042,133,-936,59
5,390,298970,1774,-16152,-889,134,-920,69
5,391,298975,1645,-16200,-991,140,-932,81
5,392,298980,1475,-16269,-1046,143,-926,89
5,393,298985,1344,-16427,-968,147,-913,95
5,394,298990,1204,-16563,-954,153,-910,95
5,395,298995,1127,-16663,-924,162,-915,96
5,396,299000,1167,-16683,-914,166,-924,100
5,397,299005,1245,-16619,-846,173,-941,111
5,398,299010,1291,-16592,-937,179,-958,119
5,399,299015,1185,-16456,-952,179,-968,120
5,400,299020,1017,-16425,-864,185,-973,126
5,401,299025,937,-16443,-957,190,-989,129
5,402,299030,904,-16468,-895,194,-988,131
5,403,299035,911,-16554,-872,196,-987,130
5,404,299040,1123,-16518,-927,200,-993,122
5,405,299045,1349,-16411,-906,204,-986,119
5,406,299050,1455,-16342,-838,209,-975,123
5,407,299055,1582,-16290,-975,212,-968,125
5,408,299060,1587,-16270,-1147,211,-952,126
5,409,299065,1499,-16143,-1174,210,-932,124
5,410,299070,1409,-15989,-1262,214,-915,121
5,411,299075,1290,-15891,-1235,222,-895,117
5,412,299080,1225,-15829,-1279,230,-862,113
5,413,299085,1267,-15796,-1138,232,-826,110
5,414,299090,1206,-15682,-793,226,-809,104
5,415,299095,1207,-15544,-735,220,-826,98
5,416,299100,1285,-15511,-1045,227,-855,95
5,417,299105,1444,-15532,-1438,233,-867,93
5,418,299110,1582,-15494,-1596,237,-853,87
5,419,299115,1626,-15448,-1571,239,-846,85
5,420,299120,1696,-15417,-1565,238,-864,84
5,421,299125,1800,-15544,-1675,249,-889,85
5,422,299130,1864,-15697,-1782,259,-896,79
5,423,299135,1996,-15822,-1781,262,-877,75
5,424,299140,2181,-15854,-1559,265,-853,75
5,425,299145,2360,-15861,-1506,260,-842,71
5,426,299150,2659,-15910,-1756,261,-847,72
5,427,299155,3254,-15908,-2350,265,-837,69
5,428,299160,3528,-15899,-2626,272,-825,70
5,429,299165,3868,-15835,-2701,280,-816,78
5,430,299170,4098,-15707,-2444,287,-798,83
5,431,299175,4132,-15526,-2051,299,-802,90
5,432,299180,4137,-15425,-1722,307,-830,102
5,433,299185,4218,-15317,-1617,303,-870,110
5,434,299190,4334,-15197,-1639,301,-919,118
5,435,299195,4428,-15253,-1645,297,-980,120
5,436,299200,4831,-15371,-2777,303,-1072,126
5,437,299205,5023,-15637,-3042,315,-1066,138
5,438,299210,5208,-15826,-3135,319,-1065,148
5,439,299215,5355,-15970,-3234,327,-1097,157
5,440,299220,5520,-16355,-3315,339,-1131,175
5,441,299225,5925,-16347,-3920,347,-1158,171
5,442,299230,6299,-16349,-3767,352,-1125,174
5,443,299235,6808,-16337,-4032,357,-1122,185
5,444,299240,7251,-16279,-4027,368,-1120,197
5,445,299245,7673,-16176,-4003,378,-1129,212
5,446,299250,7985,-16194,-4630,390,-1144,237
5,447,299255,8096,-16496,-4665,405,-1076,261
5,448,299260,8135,-16403,-4349,408,-990,257
5,449,299265,8176,-16448,-4219,411,-937,268
5,450,299270,8338,-16703,-4629,419,-907,292
5,451,299275,8632,-16760,-5190,417,-845,298
5,452,299280,8835,-16791,-5518,421,-727,304
5,453,299285,9117,-16861,-5675,433,-605,313
5,454,299290,9406,-17074,-5356,448,-482,327
5,455,299295,9682,-16975,-5116,461,-377,333
5,456,299300,9816,-16942,-4515,467,-273,351
5,457,299305,9861,-16832,-4154,469,-194,371
5,458,299310,9881,-16699,-3874,468,-111,386
5,459,299315,9925,-16451,-3623,459,-37,396
5,460,299320,9812,-16323,-3472,455,19,412
5,461,299325,9920,-16216,-3844,454,47,429
5,462,299330,9961,-16096,-3988,457,109,444
5,463,299335,9859,-16236,-3812,462,185,468
5,464,299340,9649,-16132,-3690,462,233,481
5,465,299345,9509,-16078,-3391,459,283,492
5,466,299350,9173,-16161,-3092,460,339,510
5,467,299355,8827,-16307,-2783,457,382,520
5,468,299360,8460,-16503,-2329,449,435,531
5,469,299365,8130,-16686,-2021,438,486,545
5,470,299370,7810,-16727,-1711,426,521,550
5,471,299375,7522,-16690,-1508,415,545,554
5,472,299380,7396,-16653,-1485,404,565,557
5,473,299385,7175,-16676,-1251,392,596,566
5,474,299390,6937,-16733,-936,383,622,573
5,475,299395,6648,-16761,-692,372,635,581
5,476,299400,6321,-16722,-322,354,642,579
5,477,299405,5950,-16647,-130,339,635,580
5,478,299410,5546,-16689,10,323,629,580
5,479,299415,5068,-16796,147,307,637,585
5,480,299420,4613,-16789,312,291,649,585
5,481,299425,4044,-16789,725,273,663,579
5,482,299430,3579,-16735,945,251,657,568
5,483,299435,3333,-16725,923,232,633,552
5,484,299440,3236,-16662,824,208,613,534
5,485,299445,3281,-16568,740,190,601,519
5,486,299450,3298,-16612,795,175,586,512
5,487,299455,3314,-16621,853,159,562,505
5,488,299460,3251,-16574,1007,145,533,496
5,489,299465,3012,-16534,1106,127,500,483
5,490,299470,2900,-16507,962,112,466,471
5,491,299475,2859,-16563,739,95,440,459
5,492,299480,2683,-16614,429,75,425,442
5,493,299485,2512,-16550,167,54,414,429
5,494,299490,2458,-16541,-70,49,410,417
5,495,299495,2410,-16703,-199,44,432,400
5,496,299500,2388,-16857,31,34,476,382
5,497,299505,2372,-16956,530,23,526,366
5,498,299510,2331,-16920,894,9,561,345
5,499,299515,2205,-16828,801,-15,574,327
5,500,299520,1891,-16726,97,-49,634,305
5,501,299525,1488,-16787,-264,-59,690,292
5,502,299530,946,-16684,-438,-65,748,272
5,503,299535,564,-16608,-492,-71,806,249
5,504,299540,261,-16449,-493,-80,860,223
5,505,299545,37,-16306,-361,-89,908,197
5,506,299550,-212,-16191,-332,-100,953,173
5,507,299555,-322,-16257,-279,-109,990,153
5,508,299560,-450,-16331,-200,-114,1015,133
5,509,299565,-568,-16385,-153,-121,1020,109
5,510,299570,-577,-16298,-161,-128,1015,82
5,511,299575,-496,-16164,-194,-132,1002,61
5,512,299580,-249,-16080,-327,-138,983,42
5,513,299585,217,-16006,-481,-143,969,20
5,514,299590,673,-15834,-561,-150,961,1
5,515,299595,946,-15762,-557,-153,940,-14
5,516,299600,1009,-15790,-479,-150,913,-15
5,517,299605,925,-15907,-675,-150,883,-15
5,518,299610,655,-16057,-515,-157,876,-20
5,519,299615,213,-16229,-98,-161,867,-32
5,520,299620,-332,-16410,269,-165,827,-45
5,521,299625,-638,-16664,239,-165,768,-59
5,522,299630,-812,-16925,304,-171,727,-74
5,523,299635,-1015,-17140,221,-182,688,-90
5,524,299640,-1348,-17214,183,-188,646,-104
5,525,299645,-1721,-17178,16,-194,589,-120
5,526,299650,-1879,-17192,-377,-198,531,-129
5,527,299655,-1905,-17119,-766,-198,485,-141
5,528,299660,-1609,-16849,-1132,-197,465,-168
5,529,299665,-900,-16402,-1502,-199,449,-195
5,530,299670,224,-15687,-1859,-199,430,-216
5,531,299675,1332,-14961,-2277,-196,415,-223
5,532,299680,2298,-14420,-2483,-189,417,-219
5,533,299685,2811,-14256,-2291,-182,436,-208
5,534,299690,2781,-14432,-1733,-172,453,-190
5,535,299695,2525,-14951,-1123,-166,446,-170
5,536,299700,2099,-15613,-657,-167,422,-166
5,537,299705,1624,-16246,-426,-176,400,-171
5,538,299710,1090,-16652,-285,-183,384,-177
5,539,299715,511,-16992,-524,-185,359,-177
5,540,299720,31,-17337,-951,-183,345,-169
5,541,299725,-366,-17550,-1174,-187,348,-171
5,542,299730,-863,-17578,-1350,-190,348,-183
5,543,299735,-1134,-17572,-1656,-188,344,-201
5,544,299740,-1132,-17490,-1823,-184,351,-217
5,545,299745,-786,-17184,-1975,-173,375,-224
5,546,299750,-327,-16700,-1831,-166,420,-233
5,547,299755,84,-16016,-1460,-166,449,-239
5,548,299760,437,-15306,-851,-166,457,-243
5,549,299765,812,-14757,-479,-158,444,-236
5,550,299770,817,-14811,246,-147,437,-222
5,551,299775,654,-15154,1069,-145,420,-217
5,552,299780,404,-15500,1158,-160,376,-222
5,553,299785,-64,-15960,1045,-179,360,-229
5,554,299790,-804,-16284,1049,-192,379,-234
5,555,299795,-1699,-16548,941,-199,380,-231
5,556,299800,-2572,-16964,561,-205,359,-225
5,557,299805,-3164,-17216,-114,-212,335,-238
5,558,299810,-3185,-17355,-734,-214,335,-262
5,559,299815,-2877,-17215,-1244,-213,364,-300
5,560,299820,-2371,-16901,-1231,-209,397,-331
5,561,299825,-1788,-16600,-965,-208,407,-340
5,562,299830,-1344,-16505,-848,-199,390,-334
5,563,299835,-1478,-16799,-171,-195,392,-316
5,564,299840,-1512,-16280,259,-205,385,-348
5,565,299845,-1649,-16315,1356,-206,402,-353
5,566,299850,-1724,-16334,1819,-212,354,-355
5,567,299855,-1637,-16286,2285,-229,294,-378
5,568,299860,-1784,-16474,2407,-241,266,-387
5,569,299865,-2356,-17010,2627,-249,266,-376
5,570,299870,-2932,-17439,2728,-267,260,-385
5,571,299875,-3730,-17555,2793,-292,252,-415
5,572,299880,-4226,-17398,2330,-311,215,-450
5,573,299885,-4415,-17312,1781,-323,197,-480
5,574,299890,-4413,-17120,1280,-337,259,-508
5,575,299895,-4424,-16970,1430,-345,282,-525
5,576,299900,-4206,-16739,1184,-353,275,-551
5,577,299905,-3875,-16316,782,-370,264,-584
5,578,299910,-3348,-15713,593,-386,254,-619
5,579,299915,-2204,-15341,164,-387,244,-633
5,580,299920,-890,-15494,-106,-381,254,-641
5,581,299925,299,-15486,66,-383,263,-656
5,582,299930,945,-15822,981,-388,251,-640
5,583,299935,1602,-15928,1028,-390,183,-636
5,584,299940,1708,-16441,1310,-394,157,-619
5,585,299945,1281,-16757,1458,-408,155,-608
5,586,299950,263,-17302,2119,-421,183,-583
5,587,299955,-824,-17545,1697,-438,160,-585
5,588,299960,-1903,-17883,1300,-456,166,-593
5,589,299965,-2667,-17838,326,-469,175,-621
5,590,299970,-3280,-17767,87,-476,242,-643
5,591,299975,-3374,-17385,-93,-468,289,-652
5,592,299980,-3499,-17516,-81,-464,316,-666
5,593,299985,-2776,-16696,-454,-478,331,-728
5,594,299990,-2316,-16374,-53,-476,410,-729
5,595,299995,-1791,-15952,-571,-476,429,-728
5,596,300000,-1133,-15541,-998,-484,470,-733
5,597,300005,-283,-15319,-1834,-487,554,-729
5,598,300010,-286,-14850,-3786,-480,698,-720
5,599,300015,-1623,-12269,-10637,-458,1031,-693
5,600,300020,-2584,-11964,-24024,-403,2078,-646
5,601,300025,482,-14879,-30955,-264,4622,-833
5,602,300030,7762,-18797,-31172,63,8700,-866
5,603,300035,8776,-20193,-14780,478,12783,-659
5,604,300040,1804,-18852,14594,638,13442,-568
5,605,300045,-2010,-17032,26038,777,9726,-335
5,606,300050,44,-17890,11807,865,5275,71
5,607,300055,1422,-19868,3680,816,4007,134
5,608,300060,2269,-18841,2449,512,4273,-143
5,609,300065,1258,-17662,11880,359,4183,-200
5,610,300070,2149,-18080,9550,470,2154,46
5,611,300075,1081,-16918,4420,625,-31,208
5,612,300080,168,-17850,-3412,794,-1612,414
5,613,300085,144,-18213,-4407,819,-1879,343
5,614,300090,-371,-17220,2871,734,-1578,134
5,615,300095,-976,-16146,8642,642,-1980,77
5,616,300100,-1491,-15902,11781,733,-3010,237
5,617,300105,-322,-18341,4576,732,-4335,445
5,618,300110,-487,-17229,-80,635,-4486,304
5,619,300115,-2294,-18414,-814,566,-4024,277
5,620,300120,-2252,-17278,3237,567,-3473,154
5,621,300125,-2699,-18019,5454,609,-3443,164
5,622,300130,-1983,-16940,3538,580,-3705,138
5,623,300135,-914,-18242,1286,555,-3503,180
5,624,300140,-910,-17231,2496,456,-2854,52
5,625,300145,-1094,-16617,2625,396,-2424,16
5,626,300150,-1237,-17208,1918,375,-2113,44
5,627,300155,-1559,-16755,518,333,-1723,-15
5,628,300160,-1778,-16917,-6,297,-1216,-49
5,629,300165,-2361,-16787,-1299,270,-704,-97
5,630,300170,-2272,-16540,-676,270,-133,-150
5,631,300175,-2465,-16401,237,237,405,-196
5,632,300180,-2461,-16266,1247,204,815,-230
5,633,300185,-1961,-16319,1875,181,1107,-246
5,634,300190,-1427,-16361,2530,131,1370,-282
5,635,300195,-1614,-15789,2789,85,1524,-316
5,636,300200,-167,-16541,602,113,1588,-271
5,637,300205,-466,-15877,3540,56,1982,-344
5,638,300210,-276,-15969,3659,48,1942,-333
5,639,300215,15,-15882,3932,41,1809,-321
5,640,300220,423,-16001,3191,23,1677,-316
5,641,300225,444,-15830,4165,-9,1606,-326
5,642,300230,1092,-15793,3401,-14,1378,-312
5,643,300235,1220,-15759,3300,-40,1270,-303
5,644,300240,1458,-15598,3791,-46,1105,-290
5,645,300245,1689,-15766,3303,-40,896,-279
5,646,300250,1368,-15479,3876,-68,741,-282
5,647,300255,1343,-15560,3267,-89,236,-243
5,648,300260,1350,-15717,2491,-104,34,-224
5,649,300265,1294,-15681,2566,-112,-75,-224
5,650,300270,1378,-15756,2793,-105,-210,-217
5,651,300275,1476,-15779,2592,-114,-361,-207
5,652,300280,1565,-15736,2282,-124,-471,-194
5,653,300285,1646,-15804,2393,-133,-531,-186
5,654,300290,2072,-16040,1648,-163,-576,-184
5,655,300295,1812,-15587,1951,-150,-507,-188
5,656,300300,2678,-15982,2032,-123,-572,-137
5,657,300305,3284,-15461,1260,-188,-640,-172
5,658,300310,3458,-15531,318,-180,-676,-130
5,659,300315,4257,-15352,-778,-185,-597,-116
5,660,300320,4030,-15138,1144,-167,-396,-104
5,661,300325,4160,-15032,386,-166,-465,-76
5,662,300330,3889,-15194,293,-135,-456,-39
5,663,300335,3833,-15519,-580,-132,-399,-22
5,664,300340,3487,-15518,242,-143,-264,-28
5,665,300345,3335,-15690,255,-126,-252,-9
5,666,300350,3060,-15751,363,-105,-295,10
5,667,300355,3087,-15965,-563,-78,-378,39
5,668,300360,2884,-15962,-620,-64,-363,44
5,669,300365,2874,-16001,-690,-54,-360,51
5,670,300370,2867,-16029,-598,-39,-344,50
5,671,300375,2972,-16065,-204,-31,-326,51
5,672,300380,3170,-16040,-297,-23,-337,58
5,673,300385,3466,-16160,-499,-11,-335,73
5,674,300390,3616,-16275,-283,-10,-283,74
5,675,300395,3421,-16182,51,-7,-251,79
5,676,300400,3739,-16489,-804,14,-263,101
5,677,300405,3746,-16435,-312,11,-144,89
5,678,300410,3745,-16427,-10,7,-84,89
5,679,300415,3869,-16430,-133,17,-84,101
5,680,300420,4039,-16451,-424,25,-49,114
5,681,300425,3871,-16407,-233,17,33,113
5,682,300430,3711,-16455,-4,20,93,122
5,683,300435,3414,-16465,174,21,135,129
5,684,300440,3137,-16471,10,21,154,136
5,685,300445,3009,-16331,-24,18,181,132
5,686,300450,3066,-16257,-276,18,201,130
5,687,300455,3047,-16197,-290,21,248,126
5,688,300460,3117,-16220,-5,23,291,128
5,689,300465,3138,-16185,581,24,304,133
5,690,300470,3222,-16152,645,27,253,145
5,691,300475,3264,-16110,555,23,206,151
5,692,300480,3410,-16078,238,17,190,154
5,693,300485,3505,-15950,806,14,228,148
5,694,300490,3697,-15961,669,11,188,153
5,695,300495,3670,-15917,906,14,155,165
5,696,300500,3578,-16023,698,16,100,180
5,697,300505,3375,-16076,775,13,80,188
5,698,300510,3234,-16126,733,10,70,190
5,699,300515,3058,-16109,1120,4,75,186
5,700,300520,2973,-16183,986,0,36,189
5,701,300525,2890,-16209,863,0,21,195
5,702,300530,2770,-16253,887,-4,30,194
5,703,300535,2522,-16181,1012,-10,40,194
5,704,300540,2340,-16203,898,-15,23,196
5,705,300545,2128,-16234,751,-15,9,197
5,706,300550,1973,-16256,595,-21,8,190
5,707,300555,1941,-16275,588,-23,12,183
5,708,300560,2002,-16286,590,-24,3,177
5,709,300565,2061,-16270,666,-27,-8,175
5,710,300570,2158,-16226,699,-26,-25,177
5,711,300575,2315,-16252,704,-26,-51,173
5,712,300580,2450,-16257,654,-28,-73,171
5,713,300585,2466,-16293,609,-31,-94,170
5,714,300590,2492,-16367,557,-31,-116,172
5,715,300595,2535,-16458,551,-29,-137,172
5,716,300600,2565,-16469,430,-30,-152,174
5,717,300605,2570,-16440,415,-30,-153,173
5,718,300610,2633,-16435,418,-33,-147,168
5,719,300615,2707,-16363,344,-32,-144,166
5,720,300620,2513,-16294,286,-34,-114,166
5,721,300625,2365,-16243,243,-36,-98,166
5,722,300630,2143,-16228,200,-36,-72,161
5,723,300635,1938,-16218,99,-35,-44,157
5,724,300640,1736,-16189,136,-35,-15,150
5,725,300645,1587,-16153,184,-35,13,145
5,726,300650,1546,-16173,177,-32,36,139
5,727,300655,1598,-16170,252,-32,60,128
5,728,300660,1616,-16139,459,-34,75,121
5,729,300665,1697,-16055,531,-33,76,117
5,730,300670,1827,-16045,614,-34,69,113
5,731,300675,1897,-16096,754,-35,62,110
5,732,300680,1960,-16149,718,-32,50,112
5,733,300685,1998,-16180,830,-34,37,112
5,734,300690,2002,-16227,830,-38,15,104
5,735,300695,2015,-16300,743,-39,-9,103
5,736,300700,2065,-16295,710,-35,-26,100
5,737,300705,2108,-16287,754,-29,-45,101
5,738,300710,2082,-16275,802,-30,-59,102
5,739,300715,2067,-16289,867,-36,-76,104
5,740,300720,2045,-16304,864,-37,-94,100
5,741,300725,2016,-16339,783,-39,-112,98
5,742,300730,1968,-16357,603,-38,-121,95
5,743,300735,1930,-16338,551,-41,-118,94
5,744,300740,1845,-16327,475,-38,-114,91
5,745,300745,1685,-16413,436,-37,-110,89
5,746,300750,1589,-16449,409,-38,-104,86
5,747,300755,1464,-16438,377,-37,-98,83
5,748,300760,1402,-16477,294,-35,-92,78
5,749,300765,1456,-16510,241,-36,-79,69
5,750,300770,1588,-16502,223,-36,-68,63
5,751,300775,1676,-16531,236,-33,-59,62
5,752,300780,1815,-16558,317,-31,-51,60
5,753,300785,1876,-16608,440,-28,-46,57
5,754,300790,1901,-16696,497,-31,-42,55
5,755,300795,1971,-16727,514,-33,-39,53
5,756,300800,2018,-16725,579,-35,-35,49
5,757,300805,2047,-16754,530,-34,-28,48
5,758,300810,2071,-16753,440,-33,-23,48
5,759,300815,2080,-16729,439,-30,-14,49
5,760,300820,2092,-16744,504,-30,0,47
5,761,300825,2195,-16687,507,-31,11,41
5,762,300830,2205,-16591,529,-33,16,38
5,763,300835,2150,-16542,391,-35,20,41
5,764,300840,2098,-16571,306,-33,23,44
5,765,300845,2012,-16582,236,-35,29,43
5,766,300850,1798,-16613,282,-33,34,46
5,767,300855,1671,-16596,305,-32,37,40
5,768,300860,1703,-16549,261,-28,35,34
5,769,300865,1705,-16545,262,-23,28,28
5,770,300870,1841,-16495,350,-22,28,28
5,771,300875,1948,-16491,451,-23,26,28
5,772,300880,1906,-16478,529,-21,15,25
5,773,300885,1886,-16462,537,-22,-1,28
5,774,300890,1836,-16485,441,-24,-20,29
5,775,300895,1776,-16514,374,-22,-31,28
5,776,300900,1803,-16541,213,-19,-36,25
5,777,300905,1879,-16540,152,-19,-40,23
5,778,300910,1967,-16478,187,-14,-41,21
5,779,300915,2039,-16444,237,-10,-43,23
5,780,300920,2119,-16441,304,-7,-45,25
5,781,300925,2154,-16419,390,-7,-37,24
5,782,300930,2145,-16402,438,-9,-28,21
5,783,300935,2047,-16423,337,-10,-25,24
5,784,300940,1915,-16528,210,-11,-24,26
5,785,300945,1755,-16585,116,-11,-11,27
5,786,300950,1562,-16639,10,-11,10,27
5,787,300955,1505,-16680,109,-4,32,23
5,788,300960,1505,-16630,247,-1,48,14
5,789,300965,1561,-16567,307,1,53,10
5,790,300970,1737,-16455,415,2,52,5
5,791,300975,1827,-16390,463,2,50,5
5,792,300980,1868,-16373,397,2,45,11
5,793,300985,1711,-16323,418,2,32,13
5,794,300990,1648,-16326,350,6,17,15
5,795,300995,1663,-16325,322,8,5,15
5,796,301000,1717,-16296,275,11,0,12
5,797,301005,1903,-16267,268,13,-2,5
5,798,301010,2031,-16311,319,14,-3,8
5,799,301015,2176,-16269,364,14,-6,12
5,800,301020,2250,-16191,409,16,-9,14
5,801,301025,2232,-16180,409,15,-6,17
5,802,301030,2268,-16178,366,18,0,20
5,803,301035,2166,-16197,367,15,16,21
5,804,301040,2066,-16305,244,13,30,23
5,805,301045,1906,-16352,123,15,48,28
5,806,301050,1801,-16410,6,17,73,27
5,807,301055,1719,-16440,25,17,104,23
5,808,301060,1627,-16468,91,17,133,20
5,809,301065,1592,-16443,198,17,159,20
5,810,301070,1597,-16504,265,17,178,15
5,811,301075,1591,-16515,314,19,185,18
5,812,301080,1576,-16468,286,17,180,18
5,813,301085,1556,-16481,299,17,177,16
5,814,301090,1578,-16508,318,18,168,18
5,815,301095,1610,-16503,356,21,152,18
5,816,301100,1687,-16493,452,24,127,21
5,817,301105,1803,-16503,539,25,99,22
5,818,301110,1921,-16483,563,27,70,24
5,819,301115,2018,-16426,662,27,41,26
5,820,301120,2135,-16405,705,26,11,33
5,821,301125,2136,-16386,673,25,-18,36
5,822,301130,2172,-16386,592,24,-46,39
5,823,301135,2201,-16377,444,25,-67,46
5,824,301140,2192,-16385,372,27,-79,49
5,825,301145,2187,-16320,338,30,-78,53
5,826,301150,2065,-16324,326,29,-72,56
5,827,301155,1955,-16363,409,30,-69,58
5,828,301160,1833,-16376,370,28,-62,61
5,829,301165,1717,-16395,310,28,-47,61
5,830,301170,1599,-16421,280,28,-33,61
5,831,301175,1607,-16442,288,30,-16,61
5,832,301180,1629,-16396,252,28,4,58
5,833,301185,1708,-16379,271,29,19,56
5,834,301190,1791,-16337,314,30,34,58
5,835,301195,1878,-16344,359,29,46,61
5,836,301200,1940,-16282,409,28,54,59
5,837,301205,1954,-16222,417,28,64,60
5,838,301210,1996,-16198,392,27,68,65
5,839,301215,2030,-16171,357,29,77,66
5,840,301220,2013,-16177,333,29,86,70
5,841,301225,2032,-16129,314,27,98,71
5,842,301230,2038,-16080,375,31,113,73
5,843,301235,1996,-16056,480,31,128,74
5,844,301240,2014,-16027,642,28,141,74
5,845,301245,1998,-15993,729,27,150,77
5,846,301250,2010,-16004,734,26,160,80
5,847,301255,2037,-15992,781,25,172,80
5,848,301260,2049,-16034,741,24,190,82
5,849,301265,2064,-16017,738,21,205,83
5,850,301270,2022,-16078,699,20,223,84
5,851,301275,1938,-16168,673,18,247,90
5,852,301280,1718,-16208,676,18,267,92
5,853,301285,1399,-16287,556,13,289,91
5,854,301290,1107,-16331,322,13,306,92
5,855,301295,839,-16365,219,11,318,87
5,856,301300,758,-16361,70,12,329,77
5,857,301305,797,-16345,-45,14,337,70
5,858,301310,860,-16313,23,20,340,65
5,859,301315,1000,-16285,215,23,334,65
5,860,301320,1120,-16285,381,28,319,66
5,861,301325,1220,-16309,558,27,292,70
5,862,301330,1293,-16360,664,26,256,69
5,863,301335,1406,-16408,634,26,214,69
5,864,301340,1524,-16425,582,24,175,67
5,865,301345,1608,-16390,577,26,142,68
5,866,301350,1660,-16472,590,30,111,71
5,867,301355,1730,-16616,676,32,53,81
5,868,301360,1653,-16675,698,32,25,82
5,869,301365,1652,-16775,630,34,2,83
5,870,301370,1631,-16872,497,30,-7,82
5,871,301375,1574,-16898,367,27,-14,79
5,872,301380,1561,-16882,328,28,-14,83
5,873,301385,1510,-16870,367,30,-11,82
5,874,301390,1486,-16835,364,32,-2,83
5,875,301395,1368,-16795,439,33,12,80
5,876,301400,1317,-16743,518,31,16,81
5,877,301405,1304,-16708,523,29,21,76
5,878,301410,1231,-16634,522,28,25,77
5,879,301415,1270,-16589,451,27,30,76
5,880,301420,1297,-16543,466,29,36,74
5,881,301425,1330,-16494,524,30,42,70
5,882,301430,1333,-16478,642,30,47,70
5,883,301435,1321,-16456,704,29,46,70
5,884,301440,1341,-16474,736,28,37,69
5,885,301445,1348,-16510,731,28,31,69
5,886,301450,1357,-16502,727,28,25,68
5,887,301455,1366,-16472,723,31,19,70
5,888,301460,1377,-16468,643,29,15,71
5,889,301465,1384,-16494,665,28,8,70
5,890,301470,1377,-16497,689,28,5,66
5,891,301475,1403,-16502,688,26,4,64
5,892,301480,1404,-16489,676,29,-2,63
5,893,301485,1356,-16526,687,27,-7,65
5,894,301490,1396,-16545,623,29,-10,66
5,895,301495,1359,-16537,603,29,-17,66
5,896,301500,1333,-16552,556,26,-18,65
5,897,301505,1242,-16601,473,25,-19,64
5,898,301510,1252,-16671,468,27,-17,63
5,899,301515,1209,-16723,422,28,-12,62
5,900,301520,1163,-16776,334,28,-8,61
5,901,301525,1200,-16754,336,31,-6,58
5,902,301530,1282,-16759,376,32,2,52
5,903,301535,1353,-16764,435,31,11,50
5,904,301540,1467,-16754,478,35,12,51
5,905,301545,1532,-16737,584,36,13,50
5,906,301550,1599,-16735,659,34,15,51
5,907,301555,1637,-16708,697,34,14,51
5,908,301560,1642,-16689,762,37,12,52
5,909,301565,1657,-16657,778,36,13,53
5,910,301570,1603,-16616,877,32,16,54
5,911,301575,1526,-16576,855,33,16,52
5,912,301580,1448,-16604,840,32,15,51
5,913,301585,1342,-16600,817,30,17,51
5,914,301590,1206,-16616,780,27,22,50
5,915,301595,1113,-16641,708,28,21,49
5,916,301600,1078,-16561,647,28,25,48
5,917,301605,1013,-16485,651,29,30,44
5,918,301610,1012,-16482,692,29,38,38
5,919,301615,1063,-16428,735,27,44,36
5,920,301620,1025,-16421,777,30,42,38
5,921,301625,976,-16428,822,31,40,37
5,922,301630,934,-16396,799,28,34,36
5,923,301635,917,-16407,755,29,34,34
5,924,301640,999,-16353,829,31,32,28
5,925,301645,984,-16339,827,28,27,25
5,926,301650,979,-16329,845,28,23,24
5,927,301655,1007,-16303,808,27,14,22
5,928,301660,1038,-16324,707,27,6,21
5,929,301665,977,-16338,711,29,5,20
5,930,301670,973,-16352,657,30,5,18
5,931,301675,998,-16331,615,31,1,17
5,932,301680,1040,-16368,640,28,4,12
5,933,301685,1070,-16343,587,29,11,10
5,934,301690,1116,-16322,595,30,18,7
5,935,301695,1065,-16342,676,31,23,9
5,936,301700,1069,-16352,652,33,29,7
5,937,301705,988,-16421,668,32,35,5
5,938,301710,927,-16434,682,33,38,4
5,939,301715,895,-16385,741,32,39,2
5,940,301720,967,-16245,809,31,35,-3
5,941,301725,1040,-16246,822,32,29,-6
5,942,301730,1047,-16240,881,31,17,-7
5,943,301735,1089,-16243,869,30,3,-4
5,944,301740,1137,-16271,786,32,-6,-5
5,945,301745,1169,-16289,758,31,-13,-9
5,946,301750,1129,-16291,745,30,-18,-10
5,947,301755,1185,-16285,757,33,-23,-10
5,948,301760,1184,-16285,775,32,-27,-11
5,949,301765,1205,-16281,862,28,-26,-11
5,950,301770,1173,-16236,889,30,-24,-11
5,951,301775,1141,-16263,872,28,-22,-12
5,952,301780,1113,-16218,789,27,-19,-13
5,953,301785,1136,-16254,741,24,-15,-12
5,954,301790,1076,-16225,781,25,-4,-14
5,955,301795,1020,-16247,780,25,9,-16
5,956,301800,972,-16267,807,24,23,-15
5,957,301805,952,-16312,880,23,29,-19
5,958,301810,973,-16331,878,21,32,-22
5,959,301815,973,-16313,853,17,37,-20
5,960,301820,957,-16342,857,17,36,-22
5,961,301825,977,-16405,772,13,36,-25
5,962,301830,1005,-16510,700,13,33,-24
5,963,301835,1095,-16516,720,14,29,-24
5,964,301840,1188,-16534,750,14,26,-28
5,965,301845,1254,-16494,825,17,21,-26
5,966,301850,1324,-16484,961,14,19,-25
5,967,301855,1403,-16501,1062,11,9,-26
5,968,301860,1432,-16500,1060,8,0,-26
5,969,301865,1378,-16487,1019,7,-11,-21
5,970,301870,1317,-16480,924,5,-17,-21
5,971,301875,1261,-16498,856,5,-16,-21
5,972,301880,1227,-16530,834,2,-11,-21
5,973,301885,1179,-16506,893,1,-7,-19
5,974,301890,1168,-16441,905,-1,-3,-20
5,975,301895,1153,-16382,988,-6,0,-22
5,976,301900,1163,-16327,1042,-5,5,-22
5,977,301905,1200,-16321,1056,-10,9,-25
5,978,301910,1243,-16277,1034,-11,14,-23
5,979,301915,1220,-16274,1025,-10,14,-19
5,980,301920,1155,-16302,997,-17,17,-20
5,981,301925,1124,-16276,912,-19,15,-18
5,982,301930,1103,-16322,820,-19,14,-20
5,983,301935,1072,-16357,812,-19,12,-20
5,984,301940,1142,-16379,757,-23,17,-23
5,985,301945,1172,-16438,733,-22,17,-22
5,986,301950,1238,-16477,730,-22,14,-21
5,987,301955,1338,-16492,794,-22,9,-18
5,988,301960,1352,-16489,816,-23,-1,-16
5,989,301965,1399,-16474,820,-28,-9,-17
5,990,301970,1502,-16493,798,-27,-14,-19
5,991,301975,1469,-16524,811,-26,-16,-15
5,992,301980,1425,-16555,847,-29,-22,-12
5,993,301985,1462,-16512,831,-32,-25,-8
5,994,301990,1379,-16527,846,-32,-28,-8
5,995,301995,1302,-16560,834,-35,-28,-7
5,996,302000,1271,-16546,829,-35,-24,-4
5,997,302005,1250,-16557,804,-37,-26,-3
5,998,302010,1279,-16515,747,-37,-21,-8
5,999,302015,1282,-16458,714,-39,-18,-5
