event_id,seq,ts_ms,ax,ay,az,gx,gy,gz
16,0,724356,-1635,-16028,-3306,-2,24,3
16,1,724361,-1623,-16053,-3241,-5,24,3
16,2,724366,-1668,-16001,-3222,-4,16,5
16,3,724371,-1663,-15972,-3232,-1,7,8
16,4,724376,-1674,-15953,-3256,-5,3,6
16,5,724381,-1704,-15929,-3273,-4,-4,5
16,6,724386,-1703,-15953,-3268,-1,-9,5
16,7,724391,-1674,-15947,-3289,0,-10,3
16,8,724396,-1624,-15937,-3311,-3,-13,2
16,9,724401,-1624,-15936,-3330,-3,-14,2
16,10,724406,-1652,-15942,-3382,-1,-11,3
16,11,724411,-1644,-15963,-3319,0,-11,3
16,12,724416,-1647,-15952,-3332,1,-6,2
16,13,724421,-1640,-15969,-3333,1,-3,2
16,14,724426,-1583,-15977,-3267,0,-3,3
16,15,724431,-1584,-15957,-3226,-1,-4,-1
16,16,724436,-1609,-15963,-3256,0,-7,-2
16,17,724441,-1655,-15961,-3324,1,-14,-2
16,18,724446,-1643,-15990,-3333,5,-13,-2
16,19,724451,-1631,-16037,-3331,4,-9,-1
16,20,724456,-1646,-16010,-3317,2,-9,-1
16,21,724461,-1686,-15976,-3341,1,-7,-5
16,22,724466,-1661,-15992,-3324,0,-2,-6
16,23,724471,-1626,-16006,-3332,3,2,-4
16,24,724476,-1654,-16057,-3327,4,8,-6
16,25,724481,-1694,-16056,-3262,6,9,-9
16,26,724486,-1691,-16031,-3224,4,9,-11
16,27,724491,-1683,-16012,-3221,2,9,-11
16,28,724496,-1654,-15987,-3196,4,4,-10
16,29,724501,-1637,-15978,-3217,3,-2,-9
16,30,724506,-1632,-16041,-3231,6,-12,-9
16,31,724511,-1614,-16019,-3262,5,-18,-10
16,32,724516,-1598,-16047,-3223,5,-20,-9
16,33,724521,-1547,-16043,-3287,4,-19,-9
16,34,724526,-1570,-16052,-3316,3,-16,-13
16,35,724531,-1594,-16030,-3273,3,-16,-12
16,36,724536,-1595,-16002,-3302,4,-16,-11
16,37,724541,-1636,-16008,-3298,3,-12,-11
16,38,724546,-1656,-16005,-3247,4,-13,-10
16,39,724551,-1622,-16002,-3228,4,-11,-10
16,40,724556,-1599,-15967,-3252,3,-8,-10
16,41,724561,-1608,-16008,-3290,3,-6,-11
16,42,724566,-1598,-16000,-3286,5,-10,-11
16,43,724571,-1640,-15977,-3259,5,-13,-13
16,44,724576,-1626,-15985,-3274,5,-15,-12
16,45,724581,-1610,-16008,-3288,5,-16,-10
16,46,724586,-1573,-15989,-3253,4,-15,-9
16,47,724591,-1550,-16009,-3254,4,-15,-9
16,48,724596,-1567,-15998,-3304,5,-11,-11
16,49,724601,-1587,-15947,-3261,4,-11,-12
16,50,724606,-1618,-15961,-3325,4,-11,-9
16,51,724611,-1611,-15965,-3351,5,-10,-9
16,52,724616,-1611,-15967,-3274,3,-7,-10
16,53,724621,-1620,-15958,-3202,5,-10,-7
16,54,724626,-1622,-15969,-3250,4,-13,-6
16,55,724631,-1574,-15975,-3228,3,-10,-11
16,56,724636,-1582,-16036,-3203,3,-8,-10
16,57,724641,-1589,-16027,-3282,3,-8,-8
16,58,724646,-1599,-16029,-3333,4,-7,-7
16,59,724651,-1582,-15987,-3283,5,-4,-8
16,60,724656,-1562,-15981,-3285,5,-8,-5
16,61,724661,-1576,-16004,-3252,4,-5,-5
16,62,724666,-1597,-16074,-3323,6,-7,-4
16,63,724671,-1565,-16070,-3369,7,-4,-2
16,64,724676,-1554,-15987,-3327,5,-1,-3
16,65,724681,-1566,-15921,-3249,3,-11,-3
16,66,724686,-1633,-15945,-3321,5,-26,-2
16,67,724691,-1664,-15934,-3351,6,-29,-2
16,68,724696,-1661,-15902,-3342,6,-23,-4
16,69,724701,-1682,-15936,-3361,4,-16,-1
16,70,724706,-1629,-15920,-3366,6,-7,3
16,71,724711,-1614,-15996,-3359,6,-2,0
16,72,724716,-1597,-15953,-3297,6,4,-2
16,73,724721,-1626,-15932,-3265,8,2,-4
16,74,724726,-1576,-15924,-3249,10,-4,-3
16,75,724731,-1591,-15988,-3236,6,-6,-1
16,76,724736,-1586,-15986,-3279,9,-7,2
16,77,724741,-1511,-16009,-3307,7,-3,-1
16,78,724746,-1576,-15950,-3245,7,0,-1
16,79,724751,-1619,-15959,-3260,6,-4,1
16,80,724756,-1654,-15932,-3274,4,-8,0
16,81,724761,-1634,-15946,-3316,5,-6,1
16,82,724766,-1633,-15922,-3270,4,-3,0
16,83,724771,-1650,-15931,-3289,7,-5,2
16,84,724776,-1599,-15927,-3338,7,-7,3
16,85,724781,-1572,-15965,-3344,7,-10,3
16,86,724786,-1510,-15966,-3353,7,-2,6
16,87,724791,-1496,-15985,-3321,6,0,5
16,88,724796,-1521,-16004,-3316,7,-2,4
16,89,724801,-1563,-16047,-3315,4,4,3
16,90,724806,-1567,-16065,-3321,5,6,1
16,91,724811,-1625,-16033,-3259,5,6,4
16,92,724816,-1617,-16009,-3229,4,4,4
16,93,724821,-1609,-16005,-3209,4,0,3
16,94,724826,-1669,-15983,-3212,2,-8,5
16,100,724856,-1569,-15993,-3338,2,-11,3
16,101,724861,-1584,-16000,-3283,3,-10,0
16,102,724866,-1581,-16018,-3221,1,-9,1
16,103,724871,-1573,-16033,-3250,1,-10,2
16,104,724876,-1605,-16025,-3249,2,-11,3
16,105,724881,-1525,-16042,-3266,1,-9,-2
16,106,724886,-1569,-16052,-3232,1,-11,-1
16,107,724891,-1596,-16051,-3254,0,-15,-2
16,108,724896,-1610,-15980,-3275,-2,-19,-1
16,109,724901,-1616,-16005,-3323,-1,-18,1
16,225,725481,-1646,-15932,-3417,0,-15,-6
16,226,725486,-1623,-15917,-3345,-1,-2,-6
16,227,725491,-1589,-15880,-3267,-3,4,-7
16,228,725496,-1579,-15907,-3283,-2,4,-7
16,229,725501,-1510,-15944,-3307,-2,1,-6
16,230,725506,-1517,-15927,-3257,-1,1,-5
16,231,725511,-1644,-15930,-3187,-5,-5,-7
16,232,725516,-1647,-15915,-3191,-2,-7,-7
16,233,725521,-1666,-15879,-3301,-2,-10,-8
16,234,725526,-1624,-15852,-3326,-3,-8,-7
16,365,726181,-1647,-16039,-3315,3,1,4
16,366,726186,-1653,-16072,-3295,1,5,2
16,367,726191,-1655,-16072,-3284,0,3,3
16,368,726196,-1663,-16094,-3350,-2,-1,7
16,369,726201,-1669,-16114,-3324,-6,0,4
16,370,726206,-1682,-16106,-3345,-6,-1,3
16,371,726211,-1672,-16114,-3324,-5,-4,4
16,372,726216,-1637,-16094,-3278,-7,-8,3
16,373,726221,-1606,-16059,-3291,-6,-13,1
16,374,726226,-1590,-16018,-3285,-9,-15,2
16,510,726906,-1577,-15974,-3388,-1,22,19
16,511,726911,-1572,-16000,-3466,0,20,20
16,512,726916,-1549,-16002,-3488,-1,27,18
16,513,726921,-1662,-16006,-3339,-3,33,20
16,514,726926,-1703,-16078,-3297,0,30,21
16,660,727656,-1711,-15942,-3395,13,-8,-13
16,661,727661,-1731,-15924,-3398,13,1,-9
16,662,727666,-1750,-15923,-3418,15,6,-10
16,663,727671,-1747,-15925,-3336,13,6,-9
16,664,727676,-1714,-15954,-3366,8,1,-7
16,665,727681,-1723,-15924,-3376,12,-6,-6
16,666,727686,-1706,-15938,-3430,12,-5,-5
16,667,727691,-1653,-15937,-3412,12,-3,-6
16,668,727696,-1671,-15929,-3359,13,-7,-4
16,669,727701,-1657,-15933,-3384,13,-11,-2
16,800,728356,-3357,-15935,-2715,92,-19,343
16,801,728361,-3296,-15812,-2713,90,-8,353
16,802,728366,-3300,-15858,-2773,93,-8,363
16,803,728371,-3407,-15820,-2815,92,-6,373
16,804,728376,-3437,-15725,-2959,92,0,387
16,805,728381,-3401,-15756,-2933,93,32,400
16,806,728386,-3376,-15805,-2904,90,70,411
16,807,728391,-3438,-15772,-2855,91,104,421
16,808,728396,-3407,-15772,-2815,88,140,433
16,809,728401,-3291,-15772,-2649,86,168,446
16,810,728406,-3222,-15821,-2464,86,187,453
16,811,728411,-3148,-15863,-2282,87,183,464
16,812,728416,-3165,-15820,-2280,89,162,479
16,813,728421,-3084,-15838,-2346,89,129,490
16,814,728426,-3004,-15902,-2488,91,113,498
16,815,728431,-2931,-15976,-2640,94,101,511
16,816,728436,-2930,-15987,-2678,93,95,521
16,817,728441,-3036,-16076,-2882,94,93,529
16,818,728446,-2971,-16205,-3186,94,107,540
16,819,728451,-2878,-16196,-3218,93,158,549
16,820,728456,-2897,-16133,-2924,92,221,552
16,821,728461,-3061,-16038,-2695,94,251,561
16,822,728466,-3109,-16064,-2596,98,248,567
16,823,728471,-3119,-16084,-2500,102,234,571
16,824,728476,-3063,-15992,-2331,103,214,582
16,825,728481,-3123,-15959,-2278,108,180,591
16,826,728486,-3160,-16006,-2481,112,138,595
16,827,728491,-3135,-16015,-2890,117,113,606
16,828,728496,-3054,-16053,-3081,119,131,610
16,829,728501,-3084,-16150,-3155,124,159,611
16,830,728506,-3108,-16250,-3162,126,178,613
16,831,728511,-3179,-16200,-2930,122,193,611
16,832,728516,-3275,-16156,-2649,125,199,616
16,833,728521,-3289,-16127,-2517,128,205,615
16,834,728526,-3224,-16120,-2387,126,209,616
16,835,728531,-3215,-16094,-2222,132,198,618
16,836,728536,-3373,-16024,-2191,137,175,616
16,837,728541,-3536,-15906,-2311,138,151,615
16,838,728546,-3563,-15846,-2485,139,142,618
16,839,728551,-3545,-15835,-2370,142,152,618
16,875,728731,-3727,-15772,-2802,162,117,343
16,876,728736,-3779,-15411,-2482,160,121,331
16,877,728741,-3924,-15335,-2819,165,126,324
16,878,728746,-3768,-15494,-3040,165,149,318
16,879,728751,-3746,-15537,-2510,155,179,306
16,880,728756,-3782,-15600,-2076,153,163,297
16,881,728761,-3844,-15715,-2163,151,129,286
16,882,728766,-3723,-15722,-2388,149,121,275
16,883,728771,-3585,-15722,-2309,147,125,266
16,884,728776,-3539,-15770,-2023,140,100,259
16,885,728781,-3650,-15752,-2056,136,39,248
16,886,728786,-3755,-15720,-2392,135,-8,241
16,887,728791,-3753,-15722,-2545,131,-7,235
16,888,728796,-3753,-15687,-2473,121,19,225
16,889,728801,-3737,-15657,-2430,115,28,215
16,890,728806,-3686,-15696,-2542,113,23,207
16,891,728811,-3703,-15683,-2578,111,20,194
16,892,728816,-3776,-15653,-2560,103,17,182
16,893,728821,-3859,-15654,-2525,98,19,172
16,894,728826,-3879,-15655,-2652,90,29,161
16,895,728831,-3835,-15628,-2759,86,52,153
16,896,728836,-3880,-15580,-2678,83,84,141
16,897,728841,-3955,-15546,-2602,78,104,128
16,898,728846,-3932,-15505,-2632,73,105,119
16,899,728851,-3964,-15491,-2584,65,111,107
16,900,728856,-4033,-15461,-2547,60,124,94
16,901,728861,-4063,-15429,-2447,53,139,81
16,902,728866,-4017,-15401,-2318,48,139,71
16,903,728871,-4004,-15330,-2360,43,112,61
16,904,728876,-3965,-15325,-2397,40,78,50
16,905,728881,-3963,-15282,-2511,32,61,39
16,906,728886,-4046,-15311,-2566,31,54,27
16,907,728891,-4095,-15399,-2554,26,51,12
16,908,728896,-4040,-15377,-2612,23,45,6
16,909,728901,-4006,-15404,-2532,18,50,-6
16,910,728906,-4021,-15409,-2603,11,54,-21
16,911,728911,-4079,-15430,-2543,9,60,-37
16,912,728916,-4126,-15437,-2457,4,59,-49
16,913,728921,-4063,-15407,-2410,-1,52,-61
16,914,728926,-3905,-15432,-2481,-3,41,-68
16,1015,729431,-3721,-15421,-6710,-37,-326,-385
16,1016,729436,-4356,-15547,-3118,-56,158,-395
16,1017,729441,-4484,-15398,-64,-44,222,-382
16,1018,729446,-3750,-15707,-1371,-8,-124,-321
16,1019,729451,-3293,-15893,-3896,4,-293,-286
16,1020,729456,-3501,-15754,-3499,-8,-126,-277
16,1021,729461,-3996,-15608,-1555,-21,6,-259
16,1022,729466,-3927,-15624,-1217,-5,-101,-223
16,1023,729471,-3338,-15772,-2764,11,-237,-184
16,1024,729476,-2971,-15792,-3589,8,-153,-166
16,1025,729481,-3002,-15632,-2447,-1,29,-158
16,1026,729486,-3006,-15546,-1333,-4,63,-133
16,1027,729491,-2737,-15546,-1937,6,-38,-100
16,1028,729496,-2436,-15587,-2921,7,-62,-73
16,1029,729501,-2402,-15595,-2623,-2,38,-60
16,1030,729506,-2581,-15558,-1780,-4,110,-43
16,1031,729511,-2470,-15599,-1949,0,65,-18
16,1032,729516,-2315,-15649,-2597,1,40,5
16,1033,729521,-2148,-15651,-2900,-8,95,22
16,1034,729526,-2085,-15675,-2398,-12,183,28
16,1035,729531,-2027,-15759,-2022,-15,212,45
16,1036,729536,-1873,-15887,-2183,-12,184,61
16,1037,729541,-1847,-15918,-2433,-16,177,75
16,1038,729546,-1789,-15902,-2292,-21,209,89
16,1039,729551,-1830,-15896,-1922,-24,229,97
16,1040,729556,-1929,-15837,-1800,-21,198,108
16,1041,729561,-1878,-15873,-2062,-23,154,122
16,1042,729566,-1705,-15904,-2232,-26,151,132
16,1043,729571,-1536,-15888,-2140,-26,159,137
16,1044,729576,-1488,-15886,-2060,-24,142,143
16,1045,729581,-1491,-15856,-2298,-24,100,146
16,1046,729586,-1433,-15840,-2732,-23,81,152
16,1047,729591,-1391,-15823,-3088,-20,106,153
16,1048,729596,-1283,-15825,-3168,-22,144,154
16,1049,729601,-1151,-15861,-3059,-21,165,153
16,1050,729606,-1100,-15890,-3077,-20,170,155
16,1051,729611,-1104,-15973,-3058,-15,182,154
16,1052,729616,-1045,-16055,-2891,-14,201,150
16,1053,729621,-1001,-16165,-2675,-14,200,148
16,1054,729626,-917,-16215,-2707,-7,175,142
16,1055,729631,-876,-16230,-2750,-2,143,138
16,1056,729636,-978,-16227,-2775,-2,121,132
16,1057,729641,-1055,-16192,-2907,5,96,128
16,1058,729646,-1075,-16112,-3018,10,87,123
16,1059,729651,-1125,-16063,-3128,14,94,120
16,1060,729656,-1046,-16055,-3291,17,104,113
16,1061,729661,-819,-16112,-3416,18,111,107
16,1062,729666,-660,-16158,-3479,24,126,100
16,1063,729671,-513,-16168,-3411,27,145,92
16,1064,729676,-422,-16219,-3381,30,151,87
16,1065,729681,-309,-16248,-3439,34,139,78
16,1066,729686,-225,-16197,-3508,40,139,69
16,1067,729691,-351,-16050,-3442,44,148,57
16,1068,729696,-483,-16013,-3551,48,152,50
16,1069,729701,-477,-15958,-3496,53,155,48
16,1070,729706,-223,-16001,-3403,56,151,44
16,1071,729711,-124,-16059,-3319,62,133,37
16,1072,729716,-97,-16058,-3402,66,108,29
16,1073,729721,-143,-16011,-3272,70,85,25
16,1074,729726,-143,-16036,-3298,73,60,21
16,1075,729731,-80,-16061,-3364,77,41,15
16,1076,729736,-60,-16083,-3367,79,26,10
16,1077,729741,-45,-16014,-3356,81,15,8
16,1078,729746,-24,-16082,-3458,83,5,5
16,1079,729751,-44,-16136,-3551,82,15,-1
16,1080,729756,57,-16096,-3513,82,39,-4
16,1081,729761,138,-16021,-3369,84,67,-7
16,1082,729766,286,-16037,-3207,82,72,-13
16,1083,729771,314,-16091,-3226,83,51,-14
16,1084,729776,340,-16124,-3389,84,38,-13
16,1085,729781,439,-16145,-3494,83,38,-13
16,1086,729786,461,-16162,-3479,82,27,-16
16,1087,729791,430,-16203,-3502,82,1,-17
16,1088,729796,260,-16157,-3577,81,-26,-17
16,1089,729801,168,-16127,-3597,79,-37,-16
16,1090,729806,157,-16091,-3539,76,-31,-17
16,1091,729811,161,-16148,-3467,75,-25,-12
16,1092,729816,171,-16144,-3250,72,-17,-12
16,1093,729821,197,-16198,-3179,72,-27,-10
16,1094,729826,175,-16287,-3282,68,-28,-10
16,1095,729831,128,-16304,-3300,62,-11,-13
16,1096,729836,39,-16283,-3216,59,-3,-11
16,1097,729841,2,-16218,-3218,54,1,-13
16,1098,729846,-25,-16286,-3304,51,5,-11
16,1099,729851,-1,-16362,-3273,46,14,-10
16,1100,729856,98,-16327,-3181,40,20,-10
16,1101,729861,152,-16398,-3169,33,19,-11
16,1102,729866,241,-16408,-3193,30,11,-9
16,1103,729871,174,-16364,-3338,28,4,-9
16,1104,729876,54,-16317,-3515,22,7,-10
16,1105,729881,-52,-16238,-3490,17,11,-9
16,1106,729886,-119,-16155,-3447,16,16,-9
16,1107,729891,-102,-16138,-3452,13,17,-10
16,1108,729896,-95,-16160,-3342,8,13,-11
16,1109,729901,-173,-16148,-3279,5,2,-12
16,1110,729906,-96,-16170,-3332,7,-16,-9
16,1111,729911,-8,-16260,-3450,5,-32,-11
16,1112,729916,32,-16291,-3545,-1,-32,-13
16,1113,729921,59,-16306,-3510,-7,-32,-16
16,1114,729926,-56,-16277,-3487,-7,-36,-17
16,1115,729931,-155,-16261,-3572,-9,-30,-20
16,1116,729936,-141,-16198,-3478,-16,-8,-25
16,1117,729941,-213,-16147,-3319,-18,9,-27
16,1118,729946,-212,-16136,-3228,-20,16,-26
16,1119,729951,-193,-16140,-3271,-21,17,-25
16,1120,729956,-139,-16118,-3338,-22,21,-28
16,1121,729961,-72,-16122,-3347,-25,25,-32
16,1122,729966,-93,-16084,-3307,-27,14,-37
16,1123,729971,-132,-16034,-3429,-26,-3,-35
16,1124,729976,-213,-16022,-3570,-28,-8,-37
16,1125,729981,-213,-15992,-3635,-31,1,-39
16,1126,729986,-162,-15985,-3560,-32,14,-41
16,1127,729991,-88,-16030,-3380,-34,20,-43
16,1128,729996,-173,-16052,-3340,-31,3,-46
16,1129,730001,-161,-16017,-3427,-27,-23,-45
16,1130,730006,-187,-16086,-3419,-28,-35,-43
16,1131,730011,-182,-16149,-3469,-30,-40,-47
16,1132,730016,-165,-16123,-3592,-29,-39,-50
16,1133,730021,-130,-16124,-3591,-28,-37,-52
16,1134,730026,-160,-16127,-3545,-31,-36,-52
16,1135,730031,-166,-16104,-3543,-29,-39,-51
16,1136,730036,-145,-16060,-3536,-29,-35,-51
16,1137,730041,-97,-16076,-3507,-29,-27,-52
16,1138,730046,-68,-16082,-3522,-28,-17,-55
16,1139,730051,-40,-16074,-3470,-29,-8,-54
16,1140,730056,-80,-16057,-3460,-26,-2,-54
16,1141,730061,-94,-16052,-3466,-24,3,-54
16,1142,730066,-72,-16014,-3561,-23,5,-52
16,1143,730071,-81,-16063,-3564,-23,10,-52
16,1144,730076,-104,-16104,-3473,-20,14,-53
16,1145,730081,-95,-16098,-3334,-22,7,-51
16,1146,730086,-78,-16074,-3304,-20,-3,-48
16,1147,730091,-60,-16142,-3334,-16,-11,-46
16,1148,730096,-80,-16171,-3339,-21,-13,-46
16,1149,730101,-153,-16134,-3270,-21,-14,-45
16,1150,730106,-174,-16146,-3204,-18,-18,-46
16,1151,730111,-176,-16123,-3247,-18,-23,-42
16,1152,730116,-108,-16107,-3279,-20,-23,-37
16,1153,730121,-82,-16160,-3280,-22,-16,-36
16,1154,730126,-68,-16154,-3169,-21,-10,-33
16,1155,730131,-30,-16159,-3139,-21,-5,-36
16,1156,730136,-80,-16127,-3158,-19,-27,-27
16,1157,730141,-75,-16175,-3323,-17,-42,-24
16,1158,730146,-97,-16158,-3471,-16,-42,-24
16,1159,730151,-70,-16142,-3492,-18,-26,-21
16,1160,730156,-5,-16165,-3364,-20,-10,-20
16,1161,730161,-55,-16163,-3349,-20,-8,-18
16,1162,730166,-75,-16174,-3387,-17,-14,-17
16,1163,730171,-160,-16115,-3298,-17,-17,-14
16,1164,730176,-131,-16048,-3199,-18,-23,-14
16,1165,730181,-4,-16058,-3261,-12,-29,-10
16,1166,730186,3,-16094,-3385,-17,-29,-8
16,1167,730191,-67,-16114,-3420,-18,-29,-9
16,1168,730196,-67,-16117,-3433,-16,-25,-6
16,1169,730201,-118,-16113,-3432,-16,-11,-6
16,1170,730206,-141,-16055,-3421,-16,6,-7
16,1171,730211,-120,-15973,-3334,-19,16,-6
16,1172,730216,-157,-15906,-3235,-17,18,-5
16,1173,730221,-214,-15933,-3212,-14,12,1
16,1174,730226,-134,-15976,-3253,-16,8,0
16,1175,730231,-111,-16043,-3311,-16,11,4
16,1176,730236,-131,-16068,-3277,-15,16,4
16,1177,730241,-185,-16022,-3217,-16,15,2
16,1178,730246,-170,-16020,-3272,-13,6,2
16,1179,730251,-128,-16076,-3246,-16,0,-1
16,1180,730256,-149,-16145,-3177,-15,-6,0
16,1181,730261,-230,-16114,-3191,-17,-17,1
16,1182,730266,-268,-16073,-3262,-17,-22,0
16,1183,730271,-257,-16046,-3306,-15,-22,0
16,1184,730276,-228,-15998,-3288,-14,-19,1
16,1185,730281,-184,-16089,-3329,-12,-20,0
16,1186,730286,-157,-16146,-3398,-12,-27,2
16,1187,730291,-178,-16106,-3434,-15,-27,-1
16,1188,730296,-225,-16066,-3475,-15,-24,-3
16,1189,730301,-180,-16062,-3450,-13,-21,-1
16,1190,730306,-187,-16092,-3346,-15,-15,-4
16,1191,730311,-165,-16058,-3241,-15,-23,-4
16,1192,730316,-103,-16097,-3247,-14,-35,-4
16,1193,730321,-167,-16139,-3229,-13,-41,-6
16,1194,730326,-265,-16065,-3184,-13,-50,-5
16,1195,730331,-313,-15992,-3343,-14,-58,-8
16,1196,730336,-329,-15962,-3546,-13,-50,-8
16,1197,730341,-308,-15942,-3578,-12,-38,-9
16,1198,730346,-285,-15945,-3481,-16,-25,-10
16,1199,730351,-214,-15975,-3463,-15,-25,-11
16,1200,730356,-111,-16046,-3521,-13,-21,-13
16,1201,730361,-79,-16039,-3510,-12,-3,-13
16,1202,730366,-125,-16050,-3327,-14,4,-14
16,1203,730371,-184,-15985,-3274,-13,-6,-15
16,1204,730376,-176,-15939,-3271,-13,-16,-16
16,1205,730381,-238,-15981,-3241,-15,-12,-16
16,1206,730386,-214,-16001,-3211,-15,-8,-14
16,1207,730391,-121,-16001,-3126,-15,-20,-13
16,1208,730396,-74,-16036,-3183,-14,-30,-16
16,1209,730401,-142,-16026,-3279,-14,-37,-16
16,1210,730406,-189,-15994,-3408,-16,-36,-13
16,1211,730411,-191,-15963,-3481,-14,-29,-14
16,1212,730416,-194,-15971,-3502,-13,-19,-15
16,1213,730421,-214,-15984,-3467,-14,-10,-14
16,1214,730426,-191,-16018,-3471,-11,-9,-12
16,1215,730431,-56,-16011,-3445,-11,-15,-11
16,1216,730436,1,-16070,-3538,-9,-17,-10
16,1217,730441,27,-16070,-3550,-9,-13,-12
16,1218,730446,-13,-16057,-3436,-9,-16,-11
16,1219,730451,-35,-16068,-3414,-6,-26,-11
16,1220,730456,-38,-16061,-3440,-8,-37,-8
16,1221,730461,-14,-16067,-3470,-9,-42,-6
16,1222,730466,-2,-16122,-3506,-4,-32,-5
16,1223,730471,-48,-16070,-3372,-4,-24,-6
16,1224,730476,-97,-16046,-3298,-9,-23,-5
16,1225,730481,-102,-15957,-3368,-3,-30,-2
16,1226,730486,-127,-16006,-3480,-2,-26,0
16,1227,730491,-92,-16024,-3489,-6,-11,-1
16,1228,730496,-68,-15958,-3351,-8,3,-2
16,1229,730501,-46,-15979,-3398,-4,1,5
16,1230,730506,-39,-15995,-3395,-5,-3,4
16,1231,730511,50,-16096,-3388,-3,-3,6
16,1232,730516,57,-16125,-3380,0,-6,7
16,1233,730521,22,-16100,-3473,-3,-10,7
16,1234,730526,3,-16059,-3550,-2,-14,10
16,1235,730531,46,-16107,-3588,-1,-9,12
16,1236,730536,45,-16155,-3567,-2,1,12
16,1237,730541,59,-16124,-3507,-4,3,12
16,1238,730546,25,-16131,-3464,-1,0,15
16,1239,730551,-30,-16136,-3474,0,-3,15
16,1240,730556,-108,-16105,-3418,-2,-2,13
16,1241,730561,-109,-16057,-3389,0,-8,14
16,1242,730566,-73,-16028,-3359,2,-21,19
16,1243,730571,-91,-16025,-3408,3,-30,18
16,1244,730576,-54,-16032,-3485,2,-28,17
16,1245,730581,-15,-16073,-3487,1,-17,20
16,1246,730586,-12,-16089,-3504,-1,-4,18
16,1247,730591,-41,-16077,-3505,-2,-1,15
16,1248,730596,-102,-16033,-3507,-2,-2,15
16,1249,730601,-153,-16054,-3472,-4,1,17
16,1250,730606,-121,-16104,-3349,-1,1,16
16,1251,730611,-146,-16095,-3276,-2,0,15
16,1252,730616,-111,-16099,-3319,-3,-10,14
16,1253,730621,-94,-16072,-3438,-3,-15,14
16,1254,730626,-128,-16082,-3572,-3,-11,13
16,1255,730631,-138,-16073,-3585,-5,-2,14
16,1256,730636,-114,-16057,-3513,-4,10,10
16,1257,730641,-104,-16090,-3559,-6,17,9
16,1258,730646,-129,-16065,-3523,-7,22,6
16,1259,730651,-155,-16008,-3421,-10,21,5
16,1260,730656,-175,-16042,-3436,-9,8,9
16,1261,730661,-167,-16046,-3448,-7,-2,10
16,1262,730666,-137,-16111,-3494,-9,-5,6
16,1263,730671,-135,-16091,-3579,-10,1,3
16,1264,730676,-59,-16074,-3570,-10,13,5
16,1265,730681,-51,-16090,-3521,-11,19,1
16,1266,730686,-73,-16087,-3605,-11,17,2
16,1267,730691,-53,-16112,-3623,-11,20,3
16,1268,730696,-67,-16094,-3481,-15,32,-2
16,1269,730701,-123,-16073,-3386,-15,33,-2
16,1270,730706,-107,-16068,-3421,-11,23,0
16,1271,730711,-36,-16079,-3432,-13,12,1
16,1272,730716,20,-16096,-3445,-13,6,1
16,1273,730721,-5,-16059,-3456,-14,3,-1
16,1274,730726,-87,-16044,-3489,-16,-1,-2
16,1275,730731,-75,-16002,-3472,-16,-5,-5
16,1276,730736,-88,-16022,-3516,-15,-6,-5
16,1277,730741,-66,-16008,-3537,-15,3,-5
16,1278,730746,-136,-15993,-3396,-17,10,-5
16,1279,730751,-179,-15925,-3456,-18,10,-2
16,1280,730756,-88,-15944,-3546,-15,12,-2
16,1281,730761,-18,-15985,-3555,-17,21,-3
16,1282,730766,31,-15991,-3431,-20,21,-5
16,1283,730771,16,-16001,-3447,-19,15,-4
16,1284,730776,31,-16018,-3607,-17,9,-3
16,1285,730781,15,-16058,-3590,-18,13,-5
16,1286,730786,19,-16031,-3544,-17,24,-7
16,1287,730791,11,-16006,-3511,-17,32,-6
16,1288,730796,48,-16020,-3461,-16,27,-3
16,1289,730801,39,-16018,-3431,-17,27,-6
16,1290,730806,27,-16036,-3389,-19,23,-6
16,1291,730811,29,-16025,-3405,-20,17,-1
16,1292,730816,-1,-16032,-3432,-18,16,-3
16,1293,730821,-18,-16039,-3415,-17,16,-4
16,1294,730826,-22,-16056,-3410,-16,10,-6
16,1295,730831,15,-16015,-3419,-15,-2,-2
16,1296,730836,-4,-16084,-3475,-16,-14,-3
16,1297,730841,-15,-16098,-3477,-14,-18,-2
16,1298,730846,-52,-16124,-3562,-16,-15,-5
16,1299,730851,-27,-16151,-3560,-15,-14,-5
16,1300,730856,-52,-16178,-3566,-14,-5,-4
16,1301,730861,-30,-16189,-3536,-13,2,-8
16,1302,730866,-81,-16160,-3510,-11,-1,-7
16,1303,730871,-93,-16139,-3514,-10,-2,-9
16,1304,730876,-79,-16176,-3448,-12,-7,-12
16,1305,730881,-98,-16171,-3447,-12,-16,-8
16,1306,730886,-114,-16127,-3463,-11,-23,-7
16,1307,730891,-92,-16157,-3503,-8,-23,-8
16,1308,730896,-81,-16105,-3534,-9,-18,-10
16,1309,730901,-88,-16081,-3451,-10,-15,-11
16,1310,730906,-83,-16056,-3495,-9,-21,-10
16,1311,730911,-44,-16039,-3601,-6,-20,-10
16,1312,730916,-60,-16075,-3624,-5,-15,-12
16,1313,730921,-108,-16042,-3519,-7,-13,-14
16,1314,730926,-135,-15974,-3537,-8,-13,-15
16,1315,730931,-131,-16024,-3574,-3,-18,-13
16,1316,730936,-82,-16044,-3563,-3,-15,-14
16,1317,730941,-34,-16026,-3512,-4,-8,-15
16,1318,730946,-16,-16088,-3486,-3,-7,-14
16,1319,730951,-75,-16067,-3527,-2,-12,-15
16,1320,730956,-65,-16064,-3538,-6,-11,-16
16,1321,730961,-54,-16051,-3531,-3,-11,-16
16,1322,730966,-51,-16055,-3505,-2,-8,-14
16,1323,730971,-31,-16016,-3468,-4,-13,-13
16,1324,730976,7,-16030,-3452,-2,-19,-13
16,1325,730981,-32,-16044,-3471,-1,-23,-16
16,1326,730986,-93,-16046,-3509,-1,-23,-17
16,1327,730991,-83,-16009,-3536,-2,-16,-17
16,1328,730996,-79,-16007,-3577,-2,-4,-16
16,1329,731001,-129,-16016,-3492,-3,8,-19
16,1330,731006,-196,-16018,-3442,-4,17,-21
16,1331,731011,-198,-16022,-3414,-5,19,-19
16,1332,731016,-107,-16017,-3407,-6,19,-20
16,1333,731021,-91,-16035,-3369,-4,18,-19
16,1334,731026,-80,-16012,-3389,-5,9,-19
16,1335,731031,-77,-16021,-3390,-6,-5,-19
16,1336,731036,-120,-15993,-3348,-7,-18,-17
16,1337,731041,-32,-16018,-3413,-6,-26,-14
16,1338,731046,60,-16098,-3536,-6,-19,-17
16,1339,731051,5,-16124,-3472,-7,-8,-19
16,1340,731056,-102,-16043,-3427,-9,-8,-19
16,1341,731061,-139,-16013,-3462,-9,-15,-21
16,1342,731066,-101,-16062,-3542,-7,-15,-19
16,1343,731071,-92,-16081,-3510,-10,-7,-21
16,1344,731076,-89,-16086,-3395,-10,-5,-20
16,1345,731081,-104,-16081,-3391,-9,-10,-17
16,1346,731086,1,-16092,-3480,-9,-11,-18
16,1347,731091,5,-16113,-3611,-9,1,-19
16,1348,731096,-9,-16156,-3525,-10,21,-21
16,1349,731101,-56,-16172,-3360,-13,30,-20
16,1350,731106,-20,-16140,-3445,-14,30,-17
16,1351,731111,2,-16087,-3532,-14,42,-22
16,1352,731116,47,-16082,-3517,-16,59,-21
16,1353,731121,2,-16117,-3446,-12,60,-19
16,1354,731126,-2,-16050,-3413,-14,47,-22
16,1355,731131,16,-16007,-3514,-15,37,-20
16,1356,731136,-6,-16088,-3515,-13,44,-18
16,1357,731141,45,-16089,-3482,-15,60,-19
16,1358,731146,53,-15995,-3355,-15,64,-19
16,1359,731151,-57,-15982,-3431,-12,56,-22
16,1360,731156,-18,-15978,-3499,-10,48,-17
16,1361,731161,-5,-16063,-3415,-13,48,-18
16,1362,731166,4,-16048,-3295,-17,45,-19
16,1363,731171,-12,-16007,-3300,-12,33,-20
16,1364,731176,42,-16037,-3307,-13,19,-18
16,1365,731181,106,-16013,-3303,-11,0,-17
16,1366,731186,68,-16025,-3320,-11,-18,-17
16,1367,731191,64,-16035,-3405,-7,-38,-14
16,1368,731196,72,-16002,-3586,-9,-47,-15
16,1369,731201,109,-15985,-3624,-10,-42,-13
16,1370,731206,111,-16013,-3646,-9,-29,-11
16,1371,731211,85,-16027,-3659,-8,-22,-12
16,1372,731216,105,-16005,-3678,-6,-20,-14
16,1373,731221,56,-15984,-3686,-3,-14,-15
16,1374,731226,40,-15957,-3666,-6,-5,-13
16,1375,731231,50,-15985,-3532,-1,7,-14
16,1376,731236,26,-15992,-3514,0,6,-16
16,1377,731241,-30,-15957,-3575,0,-1,-16
16,1378,731246,-59,-15991,-3631,3,-2,-15
16,1379,731251,22,-16052,-3618,3,5,-15
16,1380,731256,58,-16032,-3491,2,8,-15
16,1381,731261,16,-16020,-3463,2,1,-15
16,1382,731266,-63,-15939,-3504,4,-7,-17
16,1383,731271,-103,-15961,-3507,5,-11,-14
16,1384,731276,-75,-15991,-3484,9,-10,-11
16,1385,731281,-65,-16004,-3401,9,-5,-14
16,1386,731286,-71,-16010,-3430,8,-5,-16
16,1387,731291,-70,-16019,-3489,10,-11,-16
16,1388,731296,-69,-16029,-3428,10,-14,-16
16,1389,731301,-33,-16098,-3495,10,-22,-17
16,1390,731306,-13,-16104,-3540,10,-28,-14
16,1391,731311,-87,-16075,-3543,10,-28,-15
16,1392,731316,-67,-16048,-3547,10,-25,-17
16,1393,731321,-52,-16094,-3577,10,-21,-18
16,1394,731326,-41,-16043,-3600,10,-19,-14
16,1395,731331,-9,-16031,-3520,12,-18,-15
16,1396,731336,-29,-16041,-3555,10,-21,-17
16,1397,731341,-2,-16049,-3605,11,-24,-18
16,1398,731346,-1,-16062,-3648,14,-22,-15
16,1399,731351,-13,-16034,-3694,13,-13,-16
16,1400,731356,-94,-15988,-3566,14,-12,-17
16,1401,731361,-139,-15981,-3582,15,-15,-14
16,1402,731366,-136,-15978,-3592,14,-11,-11
16,1403,731371,-130,-15977,-3516,15,-4,-11
16,1404,731376,-117,-15984,-3437,12,-2,-13
16,1405,731381,-133,-15959,-3414,11,-11,-10
16,1406,731386,-95,-15955,-3450,12,-22,-11
16,1407,731391,-95,-15993,-3561,12,-27,-10
16,1408,731396,-99,-15994,-3548,9,-24,-12
16,1409,731401,-118,-16007,-3488,9,-26,-11
16,1410,731406,-28,-16032,-3516,10,-27,-7
16,1411,731411,-25,-16052,-3575,11,-31,-9
16,1412,731416,-23,-16022,-3606,9,-35,-7
16,1413,731421,-16,-16049,-3624,6,-42,-5
16,1414,731426,35,-16036,-3733,10,-53,-3
16,1415,731431,40,-16056,-3767,10,-55,-6
16,1416,731436,-5,-16048,-3796,10,-48,-3
16,1417,731441,-5,-16056,-3860,10,-42,-2
16,1418,731446,66,-16052,-3768,9,-34,0
16,1419,731451,92,-16068,-3727,9,-24,0
16,1420,731456,60,-16057,-3631,8,-18,1
16,1421,731461,72,-16051,-3600,10,-18,1
16,1422,731466,60,-16070,-3592,8,-14,4
16,1423,731471,95,-16029,-3586,9,-10,7
16,1424,731476,116,-15980,-3581,10,-9,6
16,1425,731481,156,-15994,-3514,9,-17,8
16,1426,731486,121,-15988,-3510,5,-25,8
16,1427,731491,120,-16006,-3630,4,-31,11
16,1428,731496,84,-15957,-3674,8,-27,12
16,1429,731501,48,-15897,-3635,7,-21,12
16,1430,731506,50,-15973,-3744,7,-24,12
16,1431,731511,45,-15993,-3750,5,-19,12
16,1432,731516,119,-16007,-3728,5,-10,13
16,1433,731521,128,-16070,-3742,8,4,14
16,1434,731526,97,-16058,-3801,5,17,13
16,1435,731531,75,-15974,-3726,6,22,11
16,1436,731536,42,-16025,-3608,6,21,13
16,1437,731541,22,-16064,-3535,4,11,13
16,1438,731546,24,-16105,-3559,6,6,12
16,1439,731551,7,-16104,-3573,5,6,13
16,1440,731556,-12,-16087,-3577,7,3,14
16,1441,731561,-43,-16094,-3585,5,4,11
16,1442,731566,-56,-16095,-3566,3,2,10
16,1443,731571,-34,-16085,-3544,3,-2,12
16,1444,731576,-39,-16063,-3624,2,-7,12
16,1445,731581,-85,-16044,-3585,3,-7,9
16,1446,731586,-108,-16048,-3528,1,-7,9
16,1447,731591,-48,-16019,-3506,3,-6,8
16,1448,731596,-55,-15951,-3495,2,-15,8
16,1449,731601,-30,-15920,-3545,3,-15,7
16,1450,731606,-26,-15933,-3612,2,-9,8
16,1451,731611,-50,-15980,-3603,1,-8,7
16,1452,731616,-28,-15952,-3630,-2,-4,6
16,1453,731621,-51,-15971,-3633,-3,8,2
16,1454,731626,-71,-16000,-3538,-3,12,2
16,1455,731631,-80,-15971,-3468,-3,10,4
16,1456,731636,-55,-15993,-3426,-4,8,0
16,1457,731641,-83,-15994,-3500,-6,3,-1
16,1458,731646,-111,-15956,-3504,-7,0,-1
16,1459,731651,-157,-15979,-3472,-10,-3,-3
16,1460,731656,-121,-16040,-3561,-6,-8,-3
16,1461,731661,-136,-16015,-3619,-5,-11,-3
16,1462,731666,-150,-16038,-3544,-8,-6,-5
16,1463,731671,-158,-16035,-3533,-10,-6,-3
16,1464,731676,-102,-16044,-3559,-8,-9,-4
16,1465,731681,-62,-16040,-3601,-10,-10,-6
16,1466,731686,-48,-16076,-3562,-10,-6,-8
16,1467,731691,-75,-16098,-3473,-10,-10,-10
16,1468,731696,-63,-16083,-3435,-13,-20,-7
16,1469,731701,-42,-16098,-3502,-11,-27,-9
16,1470,731706,27,-16159,-3580,-10,-27,-12
16,1471,731711,27,-16155,-3514,-11,-30,-10
16,1472,731716,51,-16093,-3483,-14,-35,-11
16,1473,731721,102,-16063,-3597,-13,-38,-9
16,1474,731726,51,-16026,-3580,-14,-38,-11
16,1475,731731,87,-16048,-3592,-13,-34,-10
16,1476,731736,83,-16087,-3615,-14,-31,-8
16,1477,731741,68,-16085,-3580,-15,-23,-9
16,1478,731746,56,-16089,-3528,-15,-20,-13
16,1479,731751,88,-16037,-3546,-13,-19,-11
16,1480,731756,102,-16044,-3562,-15,-12,-10
16,1481,731761,78,-16063,-3545,-13,-3,-11
16,1482,731766,39,-16051,-3529,-14,-1,-10
16,1483,731771,62,-16021,-3507,-15,-6,-11
16,1484,731776,93,-16013,-3520,-14,-9,-11
16,1485,731781,102,-16071,-3563,-13,-13,-9
16,1486,731786,142,-16090,-3585,-14,-17,-7
16,1487,731791,203,-16081,-3619,-14,-15,-9
16,1488,731796,178,-16014,-3688,-16,-12,-10
16,1489,731801,147,-15946,-3668,-13,-4,-9
16,1490,731806,159,-15962,-3675,-16,5,-8
16,1491,731811,166,-15905,-3641,-11,14,-6
16,1492,731816,178,-15929,-3549,-11,22,-7
16,1493,731821,131,-15982,-3484,-12,22,-6
16,1494,731826,97,-15961,-3510,-13,18,-7
16,1495,731831,78,-15952,-3512,-11,12,-3
16,1496,731836,60,-16008,-3555,-9,1,-2
16,1497,731841,95,-16019,-3624,-10,-5,-3
16,1498,731846,21,-16045,-3654,-9,-2,-3
16,1499,731851,-23,-16078,-3644,-8,-2,-6
16,1500,731856,-21,-16080,-3672,-5,-3,-2
16,1501,731861,-31,-16093,-3666,-5,5,-2
16,1502,731866,-21,-16127,-3580,-3,9,-4
16,1503,731871,-26,-16114,-3570,-6,1,-6
16,1504,731876,-16,-16082,-3569,-4,-4,-6
16,1505,731881,-20,-16083,-3585,-1,-6,-3
16,1506,731886,-31,-16085,-3576,-1,-8,-8
16,1507,731891,-7,-16134,-3581,-2,-11,-7
16,1508,731896,35,-16134,-3670,-3,-8,-5
16,1509,731901,49,-16125,-3639,-1,-1,-5
16,1510,731906,-7,-16122,-3595,1,5,-7
16,1511,731911,11,-16049,-3609,2,10,-7
16,1512,731916,42,-16057,-3658,1,11,-6
16,1513,731921,51,-16054,-3608,2,17,-8
16,1514,731926,85,-16053,-3520,4,18,-9
16,1515,731931,5,-16021,-3526,2,14,-9
16,1516,731936,-7,-16004,-3537,3,6,-10
16,1517,731941,53,-16016,-3533,3,2,-7
16,1518,731946,61,-15997,-3421,0,3,-7
16,1519,731951,93,-16012,-3433,4,-2,-8
16,1520,731956,109,-16044,-3516,6,-13,-9
16,1521,731961,12,-16022,-3577,3,-22,-8
16,1522,731966,-2,-16056,-3579,1,-22,-8
16,1523,731971,43,-16051,-3629,-1,-22,-9
16,1524,731976,46,-16073,-3627,2,-16,-10
16,1525,731981,-11,-16057,-3607,2,-12,-11
16,1526,731986,-14,-16096,-3564,3,-10,-8
16,1527,731991,0,-16093,-3563,3,-7,-11
16,1528,731996,-56,-16078,-3613,2,-3,-12
16,1529,732001,-67,-16034,-3577,2,3,-12
16,1530,732006,-72,-16045,-3519,-1,0,-11
16,1531,732011,-67,-16083,-3530,-1,-6,-10
16,1532,732016,-77,-16096,-3560,-2,-7,-10
16,1533,732021,-63,-16103,-3579,-1,-7,-12
16,1534,732026,-3,-16112,-3568,-4,-3,-12
16,1535,732031,0,-16105,-3529,-6,-3,-15
16,1536,732036,-16,-16070,-3487,-5,-10,-14
16,1537,732041,-40,-16042,-3502,-6,-16,-13
16,1538,732046,-61,-16034,-3498,-7,-16,-14
16,1539,732051,-39,-16025,-3472,-7,-9,-15
16,1540,732056,-10,-16026,-3413,-7,-10,-11
16,1541,732061,10,-15987,-3414,-8,-13,-12
16,1542,732066,21,-15909,-3500,-9,-19,-15
16,1543,732071,11,-15857,-3461,-7,-25,-11
16,1544,732076,-22,-15863,-3500,-8,-27,-10
16,1545,732081,16,-15847,-3589,-12,-29,-10
16,1546,732086,-12,-15849,-3602,-12,-27,-9
16,1547,732091,44,-15891,-3617,-11,-19,-8
16,1548,732096,56,-15893,-3576,-10,-18,-8
16,1549,732101,33,-15890,-3537,-13,-21,-8
16,1550,732106,14,-15919,-3528,-13,-31,-9
16,1551,732111,-18,-15900,-3560,-9,-37,-8
16,1552,732116,-23,-15930,-3575,-9,-29,-4
16,1553,732121,-29,-15971,-3613,-13,-21,-2
16,1554,732126,-4,-16038,-3577,-13,-20,-5
16,1555,732131,24,-16046,-3566,-10,-21,-5
16,1556,732136,75,-16046,-3653,-12,-23,-4
16,1557,732141,45,-16058,-3596,-11,-24,-5
16,1558,732146,29,-16033,-3621,-11,-24,-4
16,1559,732151,16,-16020,-3633,-10,-32,-2
16,1560,732156,38,-16040,-3695,-13,-30,-3
16,1561,732161,66,-16034,-3712,-13,-26,-4
16,1562,732166,27,-15994,-3642,-9,-22,-1
16,1563,732171,27,-15994,-3626,-12,-20,-4
16,1564,732176,-20,-15986,-3689,-9,-17,-1
16,1565,732181,-15,-15947,-3705,-7,-9,-2
16,1566,732186,3,-15982,-3636,-9,1,-2
16,1567,732191,-25,-16013,-3630,-11,1,-1
16,1568,732196,-34,-16054,-3654,-7,-7,2
16,1569,732201,-61,-16023,-3634,-6,-6,0
16,1570,732206,-69,-16035,-3700,-4,-3,-2
16,1571,732211,-60,-16063,-3645,-6,-3,-3
16,1572,732216,-45,-16091,-3652,-7,-9,-3
16,1573,732221,-55,-16078,-3668,-3,-13,-5
16,1574,732226,-67,-16010,-3737,-2,-12,-3
16,1575,732231,-164,-15967,-3714,-2,-4,-5
16,1576,732236,-173,-15965,-3728,0,-1,-5
16,1577,732241,-98,-15928,-3728,-2,1,-6
16,1578,732246,-82,-15908,-3653,-1,0,-3
16,1579,732251,-65,-15908,-3685,0,-2,-3
16,1580,732256,-106,-15949,-3688,1,-6,-4
16,1581,732261,-106,-15926,-3730,2,-9,-2
16,1582,732266,-63,-15923,-3807,5,-6,-5
16,1583,732271,-18,-15967,-3743,5,2,-7
16,1584,732276,-64,-15946,-3670,4,4,-9
16,1585,732281,-79,-15943,-3739,9,1,-7
16,1586,732286,-100,-15939,-3770,9,1,-5
16,1587,732291,-19,-15941,-3740,7,8,-7
16,1588,732296,-16,-15985,-3605,6,15,-4
16,1589,732301,-50,-16031,-3559,8,7,-3
16,1590,732306,14,-16057,-3703,11,-5,0
16,1591,732311,62,-16060,-3817,13,-3,-1
16,1592,732316,46,-16030,-3750,11,7,-3
16,1593,732321,21,-15998,-3718,11,5,-1
16,1594,732326,75,-15985,-3696,11,-3,0
16,1595,732331,93,-16050,-3610,12,11,2
16,1596,732336,58,-16008,-3524,13,6,2
16,1597,732341,13,-16016,-3548,14,-8,2
16,1598,732346,31,-16017,-3587,12,-15,3
16,1599,732351,36,-15937,-3540,14,-17,7
