event_id,seq,ts_ms,ax,ay,az,gx,gy,gz
6,0,39295,-2414,-15871,-3511,-3,-22,-2
6,1,39300,-2492,-15839,-3557,-3,-17,-3
6,2,39305,-2555,-15870,-3600,-3,-12,-3
6,3,39310,-2502,-15846,-3663,-3,-11,-3
6,4,39315,-2512,-15897,-3645,-3,-13,-2
6,5,39320,-2523,-15864,-3521,-4,-16,-5
6,6,39325,-2474,-15874,-3477,-5,-15,-9
6,7,39330,-2534,-15876,-3504,-3,-16,-7
6,8,39335,-2569,-15868,-3512,-2,-15,-6
6,9,39340,-2496,-15905,-3341,-5,-11,-7
6,10,39345,-2551,-15901,-3261,-5,-6,-8
6,11,39350,-2653,-15919,-3312,-1,-5,-6
6,12,39355,-2649,-15900,-3334,-2,-12,-6
6,13,39360,-2571,-15852,-3232,-4,-19,-6
6,14,39365,-2505,-15882,-3120,-2,-21,-5
6,15,39370,-2409,-15885,-3216,0,-19,-4
6,16,39375,-2338,-15876,-3314,-2,-16,-4
6,17,39380,-2245,-15874,-3411,1,-17,-5
6,18,39385,-2258,-15900,-3481,1,-22,-6
6,19,39390,-2397,-15874,-3473,-3,-23,-6
6,20,39395,-2433,-15857,-3481,-3,-28,-4
6,21,39400,-2393,-15862,-3398,-3,-24,-5
6,22,39405,-2437,-15793,-3479,-3,-20,-9
6,23,39410,-2493,-15818,-3490,-4,-20,-11
6,24,39415,-2529,-15785,-3296,-9,-23,-10
6,25,39420,-2480,-15816,-3231,-6,-30,-11
6,26,39425,-2279,-15850,-3354,-6,-29,-9
6,27,39430,-2192,-15796,-3406,-8,-15,-7
6,28,39435,-2224,-15825,-3359,-8,-11,-11
6,29,39440,-2383,-15865,-3312,-6,-19,-10
6,30,39445,-2405,-15840,-3435,-6,-34,-8
6,31,39450,-2371,-15879,-3506,-6,-39,-7
6,32,39455,-2421,-15913,-3473,-4,-30,-6
6,33,39460,-2463,-15904,-3379,-4,-26,-4
6,34,39465,-2449,-15881,-3368,-3,-33,-3
6,35,39470,-2367,-15864,-3470,-2,-40,-2
6,36,39475,-2369,-15903,-3504,-2,-38,-2
6,37,39480,-2457,-15888,-3379,-1,-31,-5
6,38,39485,-2422,-15872,-3364,-3,-30,-2
6,39,39490,-2291,-15875,-3510,-4,-33,2
6,40,39495,-2310,-15889,-3498,-9,-23,-6
6,41,39500,-2433,-15878,-3356,-7,-22,-9
6,42,39505,-2456,-15832,-3344,-7,-38,-4
6,43,39510,-2416,-15855,-3446,-5,-49,-2
6,44,39515,-2325,-15864,-3525,-7,-45,-3
6,45,39520,-2318,-15858,-3432,-7,-40,-3
6,46,39525,-2403,-15829,-3317,-9,-45,-3
6,47,39530,-2460,-15848,-3293,-7,-60,-4
6,48,39535,-2467,-15852,-3320,-5,-64,-2
6,49,39540,-2368,-15887,-3425,-5,-57,1
6,50,39545,-2308,-15869,-3618,-4,-45,-1
6,51,39550,-2321,-15846,-3672,-4,-41,-2
6,52,39555,-2334,-15858,-3777,-6,-42,-5
6,53,39560,-2386,-15829,-3740,-8,-34,-4
6,54,39565,-2446,-15830,-3564,-6,-17,-4
6,55,39570,-2405,-15885,-3518,-6,-3,-6
6,56,39575,-2409,-15847,-3522,-4,10,-5
6,57,39580,-2439,-15858,-3575,1,6,-10
6,58,39585,-2471,-15890,-3575,-2,-9,-9
6,59,39590,-2416,-15893,-3482,-5,-16,-4
6,60,39595,-2367,-15875,-3459,-2,-11,-3
6,61,39600,-2453,-15893,-3551,0,0,-5
6,62,39605,-2451,-15871,-3726,2,7,-6
6,63,39610,-2375,-15862,-3691,1,11,-6
6,64,39615,-2352,-15879,-3428,1,0,-7
6,65,39620,-2442,-15892,-3438,3,-12,-5
6,66,39625,-2356,-15885,-3610,4,-21,-3
6,67,39630,-2289,-15871,-3631,5,-8,-3
6,68,39635,-2367,-15816,-3509,2,3,-6
6,69,39640,-2438,-15806,-3432,2,-2,-7
6,70,39645,-2506,-15826,-3430,3,-16,-7
6,71,39650,-2545,-15855,-3381,3,-26,-3
6,72,39655,-2495,-15827,-3309,2,-24,-9
6,73,39660,-2417,-15809,-3219,0,-14,-9
6,74,39665,-2281,-15819,-3292,0,-6,-6
6,75,39670,-2241,-15855,-3431,5,-7,-5
6,76,39675,-2240,-15847,-3541,4,-8,-7
6,77,39680,-2203,-15838,-3542,3,-8,-5
6,78,39685,-2258,-15844,-3407,-1,-8,-5
6,79,39690,-2353,-15836,-3407,-1,-13,-3
6,80,39695,-2371,-15846,-3464,2,-12,0
6,81,39700,-2340,-15871,-3402,1,-7,1
6,82,39705,-2374,-15902,-3264,0,-2,-1
6,83,39710,-2451,-15888,-3167,0,-5,-1
6,84,39715,-2472,-15873,-3276,4,-11,-1
6,85,39720,-2499,-15870,-3386,5,-14,-3
6,86,39725,-2550,-15873,-3332,0,-11,-5
6,87,39730,-2578,-15866,-3123,1,-13,-7
6,88,39735,-2466,-15869,-3088,2,-18,-4
6,89,39740,-2428,-15853,-3261,4,-19,-2
6,90,39745,-2458,-15868,-3329,1,-12,-4
6,91,39750,-2535,-15860,-3364,-1,-13,-4
6,92,39755,-2479,-15906,-3434,-4,-17,-4
6,93,39760,-2400,-15868,-3467,-5,-19,-4
6,94,39765,-2449,-15857,-3418,-6,-18,-4
6,95,39770,-2451,-15845,-3323,-7,-15,-6
6,96,39775,-2357,-15825,-3293,-6,-13,-7
6,97,39780,-2308,-15818,-3313,-5,-11,-7
6,98,39785,-2350,-15791,-3214,-6,-7,-9
6,99,39790,-2428,-15820,-3214,-4,-10,-10
6,100,39795,-2429,-15827,-3300,-5,-17,-10
6,101,39800,-2381,-15802,-3278,-6,-13,-9
6,102,39805,-2330,-15820,-3244,-10,-8,-10
6,103,39810,-2392,-15811,-3044,-10,-2,-15
6,104,39815,-2425,-15847,-2961,-7,-7,-16
6,105,39820,-2297,-15886,-2946,-11,-12,-11
6,106,39825,-2167,-15905,-3040,-15,-10,-6
6,107,39830,-2063,-15880,-3201,-13,-2,-3
6,108,39835,-2025,-15939,-3301,-16,3,-2
6,109,39840,-2018,-15875,-3295,-17,8,-4
6,110,39845,-2097,-15847,-3362,-16,3,-2
6,111,39850,-2103,-15842,-3661,-13,-1,1
6,112,39855,-2135,-15889,-3731,-12,8,5
6,113,39860,-2118,-15827,-3644,-14,5,1
6,114,39865,-2217,-15816,-3621,-16,-4,2
6,115,39870,-2337,-15847,-3652,-14,-14,5
6,116,39875,-2319,-15844,-3818,-13,-18,8
6,117,39880,-2190,-15888,-3867,-12,-11,9
6,118,39885,-2222,-15850,-3768,-15,0,4
6,119,39890,-2183,-15870,-3626,-13,4,8
6,120,39895,-2297,-15840,-3579,-12,-1,9
6,121,39900,-2411,-15866,-3683,-12,3,6
6,122,39905,-2492,-15922,-3720,-9,11,5
6,123,39910,-2465,-15894,-3652,-11,14,8
6,124,39915,-2418,-15869,-3592,-6,12,11
6,125,39920,-2426,-15885,-3493,-4,7,12
6,126,39925,-2445,-15851,-3583,-2,-2,15
6,127,39930,-2428,-15870,-3721,0,-5,15
6,128,39935,-2464,-15830,-3833,1,3,13
6,129,39940,-2615,-15849,-3805,-1,7,7
6,130,39945,-2756,-15860,-3799,-2,5,4
6,131,39950,-2738,-15813,-3819,-2,7,7
6,132,39955,-2716,-15835,-3730,4,6,7
6,133,39960,-2687,-15847,-3713,1,7,2
6,134,39965,-2568,-15816,-3695,1,4,-2
6,135,39970,-2603,-15853,-3788,2,0,-3
6,136,39975,-2679,-15853,-3764,3,3,-5
6,137,39980,-2525,-15875,-3592,5,-3,0
6,138,39985,-2516,-15878,-3498,6,3,-3
6,139,39990,-2573,-15837,-3443,8,2,-5
6,140,39995,-2631,-15860,-3506,9,-6,-1
6,141,40000,-2683,-15880,-3573,12,-17,1
6,142,40005,-2671,-15868,-3629,9,-21,0
6,143,40010,-2730,-15869,-3510,9,-15,0
6,144,40015,-2726,-15871,-3466,11,-17,-2
6,145,40020,-2669,-15869,-3545,11,-21,-4
6,146,40025,-2698,-15862,-3657,9,-13,-7
6,147,40030,-2791,-15872,-3607,12,-9,-10
6,148,40035,-2907,-15850,-3425,11,-16,-13
6,149,40040,-2859,-15871,-3444,8,-32,-13
6,150,40045,-2706,-15898,-3495,11,-36,-8
6,151,40050,-2438,-15909,-3545,12,-20,-13
6,152,40055,-2307,-15886,-3355,9,-14,-17
6,153,40060,-2323,-15823,-3198,10,-22,-16
6,154,40065,-2324,-15828,-3196,12,-35,-13
6,155,40070,-2291,-15860,-3289,10,-41,-14
6,156,40075,-2202,-15820,-3297,10,-30,-16
6,157,40080,-2166,-15814,-3269,6,-18,-15
6,158,40085,-2163,-15790,-3169,7,-15,-13
6,159,40090,-2114,-15833,-3173,9,-25,-12
6,160,40095,-2206,-15842,-3245,8,-30,-10
6,161,40100,-2223,-15795,-3299,8,-30,-12
6,162,40105,-2292,-15851,-3432,4,-27,-11
6,163,40110,-2336,-15855,-3544,3,-28,-10
6,164,40115,-2354,-15831,-3543,1,-27,-10
6,165,40120,-2431,-15882,-3514,4,-33,-8
6,166,40125,-2518,-15868,-3493,5,-43,-9
6,167,40130,-2643,-15919,-3581,6,-57,-7
6,168,40135,-2678,-15933,-3582,4,-58,-6
6,169,40140,-2602,-15916,-3613,6,-50,-9
6,170,40145,-2605,-15918,-3606,11,-40,-8
6,171,40150,-2634,-15911,-3686,7,-30,-12
6,172,40155,-2665,-15911,-3752,8,-32,-12
6,173,40160,-2515,-15850,-3767,6,-26,-12
6,174,40165,-2486,-15825,-3570,5,-13,-15
6,175,40170,-2480,-15850,-3497,7,-20,-15
6,176,40175,-2429,-15830,-3435,7,-28,-13
6,177,40180,-2310,-15838,-3478,11,-33,-14
6,178,40185,-2284,-15840,-3469,15,-21,-14
6,179,40190,-2415,-15859,-3422,13,-13,-19
6,180,40195,-2479,-15862,-3323,10,-16,-19
6,181,40200,-2307,-15829,-3233,9,-23,-13
6,182,40205,-2155,-15809,-3179,7,-28,-12
6,183,40210,-2052,-15847,-3034,5,-25,-13
6,184,40215,-2191,-15827,-2963,4,-35,-18
6,185,40220,-2123,-15801,-3159,7,-54,-12
6,186,40225,-1924,-15866,-3537,7,-56,-2
6,187,40230,-1726,-15868,-3423,1,-34,-5
6,188,40235,-1959,-15827,-3369,1,-24,-10
6,189,40240,-2173,-15906,-3485,8,-46,-7
6,190,40245,-2252,-15889,-3663,9,-55,-3
6,191,40250,-2377,-15872,-3705,4,-37,-3
6,192,40255,-2355,-15855,-3533,1,-7,-6
6,193,40260,-2282,-15911,-3462,2,6,-5
6,194,40265,-2198,-15864,-3370,3,2,-9
6,195,40270,-2260,-15881,-3354,5,-4,-8
6,196,40275,-2291,-15911,-3358,5,-7,-1
6,197,40280,-2246,-15841,-3281,3,2,-3
6,198,40285,-2267,-15861,-3137,2,7,0
6,199,40290,-2239,-15877,-3209,3,-2,4
6,200,40295,-2253,-15921,-3245,7,-8,8
6,201,40300,-2220,-15880,-3179,2,-7,5
6,202,40305,-2213,-15841,-3110,2,3,3
6,203,40310,-2258,-15853,-3245,8,1,7
6,204,40315,-2254,-15854,-3467,8,-10,16
6,205,40320,-2155,-15813,-3653,2,-10,17
6,206,40325,-2233,-15824,-3600,3,0,19
6,207,40330,-2434,-15866,-3631,4,0,19
6,208,40335,-2516,-15900,-3940,4,-10,18
6,209,40340,-2530,-15846,-4116,5,-16,19
6,210,40345,-2593,-15910,-3746,-3,-1,12
6,211,40350,-2906,-15903,-3655,2,-3,10
6,212,40355,-2969,-15942,-3711,8,-13,12
6,213,40360,-2898,-15876,-3655,6,-15,9
6,214,40365,-2924,-15853,-3498,6,-3,4
6,215,40370,-2966,-15916,-3341,8,3,4
6,216,40375,-2994,-15892,-3233,9,-5,3
6,217,40380,-2886,-15850,-3225,12,-18,2
6,218,40385,-2818,-15850,-3316,14,-22,3
6,219,40390,-2882,-15806,-3454,10,-14,-1
6,220,40395,-2796,-15849,-3430,9,-11,-5
6,221,40400,-2586,-15823,-3390,8,-15,-8
6,222,40405,-2451,-15773,-3201,7,-16,-12
6,223,40410,-2502,-15793,-3080,5,-16,-16
6,224,40415,-2596,-15828,-3214,8,-15,-16
6,225,40420,-2652,-15851,-3272,9,-11,-22
6,226,40425,-2532,-15814,-3287,6,-1,-19
6,227,40430,-2239,-15854,-3235,2,7,-18
6,228,40435,-2175,-15890,-3084,2,8,-21
6,229,40440,-2213,-15852,-3003,0,-8,-17
6,230,40445,-2210,-15874,-3075,1,-24,-15
6,231,40450,-2279,-15842,-3132,-1,-17,-12
6,232,40455,-2389,-15866,-3118,-2,-5,-12
6,233,40460,-2489,-15852,-3196,-1,1,-10
6,234,40465,-2500,-15856,-3504,4,-11,-9
6,235,40470,-2481,-15876,-3641,-2,-16,-12
6,236,40475,-2481,-15841,-3469,-7,-12,-9
6,237,40480,-2447,-15828,-3290,-5,-11,-11
6,238,40485,-2553,-15850,-3273,-3,-7,-14
6,239,40490,-2622,-15858,-3257,-5,-2,-20
6,240,40495,-2597,-15821,-3209,-5,-4,-19
6,241,40500,-2569,-15863,-3268,-4,-6,-20
6,242,40505,-2569,-15859,-3169,-8,4,-22
6,243,40510,-2521,-15822,-3077,-9,-1,-19
6,244,40515,-2281,-15852,-3050,-9,-1,-18
6,245,40520,-2160,-15879,-3092,-11,4,-18
6,246,40525,-2194,-15828,-3004,-14,9,-17
6,247,40530,-2285,-15800,-2964,-13,0,-17
6,248,40535,-2359,-15859,-3132,-13,-14,-19
6,249,40540,-2380,-15906,-3318,-17,-22,-17
6,250,40545,-2314,-15861,-3267,-16,-14,-12
6,251,40550,-2275,-15877,-3221,-19,-9,-12
6,252,40555,-2384,-15912,-3551,-18,-17,-10
6,253,40560,-2455,-15888,-3784,-16,-26,-9
6,254,40565,-2360,-15910,-3802,-19,-24,-4
6,255,40570,-2247,-15927,-3718,-20,-8,-9
6,256,40575,-2484,-15863,-3472,-16,11,-12
6,257,40580,-2668,-15871,-3496,-16,6,-15
6,258,40585,-2669,-15893,-3500,-14,-7,-13
6,259,40590,-2560,-15861,-3585,-12,-14,-12
6,260,40595,-2275,-15892,-3750,-10,-5,-8
6,261,40600,-1915,-15973,-3824,-11,11,-10
6,262,40605,-2140,-15852,-3377,-17,23,-12
6,263,40610,-2253,-15884,-3449,-13,-7,-6
6,264,40615,-2174,-15955,-3628,-11,-18,0
6,265,40620,-2246,-15834,-3579,-14,2,-3
6,266,40625,-2108,-15765,-3509,-12,11,1
6,267,40630,-2071,-15872,-3472,-8,6,2
6,268,40635,-2266,-15779,-3457,-9,-11,-6
6,269,40640,-2399,-15734,-3661,-11,-28,-5
6,270,40645,-2402,-15838,-3995,-9,-33,-2
6,271,40650,-2264,-15817,-3996,-8,-20,-3
6,272,40655,-2303,-15879,-3792,-11,-10,-5
6,273,40660,-2370,-15886,-3662,-9,-13,-7
6,274,40665,-2374,-15869,-3565,-3,-19,-3
6,275,40670,-2344,-15888,-3697,0,-20,0
6,276,40675,-2220,-15911,-3849,-2,-5,4
6,277,40680,-2188,-15859,-3736,-3,11,1
6,278,40685,-2321,-15887,-3519,-5,9,-1
6,279,40690,-2503,-15908,-3482,-2,0,0
6,280,40695,-2476,-15900,-3797,2,-2,2
6,281,40700,-2388,-15875,-4028,2,21,0
6,282,40705,-2454,-15837,-3790,2,39,-8
6,283,40710,-2676,-15857,-3542,7,-19,-7
6,284,40715,-2665,-15874,-3787,9,-21,-5
6,285,40720,-2574,-15870,-3811,9,-2,-4
6,286,40725,-2546,-15897,-3600,4,10,-7
6,287,40730,-2520,-15862,-3364,2,-8,-6
6,288,40735,-2405,-15843,-3333,8,-35,-2
6,289,40740,-2357,-15895,-3433,10,-38,-1
6,290,40745,-2343,-15961,-3503,5,-30,-4
6,291,40750,-2447,-15976,-3472,7,-28,-5
6,292,40755,-2563,-15924,-3443,7,-39,-6
6,293,40760,-2532,-15857,-3561,11,-49,-3
6,294,40765,-2583,-15769,-3697,11,-43,-4
6,295,40770,-2511,-15776,-3662,14,-35,-3
6,296,40775,-2388,-15756,-3470,13,-41,-4
6,297,40780,-2421,-15853,-3549,14,-53,-3
6,298,40785,-2407,-15949,-3691,16,-46,-3
6,299,40790,-2383,-15929,-3562,14,-18,-8
6,300,40795,-2510,-15923,-3366,11,3,-16
6,301,40800,-2588,-15935,-3433,10,-10,-15
6,302,40805,-2589,-15943,-3484,13,-29,-9
6,303,40810,-2685,-15940,-3473,14,-26,-15
6,304,40815,-2841,-15856,-3353,13,-16,-19
6,305,40820,-2785,-15814,-3418,17,-20,-18
6,306,40825,-2628,-15823,-3627,19,-29,-16
6,307,40830,-2645,-15835,-3625,15,-37,-24
6,308,40835,-2713,-15793,-3590,13,-44,-22
6,309,40840,-2726,-15751,-3678,14,-47,-23
6,310,40845,-2709,-15677,-3602,15,-44,-24
6,311,40850,-2566,-15675,-3454,12,-39,-25
6,312,40855,-2426,-15788,-3535,14,-32,-26
6,313,40860,-2421,-15873,-3419,13,-13,-30
6,314,40865,-2497,-15859,-3026,11,4,-33
6,315,40870,-2507,-15837,-2917,11,-8,-28
6,316,40875,-2413,-15877,-3035,12,-25,-24
6,317,40880,-2281,-15874,-3178,14,-27,-21
6,318,40885,-2184,-15890,-3182,11,-32,-24
6,319,40890,-2201,-15924,-3012,10,-46,-27
6,320,40895,-2310,-15952,-2957,11,-67,-27
6,321,40900,-2315,-15990,-3237,16,-81,-21
6,322,40905,-2275,-15999,-3544,15,-68,-21
6,323,40910,-2291,-16003,-3425,15,-49,-24
6,324,40915,-2448,-15930,-3355,10,-56,-25
6,325,40920,-2438,-15846,-3612,12,-80,-22
6,326,40925,-2343,-15803,-3759,11,-86,-17
6,327,40930,-2447,-15829,-3653,6,-72,-20
6,328,40935,-2485,-15865,-3540,5,-65,-21
6,329,40940,-2436,-15892,-3569,5,-59,-18
6,330,40945,-2291,-15828,-3592,3,-44,-19
6,331,40950,-2121,-15840,-3341,0,-22,-20
6,332,40955,-2101,-15928,-3050,-1,-12,-24
6,333,40960,-2185,-15986,-2985,0,-19,-26
6,334,40965,-2210,-15926,-3195,1,-29,-22
6,335,40970,-2242,-15862,-3432,-1,-19,-21
6,336,40975,-2286,-15770,-3282,-5,7,-27
6,337,40980,-2400,-15783,-3000,-5,16,-27
6,338,40985,-2365,-15838,-2899,0,-6,-25
6,339,40990,-2301,-15892,-3149,3,-33,-20
6,340,40995,-2248,-15918,-3298,1,-41,-20
6,341,41000,-2209,-15941,-3048,-1,-48,-20
6,342,41005,-2238,-15914,-2724,0,-84,-19
6,343,41010,-2191,-15902,-2883,4,-130,-9
6,344,41015,-2020,-15922,-3343,7,-145,-4
6,345,41020,-2077,-15996,-3678,7,-123,-9
6,346,41025,-2308,-15991,-3571,6,-96,-18
6,347,41030,-2357,-15936,-3477,5,-96,-12
6,348,41035,-2293,-15833,-3498,6,-92,-8
6,349,41040,-2239,-15887,-3500,6,-58,-12
6,350,41045,-2152,-15976,-3475,7,-23,-10
6,351,41050,-2069,-15853,-3225,5,-4,-14
6,352,41055,-2288,-15716,-3192,5,-17,-15
6,353,41060,-2450,-15759,-3603,9,-31,-9
6,354,41065,-2395,-15834,-3824,7,-18,-8
6,355,41070,-2392,-15841,-3404,5,11,-10
6,356,41075,-2632,-15885,-3393,20,-10,-4
6,357,41080,-2647,-15944,-3676,19,-15,-4
6,358,41085,-2569,-15932,-3434,16,-17,-5
6,359,41090,-2480,-15953,-3237,18,-49,0
6,360,41095,-2621,-16046,-3447,24,-98,5
6,361,41100,-2832,-16117,-3796,29,-126,6
6,362,41105,-2952,-16073,-3697,26,-113,7
6,363,41110,-3020,-15960,-3419,21,-75,6
6,364,41115,-2940,-15963,-3218,27,-52,7
6,365,41120,-2882,-16013,-3130,27,-41,6
6,366,41125,-2934,-15962,-2938,28,-28,7
6,367,41130,-2834,-16016,-2811,29,-15,7
6,368,41135,-2777,-15912,-2730,30,-6,7
6,369,41140,-2694,-15853,-3028,34,-13,10
6,370,41145,-2731,-15772,-3467,34,-38,15
6,371,41150,-2963,-15643,-3467,34,-63,18
6,372,41155,-3246,-15532,-3244,34,-78,23
6,373,41160,-3264,-15588,-3368,36,-71,31
6,374,41165,-3144,-15668,-3551,41,-25,30
6,375,41170,-3094,-15723,-3497,41,42,30
6,376,41175,-3091,-15679,-3266,43,77,32
6,377,41180,-3090,-15680,-3086,44,72,34
6,378,41185,-3211,-15524,-2790,47,53,36
6,379,41190,-3421,-15411,-2651,54,34,43
6,380,41195,-3387,-15538,-2726,58,7,56
6,381,41200,-3162,-15627,-2812,66,-18,68
6,382,41205,-3073,-15548,-3068,69,-36,74
6,383,41210,-3185,-15531,-3279,68,-56,75
6,384,41215,-3232,-15504,-3390,70,-66,81
6,385,41220,-3396,-15579,-3499,70,-64,92
6,386,41225,-3413,-15695,-3574,71,-42,95
6,387,41230,-3428,-15712,-3322,69,9,100
6,388,41235,-3264,-15788,-3134,69,61,106
6,389,41240,-3235,-15835,-2984,74,108,111
6,390,41245,-3338,-15807,-2873,73,133,113
6,391,41250,-3403,-15701,-2652,72,126,120
6,392,41255,-3363,-15688,-2462,72,100,130
6,393,41260,-3255,-15714,-2348,75,78,139
6,394,41265,-3150,-15717,-2474,75,59,147
6,395,41270,-3164,-15773,-2705,77,36,155
6,396,41275,-3357,-15790,-2800,76,2,165
6,397,41280,-3443,-15731,-2605,75,-25,175
6,398,41285,-3459,-15759,-2427,78,-31,186
6,399,41290,-3447,-15811,-2485,80,-16,192
6,400,41295,-3412,-15890,-2599,78,-16,198
6,401,41300,-3348,-15876,-2578,77,-47,206
6,402,41305,-3545,-15975,-2704,78,-100,214
6,403,41310,-3781,-16005,-3155,81,-134,221
6,404,41315,-3912,-15850,-3473,79,-116,224
6,405,41320,-3941,-15699,-3415,75,-61,224
6,406,41325,-3960,-15750,-3218,77,-13,229
6,407,41330,-4112,-15872,-3236,78,17,228
6,408,41335,-4085,-15805,-3525,84,49,235
6,409,41340,-3970,-15605,-3554,80,104,237
6,410,41345,-4085,-15513,-2934,72,151,236
6,411,41350,-4073,-15655,-2506,75,134,243
6,412,41355,-3914,-15923,-2688,81,118,250
6,413,41360,-3671,-15882,-3044,83,146,249
6,414,41365,-3626,-15690,-2980,85,191,248
6,415,41370,-3735,-15461,-2721,82,180,246
6,416,41375,-4049,-15539,-2783,81,113,254
6,417,41380,-4110,-15721,-3081,84,66,264
6,418,41385,-3865,-15730,-3118,81,95,265
6,419,41390,-3840,-15634,-2570,77,143,258
6,420,41395,-4012,-15693,-2053,74,123,260
6,421,41400,-3979,-15843,-2266,83,33,275
6,422,41405,-3851,-15959,-2806,83,-34,282
6,423,41410,-4093,-15993,-2765,79,-23,277
6,424,41415,-4248,-15973,-2638,74,-1,275
6,425,41420,-4296,-15917,-2718,79,-1,280
6,426,41425,-4214,-15914,-3162,82,-10,285
6,427,41430,-4193,-15979,-3431,80,0,284
6,428,41435,-4347,-15964,-3254,78,24,280
6,429,41440,-4335,-15843,-2889,84,22,284
6,430,41445,-4300,-15860,-2939,82,17,282
6,431,41450,-4253,-15890,-2881,87,13,284
6,432,41455,-4201,-15828,-2869,88,-4,286
6,433,41460,-4163,-15786,-2849,93,-36,287
6,434,41465,-4132,-15835,-2761,95,-71,289
6,435,41470,-4064,-15926,-2821,99,-90,292
6,436,41475,-4023,-15917,-3113,100,-77,292
6,437,41480,-4207,-15819,-3187,95,-41,286
6,438,41485,-4222,-15661,-3000,95,-28,286
6,439,41490,-4271,-15685,-2855,95,-31,288
6,440,41495,-4363,-15780,-2878,100,-25,291
6,441,41500,-4313,-15754,-2837,102,-6,294
6,442,41505,-4184,-15626,-2583,99,7,293
6,443,41510,-4222,-15592,-2363,102,-15,297
6,444,41515,-4121,-15652,-2426,106,-68,301
6,445,41520,-4169,-15730,-2476,106,-112,303
6,446,41525,-4217,-15801,-2634,109,-136,306
6,447,41530,-4191,-15894,-2907,114,-143,312
6,448,41535,-4103,-15939,-3259,116,-137,313
6,449,41540,-4171,-15994,-3293,113,-112,307
6,450,41545,-4141,-16008,-3441,115,-95,310
6,451,41550,-3819,-15933,-3449,115,-67,317
6,452,41555,-3825,-15751,-3161,117,-35,311
6,453,41560,-3952,-15724,-3166,120,-22,314
6,454,41565,-3975,-15889,-3276,124,-2,318
6,455,41570,-3909,-15965,-3205,121,33,315
6,456,41575,-3778,-15892,-3000,124,72,322
6,457,41580,-3728,-15846,-2869,122,93,321
6,458,41585,-3867,-15902,-2764,124,93,320
6,459,41590,-3951,-15931,-2891,124,79,328
6,460,41595,-3921,-15927,-2912,124,82,331
6,461,41600,-3896,-15940,-2733,122,98,333
6,462,41605,-3833,-15941,-2420,121,98,334
6,463,41610,-3861,-15918,-2287,124,71,337
6,464,41615,-3917,-15858,-2494,128,24,345
6,465,41620,-3771,-15823,-2739,128,-6,353
6,466,41625,-3765,-15860,-2875,124,-6,351
6,467,41630,-3903,-15947,-3025,123,1,349
6,468,41635,-3829,-15960,-3254,122,0,351
6,469,41640,-3649,-15904,-3306,119,20,352
6,470,41645,-3657,-15868,-3051,116,54,348
6,471,41650,-3787,-15771,-2790,114,70,346
6,472,41655,-3834,-15714,-2545,114,54,348
6,473,41660,-3796,-15684,-2404,112,26,356
6,474,41665,-3689,-15718,-2602,114,3,356
6,475,41670,-3662,-15696,-2792,113,-12,356
6,476,41675,-3734,-15592,-2689,108,-22,353
6,477,41680,-3833,-15623,-2786,109,-45,350
6,478,41685,-3995,-15678,-3111,111,-51,351
6,479,41690,-4102,-15749,-3237,110,-21,350
6,480,41695,-4097,-15756,-3052,104,30,345
6,481,41700,-3957,-15683,-2728,101,73,340
6,482,41705,-3848,-15732,-2674,102,97,335
6,483,41710,-3728,-15865,-2862,99,107,332
6,484,41715,-3737,-15970,-2874,94,118,325
6,485,41720,-3779,-15907,-2659,88,118,322
6,486,41725,-3943,-15892,-2491,86,101,314
6,487,41730,-4166,-15948,-2650,83,82,310
6,488,41735,-4109,-15999,-3040,84,66,308
6,489,41740,-3899,-15937,-2958,78,70,305
6,490,41745,-3832,-15776,-2567,75,45,295
6,491,41750,-3945,-15719,-2461,78,-19,292
6,492,41755,-3918,-15734,-2865,80,-83,292
6,493,41760,-3796,-15737,-3102,77,-100,288
6,494,41765,-3766,-15593,-2919,70,-81,280
6,495,41770,-3970,-15529,-2744,72,-74,277
6,496,41775,-4010,-15481,-3040,75,-83,273
6,497,41780,-3977,-15538,-3359,74,-60,268
6,498,41785,-3829,-15569,-3209,68,-4,255
6,499,41790,-3840,-15591,-2783,64,41,243
6,500,41795,-3886,-15535,-2736,59,49,235
6,501,41800,-3940,-15491,-2916,59,56,229
6,502,41805,-3889,-15326,-2726,49,97,213
6,503,41810,-3807,-15429,-2579,48,82,206
6,504,41815,-3695,-15544,-2542,44,47,201
6,505,41820,-3600,-15540,-2634,44,9,197
6,506,41825,-3499,-15504,-2614,43,-11,186
6,507,41830,-3629,-15420,-2478,41,-29,182
6,508,41835,-3642,-15530,-2559,37,-71,178
6,509,41840,-3473,-15627,-2746,37,-106,177
6,510,41845,-3296,-15730,-2958,36,-114,171
6,511,41850,-3276,-15745,-3002,33,-96,160
6,512,41855,-3408,-15659,-3029,31,-84,149
6,513,41860,-3450,-15682,-3205,29,-85,142
6,514,41865,-3347,-15698,-3462,25,-80,135
6,515,41870,-3244,-15663,-3383,16,-49,126
6,516,41875,-3219,-15634,-3045,14,-16,113
6,517,41880,-3172,-15603,-2893,16,0,107
6,518,41885,-2894,-15566,-3109,16,9,106
6,519,41890,-2693,-15607,-3065,11,30,94
6,520,41895,-2828,-15742,-2902,7,29,79
6,521,41900,-3175,-15825,-2888,7,1,72
6,522,41905,-3143,-15686,-3200,2,-24,65
6,523,41910,-2968,-15475,-3200,-3,-10,57
6,524,41915,-2776,-15486,-2969,-3,1,42
6,525,41920,-2742,-15529,-2551,-2,-27,24
6,526,41925,-2886,-15512,-2475,-1,-110,21
6,527,41930,-2915,-15521,-3002,4,-195,22
6,528,41935,-2817,-15552,-3666,3,-210,13
6,529,41940,-2839,-15572,-3985,-7,-160,-8
6,530,41945,-2911,-15588,-3801,-17,-102,-26
6,531,41950,-2808,-15603,-3642,-21,-67,-37
6,532,41955,-2513,-15684,-3658,-18,-30,-49
6,533,41960,-2233,-15758,-3819,-18,21,-63
6,534,41965,-2296,-15714,-3594,-27,75,-87
6,535,41970,-2495,-15615,-3246,-34,90,-105
6,536,41975,-2309,-15713,-3208,-37,73,-111
6,537,41980,-2151,-15702,-3207,-40,78,-126
6,538,41985,-2149,-15727,-3143,-42,90,-143
6,539,41990,-2197,-15783,-3024,-46,79,-156
6,540,41995,-2185,-15753,-3193,-48,37,-166
6,541,42000,-2064,-15736,-3579,-49,5,-178
6,542,42005,-1949,-15845,-3647,-57,19,-192
6,543,42010,-1905,-15922,-3166,-66,40,-212
6,544,42015,-1796,-16013,-3028,-65,27,-224
6,545,42020,-1700,-15987,-3272,-67,1,-232
6,546,42025,-1685,-15789,-3475,-73,1,-247
6,547,42030,-1836,-15729,-3385,-80,11,-264
6,548,42035,-1692,-15767,-3138,-88,3,-277
6,549,42040,-1439,-15780,-2889,-92,-21,-285
6,550,42045,-1380,-15805,-2916,-92,-58,-301
6,551,42050,-1424,-15954,-3425,-93,-103,-315
6,552,42055,-1394,-16078,-3786,-99,-129,-326
6,553,42060,-1302,-16143,-3966,-109,-140,-342
6,554,42065,-1292,-16241,-4171,-116,-131,-358
6,555,42070,-1174,-16170,-4357,-122,-82,-377
6,556,42075,-1140,-16111,-4296,-126,-15,-403
6,557,42080,-1251,-16181,-4096,-129,22,-420
6,558,42085,-1126,-16390,-3753,-132,15,-432
6,559,42090,-816,-16467,-3558,-133,-9,-445
6,560,42095,-615,-16534,-3568,-134,-19,-460
6,561,42100,-607,-16609,-3530,-139,-31,-481
6,562,42105,-738,-16674,-3335,-147,-79,-501
6,563,42110,-657,-16753,-3353,-151,-149,-511
6,564,42115,-430,-16798,-3756,-154,-183,-524
6,565,42120,-325,-16880,-4191,-157,-150,-540
6,566,42125,-390,-16850,-4198,-166,-92,-562
6,567,42130,-397,-16902,-4155,-174,-63,-584
6,568,42135,-440,-17032,-4269,-177,-53,-600
6,569,42140,-538,-17006,-4316,-183,-35,-624
6,570,42145,-445,-16879,-4260,-190,-32,-644
6,571,42150,-93,-17058,-4083,-197,-51,-660
6,572,42155,-76,-17270,-4047,-205,-83,-684
6,573,42160,-128,-17146,-4179,-211,-103,-712
6,574,42165,-231,-16866,-4315,-217,-90,-735
6,575,42170,-417,-17015,-4237,-231,-79,-781
6,576,42175,-220,-17222,-4261,-239,-93,-801
6,577,42180,-49,-17277,-4093,-250,-78,-829
6,578,42185,-300,-17376,-3682,-259,-49,-858
6,579,42190,-717,-17469,-3164,-269,-64,-880
6,580,42195,-717,-17541,-3031,-275,-127,-892
6,581,42200,-363,-17600,-3247,-285,-188,-911
6,582,42205,-212,-17739,-3495,-292,-211,-940
6,583,42210,-430,-17854,-3489,-300,-221,-967
6,584,42215,-715,-17817,-3628,-311,-238,-994
6,585,42220,-883,-17667,-4190,-320,-234,-1018
6,586,42225,-979,-17431,-4506,-337,-177,-1048
6,587,42230,-1144,-17415,-4154,-349,-95,-1077
6,588,42235,-1129,-17569,-3907,-353,-46,-1102
6,589,42240,-945,-17647,-3897,-356,-21,-1125
6,590,42245,-1040,-17689,-3890,-364,-12,-1150
6,591,42250,-1152,-17582,-3790,-370,-25,-1178
6,592,42255,-1483,-17646,-3827,-377,-66,-1205
6,593,42260,-1580,-17810,-4153,-379,-110,-1220
6,594,42265,-1494,-17887,-4223,-382,-101,-1238
6,595,42270,-1708,-17906,-4050,-386,-49,-1261
6,596,42275,-2110,-17728,-3930,-383,-6,-1284
6,597,42280,-2297,-17529,-3788,-382,8,-1296
6,598,42285,-2694,-10977,-5792,-386,-9,-1310
6,599,42290,2581,-3967,-4095,-332,-113,-1269
6,600,42295,-18796,-555,19069,-420,796,-1414
6,601,42300,14324,-14215,-21185,-98,-1436,-68
6,602,42305,11145,-23835,-9122,-125,1256,-745
6,603,42310,-7884,-17110,12655,-478,2105,-1715
6,604,42315,-112,-18763,3707,-218,-1425,-904
6,605,42320,-5200,-13840,-6677,-82,-1959,-832
6,606,42325,-5224,-15357,-16129,-218,-944,-932
6,607,42330,-1414,-18559,-7870,-337,515,-975
6,608,42335,-2510,-15822,1922,-402,1029,-1186
6,609,42340,-1455,-16591,-879,-239,168,-1054
6,610,42345,-1265,-17614,-5986,-169,-198,-983
6,611,42350,-3456,-17051,-5535,-233,256,-1064
6,612,42355,-3676,-16293,-1835,-283,593,-1107
6,613,42360,-3318,-16205,472,-293,460,-1102
6,614,42365,-2553,-16805,-1802,-267,-25,-1046
6,615,42370,-2316,-17456,-4447,-248,-217,-1022
6,616,42375,-3421,-17283,-4531,-254,54,-1078
6,617,42380,-3875,-16970,-2953,-254,332,-1097
6,618,42385,-3254,-16650,-2110,-253,333,-1084
6,619,42390,-2483,-16599,-2735,-251,166,-1067
6,620,42395,-2337,-17029,-3118,-258,106,-1056
6,621,42400,-2612,-17004,-2565,-268,189,-1069
6,622,42405,-2655,-16423,-1925,-266,244,-1074
6,623,42410,-2517,-16201,-1974,-249,185,-1053
6,624,42415,-2518,-16272,-2642,-236,63,-1021
6,625,42420,-2395,-16118,-3124,-242,-11,-1008
6,626,42425,-2698,-16036,-2941,-251,-4,-1003
6,627,42430,-3003,-15899,-2370,-256,-10,-992
6,628,42435,-2683,-15710,-2425,-253,-86,-969
6,629,42440,-2608,-15784,-2955,-240,-149,-938
6,630,42445,-2446,-15742,-3231,-239,-150,-925
6,631,42450,-2782,-15705,-2839,-240,-116,-912
6,632,42455,-2701,-15526,-2903,-238,-128,-887
6,633,42460,-2495,-15539,-3117,-236,-144,-859
6,634,42465,-2489,-15620,-3275,-239,-129,-842
6,635,42470,-2391,-15607,-3126,-243,-87,-824
6,636,42475,-2266,-15652,-3217,-238,-43,-799
6,637,42480,-2310,-15676,-3374,-227,18,-779
6,638,42485,-2498,-15813,-3250,-224,83,-759
6,639,42490,-2676,-15840,-3050,-219,161,-739
6,640,42495,-2374,-15705,-3094,-219,240,-712
6,641,42500,-2094,-15494,-2729,-222,317,-692
6,642,42505,-1950,-15353,-2214,-220,304,-669
6,643,42510,-1732,-15355,-2257,-211,188,-630
6,644,42515,-1576,-15304,-2697,-202,55,-593
6,645,42520,-1868,-15332,-2913,-195,-36,-559
6,646,42525,-2029,-15439,-3094,-187,-90,-526
6,647,42530,-2106,-15625,-3233,-178,-112,-495
6,648,42535,-1669,-15607,-3813,-164,-135,-434
6,649,42540,-1737,-15587,-4007,-155,-124,-411
6,650,42545,-1676,-15658,-3717,-151,-105,-386
6,651,42550,-1605,-15747,-3547,-144,-98,-357
6,652,42555,-1428,-15769,-3762,-130,-79,-327
6,653,42560,-1545,-15760,-3699,-125,-14,-310
6,654,42565,-1928,-15692,-3485,-116,47,-291
6,655,42570,-1991,-15660,-3604,-107,82,-260
6,656,42575,-1555,-15562,-3886,-102,108,-231
6,657,42580,-1296,-15470,-3682,-97,150,-216
6,658,42585,-1288,-15515,-3360,-86,151,-194
6,659,42590,-1239,-15540,-3468,-72,104,-171
6,660,42595,-1118,-15466,-3739,-64,59,-143
6,661,42600,-1178,-15336,-3698,-57,57,-129
6,662,42605,-1390,-15299,-3699,-50,70,-117
6,663,42610,-1434,-15370,-3835,-41,69,-95
6,664,42615,-1345,-15377,-3788,-36,69,-76
6,665,42620,-1250,-15364,-3590,-29,65,-57
6,666,42625,-1205,-15483,-3607,-20,44,-39
6,667,42630,-1090,-15526,-3750,-12,26,-27
6,668,42635,-1096,-15434,-3676,-7,10,-13
6,669,42640,-1239,-15390,-3788,1,-7,3
6,670,42645,-1367,-15407,-4109,10,0,15
6,671,42650,-1400,-15561,-4365,14,48,24
6,672,42655,-1256,-15541,-4018,12,115,28
6,673,42660,-1165,-15518,-3535,16,154,36
6,674,42665,-1128,-15488,-3402,22,163,47
6,675,42670,-1016,-15562,-3514,28,167,56
6,676,42675,-966,-15500,-3311,28,178,64
6,677,42680,-971,-15366,-2956,31,165,78
6,678,42685,-863,-15340,-3031,37,120,96
6,679,42690,-847,-15312,-3252,40,66,105
6,680,42695,-958,-15168,-3197,37,14,115
6,681,42700,-1165,-15096,-3049,39,-55,126
6,682,42705,-1120,-15144,-3265,46,-133,143
6,683,42710,-950,-15239,-3604,47,-186,156
6,684,42715,-808,-15227,-3631,45,-208,164
6,685,42720,-834,-15401,-3631,51,-215,175
6,686,42725,-887,-15629,-3772,54,-199,182
6,687,42730,-948,-15655,-3821,52,-149,186
6,688,42735,-949,-15545,-3671,51,-80,191
6,689,42740,-922,-15473,-3652,51,-29,198
6,690,42745,-908,-15464,-3763,50,-2,205
6,691,42750,-760,-15577,-3547,48,9,215
6,692,42755,-859,-15638,-3298,46,10,221
6,693,42760,-982,-15714,-3261,54,1,228
6,694,42765,-947,-15781,-3377,59,-1,240
6,695,42770,-760,-15744,-3374,53,1,249
6,696,42775,-732,-15700,-3257,50,-22,260
6,697,42780,-703,-15789,-3210,50,-83,277
6,698,42785,-529,-15862,-3449,57,-147,292
6,699,42790,-490,-15800,-3658,57,-185,300
6,700,42795,-397,-15735,-3689,58,-215,313
6,701,42800,-406,-15918,-3529,61,-258,325
6,702,42805,-564,-16070,-3491,65,-314,335
6,703,42810,-552,-16022,-3883,73,-357,350
6,704,42815,-305,-16035,-4222,72,-355,360
6,705,42820,-129,-16057,-4121,71,-325,362
6,706,42825,-72,-15977,-3638,70,-302,372
6,707,42830,4,-15868,-3764,80,-324,387
6,708,42835,64,-15861,-4428,88,-329,397
6,709,42840,72,-15862,-4661,89,-286,401
6,710,42845,-45,-15842,-4532,90,-234,403
6,711,42850,-165,-15867,-4495,92,-197,414
6,712,42855,-130,-15897,-4961,96,-171,428
6,713,42860,98,-15733,-5267,94,-129,434
6,714,42865,166,-15509,-4678,90,-79,433
6,715,42870,207,-15590,-4178,97,-82,440
6,716,42875,200,-15823,-4251,106,-101,452
6,717,42880,432,-15901,-4550,111,-83,461
6,718,42885,480,-15928,-4474,107,-21,461
6,719,42890,422,-15894,-4231,104,9,463
6,720,42895,622,-15857,-4200,106,-18,471
6,721,42900,585,-15795,-4408,106,-90,475
6,722,42905,376,-15674,-3943,97,-122,480
6,723,42910,450,-15597,-3868,103,-189,493
6,724,42915,706,-15842,-4187,112,-237,505
6,725,42920,795,-16051,-4571,110,-249,511
6,726,42925,850,-16167,-5016,111,-228,510
6,727,42930,721,-16085,-4806,100,-178,511
6,728,42935,817,-16000,-4771,97,-162,513
6,729,42940,795,-15957,-4976,100,-144,516
6,730,42945,985,-16023,-5249,98,-90,517
6,731,42950,904,-16035,-4804,88,8,503
6,732,42955,635,-16036,-4001,83,49,497
6,733,42960,540,-16073,-3802,85,9,505
6,734,42965,746,-16037,-3889,85,-56,513
6,735,42970,915,-16039,-4371,87,-99,512
6,736,42975,819,-16024,-4465,81,-109,505
6,737,42980,570,-15898,-4624,74,-134,503
6,738,42985,482,-15894,-5027,76,-170,512
6,739,42990,653,-15969,-5365,73,-175,512
6,740,42995,710,-15892,-5300,73,-115,503
6,741,43000,591,-15878,-4938,70,-49,494
6,742,43005,420,-15900,-4681,71,-30,488
6,743,43010,712,-15910,-5076,75,-55,492
6,744,43015,1011,-15946,-5301,72,-39,488
6,745,43020,1025,-15997,-4842,67,-8,471
6,746,43025,1077,-15919,-4403,61,-23,466
6,747,43030,1166,-15894,-4538,67,-65,468
6,748,43035,1210,-15978,-5040,68,-80,469
6,749,43040,1036,-16079,-5284,65,-54,462
6,750,43045,861,-16138,-5184,64,-15,457
6,751,43050,813,-16060,-4953,62,30,452
6,752,43055,920,-16123,-4844,63,65,444
6,753,43060,968,-16130,-4638,64,93,435
6,754,43065,1049,-16173,-4379,64,88,431
6,755,43070,1068,-16142,-4103,61,28,428
6,756,43075,964,-16084,-4336,67,-49,425
6,757,43080,1024,-16040,-4971,69,-83,426
6,758,43085,955,-16004,-5276,66,-59,419
6,759,43090,920,-16035,-5213,68,-26,410
6,760,43095,924,-16013,-5064,67,-6,405
6,761,43100,905,-16084,-5120,69,20,396
6,762,43105,751,-16031,-4799,68,66,380
6,763,43110,608,-15770,-4331,63,80,369
6,764,43115,640,-15653,-4116,64,47,369
6,765,43120,862,-15764,-4347,65,-10,370
6,766,43125,943,-15911,-4432,62,-36,359
6,767,43130,851,-15970,-4500,62,-38,350
6,768,43135,643,-15885,-4597,57,-31,339
6,769,43140,446,-15731,-4597,54,-17,329
6,770,43145,308,-15631,-4613,53,5,322
6,771,43150,209,-15625,-4624,50,43,313
6,772,43155,198,-15599,-4471,49,87,303
6,773,43160,98,-15606,-4168,52,98,297
6,774,43165,209,-15743,-4270,52,72,292
6,775,43170,280,-15856,-4490,48,48,286
6,776,43175,197,-15987,-4490,42,36,274
6,777,43180,30,-16081,-4288,36,28,263
6,778,43185,-123,-16096,-4001,32,23,259
6,779,43190,-22,-16025,-3947,34,27,259
6,780,43195,149,-15968,-4072,32,40,254
6,781,43200,313,-15964,-4048,27,43,248
6,782,43205,233,-16061,-3823,22,0,239
6,783,43210,38,-16017,-3541,18,-70,230
6,784,43215,-127,-15931,-3534,18,-121,227
6,785,43220,-91,-15868,-3833,20,-126,223
6,786,43225,-61,-15808,-3930,15,-103,215
6,787,43230,-154,-15778,-3841,11,-103,208
6,788,43235,-226,-15663,-3901,14,-147,211
6,789,43240,-229,-15671,-4446,14,-182,209
6,790,43245,-256,-15805,-4735,10,-150,196
6,791,43250,-427,-15813,-4266,2,-87,182
6,792,43255,-517,-15729,-3929,-3,-60,174
6,793,43260,-596,-15748,-4110,-1,-60,172
6,794,43265,-543,-15718,-4425,-4,-36,169
6,795,43270,-639,-15741,-3515,-16,-2,151
6,796,43275,-754,-15715,-3563,-8,-49,153
6,797,43280,-659,-15693,-4205,-2,-85,156
6,798,43285,-560,-15660,-4415,-7,-64,144
6,799,43290,-551,-15606,-3989,-10,-48,135
6,800,43295,-655,-15551,-3699,-10,-80,133
6,801,43300,-735,-15503,-3989,-1,-137,132
6,802,43305,-673,-15509,-4486,3,-162,135
6,803,43310,-547,-15536,-4527,-4,-130,130
6,804,43315,-458,-15579,-4272,-6,-109,122
6,805,43320,-598,-15765,-4200,0,-127,119
6,806,43325,-730,-15895,-4452,1,-140,115
6,807,43330,-649,-15928,-4568,-2,-105,115
6,808,43335,-520,-16082,-4332,-8,-31,105
6,809,43340,-414,-16262,-3814,-10,25,90
6,810,43345,-468,-16336,-3476,-5,15,91
6,811,43350,-570,-16297,-3635,-1,-11,91
6,812,43355,-591,-16163,-4040,0,-6,93
6,813,43360,-498,-16011,-4041,-4,32,88
6,814,43365,-612,-15949,-3667,-5,43,81
6,815,43370,-774,-15979,-3532,-1,-5,81
6,816,43375,-789,-16014,-4123,10,-62,90
6,817,43380,-882,-15935,-4712,15,-54,86
6,818,43385,-1105,-15725,-4572,12,-9,77
6,819,43390,-1284,-15591,-4316,12,-2,77
6,820,43395,-1112,-15643,-4514,21,-31,84
6,821,43400,-892,-15697,-4638,21,-25,81
6,822,43405,-853,-15811,-4528,23,11,72
6,823,43410,-807,-15862,-4125,23,34,66
6,824,43415,-776,-15767,-3692,25,27,64
6,825,43420,-900,-15829,-3555,30,8,65
6,826,43425,-1066,-15969,-3600,32,14,63
6,827,43430,-1088,-16014,-3340,29,51,57
6,828,43435,-889,-15928,-2942,29,74,53
6,829,43440,-828,-15847,-2888,34,47,53
6,830,43445,-1031,-15914,-3167,36,-8,52
6,831,43450,-1301,-15936,-3409,34,-60,55
6,832,43455,-1335,-15925,-3639,34,-90,53
6,833,43460,-1486,-15886,-3763,34,-85,53
6,834,43465,-1575,-15918,-4005,35,-82,50
6,835,43470,-1669,-16002,-3962,37,-82,48
6,836,43475,-1668,-16009,-4193,37,-93,46
6,837,43480,-1657,-15916,-4446,43,-87,44
6,838,43485,-1855,-15838,-4297,42,-71,36
6,839,43490,-2091,-15725,-3912,43,-74,32
6,840,43495,-1908,-15698,-4023,48,-92,36
6,841,43500,-1766,-15793,-4098,53,-70,33
6,842,43505,-1766,-15856,-3852,54,-37,25
6,843,43510,-1644,-15965,-3587,59,-30,25
6,844,43515,-1473,-16077,-3647,62,-49,27
6,845,43520,-1508,-16243,-3906,64,-54,24
6,846,43525,-1644,-16237,-3969,63,-33,15
6,847,43530,-1825,-16066,-3830,61,-4,11
6,848,43535,-2023,-15872,-3976,64,9,14
6,849,43540,-1994,-15850,-4364,69,16,17
6,850,43545,-1812,-15887,-4414,64,37,15
6,851,43550,-1686,-15892,-3879,62,46,11
6,852,43555,-1724,-15912,-3451,64,25,9
6,853,43560,-1874,-15923,-3458,70,-15,12
6,854,43565,-1909,-15901,-3522,70,-43,13
6,855,43570,-1882,-15923,-3552,69,-56,12
6,856,43575,-1958,-15926,-3597,69,-67,15
6,857,43580,-1961,-15930,-3576,72,-90,18
6,858,43585,-1890,-15998,-3794,73,-106,22
6,859,43590,-1871,-16050,-4022,73,-98,22
6,860,43595,-1954,-16046,-4199,73,-77,19
6,861,43600,-2122,-16044,-4090,70,-60,15
6,862,43605,-2321,-15972,-3991,66,-49,11
6,863,43610,-2387,-16004,-4165,72,-35,15
6,864,43615,-2225,-16139,-4139,71,5,11
6,865,43620,-1961,-16280,-3822,62,47,7
6,866,43625,-1887,-16371,-3459,59,53,4
6,867,43630,-1932,-16343,-3579,60,27,1
6,868,43635,-2247,-16122,-3894,57,46,3
6,869,43640,-2379,-16063,-3704,51,85,-1
6,870,43645,-2158,-16126,-3693,52,104,4
6,871,43650,-1868,-16019,-3657,52,104,6
6,872,43655,-1904,-15925,-3467,51,87,5
6,873,43660,-2096,-15866,-3312,52,36,4
6,874,43665,-2149,-15882,-3449,52,-37,10
6,875,43670,-2038,-15835,-3656,50,-86,16
6,876,43675,-1963,-15802,-3786,49,-91,17
6,877,43680,-1959,-15858,-3861,49,-77,13
6,878,43685,-2116,-15836,-3873,45,-74,11
6,879,43690,-2112,-15877,-4228,52,-89,14
6,880,43695,-2156,-15911,-4488,48,-79,13
6,881,43700,-2166,-15835,-4421,41,-58,4
6,882,43705,-2216,-15920,-4339,39,-45,3
6,883,43710,-2230,-15955,-4333,37,-39,4
6,884,43715,-2155,-15895,-4147,36,-21,3
6,885,43720,-2190,-15885,-3931,41,-5,0
6,886,43725,-2250,-15818,-3854,41,11,-4
6,887,43730,-2294,-15734,-3860,43,26,2
6,888,43735,-2224,-15691,-3955,47,41,4
6,889,43740,-2170,-15700,-4043,45,57,2
6,890,43745,-2074,-15672,-4024,42,52,4
6,891,43750,-1994,-15683,-3880,42,36,3
6,892,43755,-1959,-15761,-3766,42,7,5
6,893,43760,-2044,-15770,-3673,39,-26,8
6,894,43765,-2061,-15689,-3626,40,-48,10
6,895,43770,-2069,-15690,-3760,42,-65,11
6,896,43775,-2059,-15770,-3986,41,-80,13
6,897,43780,-2078,-15747,-4081,40,-90,13
6,898,43785,-2035,-15705,-4062,39,-100,15
6,899,43790,-2014,-15753,-4058,39,-104,12
6,900,43795,-2104,-15825,-4020,38,-96,11
6,901,43800,-2162,-15788,-3929,37,-82,10
6,902,43805,-2188,-15771,-3930,37,-69,10
6,903,43810,-2146,-15847,-3981,35,-58,13
6,904,43815,-2064,-15963,-3909,32,-49,10
6,905,43820,-2048,-15956,-3821,31,-51,9
6,906,43825,-2040,-15959,-3866,30,-60,11
6,907,43830,-2019,-15898,-3934,29,-54,8
6,908,43835,-2013,-15880,-3879,26,-35,9
6,909,43840,-1966,-15818,-4005,25,-11,13
6,910,43845,-1987,-15767,-4145,24,11,6
6,911,43850,-2226,-15757,-4175,24,20,6
6,912,43855,-2307,-15732,-4201,22,21,10
6,913,43860,-2327,-15694,-4166,22,24,8
6,914,43865,-2279,-15784,-4122,23,27,9
6,915,43870,-2053,-15779,-4083,22,38,8
6,916,43875,-1992,-15775,-3907,21,49,8
6,917,43880,-1982,-15787,-3748,20,42,11
6,918,43885,-1962,-15820,-3679,23,27,11
6,919,43890,-1895,-15887,-3836,23,21,11
6,920,43895,-1791,-15941,-3871,23,34,9
6,921,43900,-2006,-15846,-3724,22,43,7
6,922,43905,-2218,-15844,-3655,22,28,10
6,923,43910,-2219,-15936,-3848,19,15,13
6,924,43915,-2149,-15950,-3873,21,26,13
6,925,43920,-2043,-15825,-3821,22,37,10
6,926,43925,-2011,-15771,-3703,19,27,8
6,927,43930,-2203,-15721,-3680,20,-11,10
6,928,43935,-2236,-15712,-3784,20,-52,14
6,929,43940,-2207,-15772,-3633,17,-61,16
6,930,43945,-2194,-15802,-3416,21,-54,16
6,931,43950,-2131,-15854,-3363,21,-58,17
6,932,43955,-1967,-15764,-3451,21,-71,18
6,933,43960,-1941,-15763,-3587,22,-79,19
6,934,43965,-2035,-15762,-3615,23,-71,20
6,935,43970,-2054,-15767,-3736,24,-53,20
6,936,43975,-2181,-15779,-3908,25,-31,18
6,937,43980,-2113,-15764,-4129,24,-1,20
6,938,43985,-1973,-15695,-4044,21,34,17
6,939,43990,-1974,-15737,-3702,18,56,16
6,940,43995,-2071,-15820,-3401,22,47,16
6,941,44000,-2228,-15855,-3869,21,35,13
6,942,44005,-2246,-15743,-3773,17,60,10
6,943,44010,-2205,-15715,-3576,18,63,7
6,944,44015,-2142,-15857,-3555,20,46,11
6,945,44020,-2082,-15981,-3577,25,20,12
6,946,44025,-2108,-15897,-3451,24,4,11
6,947,44030,-2131,-15824,-3336,20,-6,11
6,948,44035,-2030,-15864,-3293,22,-24,15
6,949,44040,-1827,-15973,-3286,26,-24,17
6,950,44045,-1785,-16037,-3179,25,-17,12
6,951,44050,-1827,-15985,-3170,24,-18,13
6,952,44055,-1845,-15887,-3437,26,-41,18
6,953,44060,-1908,-15886,-3763,27,-59,17
6,954,44065,-2103,-15929,-4066,24,-59,16
6,955,44070,-2275,-15846,-3986,23,-29,12
6,956,44075,-2313,-15779,-3891,24,16,10
6,957,44080,-2080,-15690,-3967,26,58,11
6,958,44085,-1938,-15732,-3788,25,94,8
6,959,44090,-2032,-15788,-3391,27,100,4
6,960,44095,-2136,-15859,-3084,26,62,5
6,961,44100,-1980,-15906,-3283,30,12,9
6,962,44105,-1833,-15979,-3458,27,-9,7
6,963,44110,-1976,-16068,-3378,29,-19,5
6,964,44115,-2225,-16078,-3282,32,-38,6
6,965,44120,-2333,-16062,-3650,39,-53,6
6,966,44125,-2301,-16048,-4028,39,-29,5
6,967,44130,-2160,-16008,-3839,39,24,0
6,968,44135,-2104,-15960,-3377,36,49,-4
6,969,44140,-2090,-15949,-3194,42,31,0
6,970,44145,-2063,-15913,-3295,44,-3,0
6,971,44150,-1963,-15782,-3261,39,-19,0
6,972,44155,-1832,-15745,-3183,37,-22,-3
6,973,44160,-1880,-15777,-3221,39,-45,-3
6,974,44165,-1997,-15856,-3467,41,-78,1
6,975,44170,-2064,-15878,-3684,39,-83,0
6,976,44175,-2148,-15852,-3934,37,-59,-2
6,977,44180,-2129,-15851,-3874,36,-15,-5
6,978,44185,-2094,-15850,-3527,37,9,-6
6,979,44190,-1980,-15896,-3338,37,1,-4
6,980,44195,-1888,-16003,-3281,41,-14,-2
6,981,44200,-1819,-16015,-3212,40,-15,-4
6,982,44205,-1817,-16070,-3027,37,-24,-5
6,983,44210,-1866,-16101,-2911,38,-54,0
6,984,44215,-1793,-16035,-3129,40,-77,3
6,985,44220,-1876,-16016,-3374,37,-67,-1
6,986,44225,-1862,-16003,-3537,33,-39,-3
6,987,44230,-1914,-15955,-3500,30,-14,0
6,988,44235,-2037,-15889,-3591,30,-15,1
6,989,44240,-2065,-15880,-3791,31,-20,3
6,990,44245,-2115,-15848,-3864,30,-5,2
6,991,44250,-2102,-15830,-3588,25,20,-3
6,992,44255,-2167,-15887,-3260,23,23,-4
6,993,44260,-2125,-15908,-3073,26,15,-2
6,994,44265,-1893,-15882,-3083,29,13,-1
6,995,44270,-1925,-15858,-2957,26,22,-5
6,996,44275,-2099,-15878,-2967,25,5,-7
6,997,44280,-2096,-15893,-3173,27,-39,-1
6,998,44285,-2064,-15889,-3453,27,-76,4
6,999,44290,-2120,-16024,-3591,24,-81,1
