event_id,seq,ts_ms,ax,ay,az,gx,gy,gz
6,0,616627,-3527,-16142,-1757,76,31,272
6,1,616628,-3527,-16142,-1757,76,31,272
6,2,616629,-3527,-16142,-1757,76,31,272
6,3,616630,-3527,-16142,-1757,76,31,272
6,4,616630,-3527,-16142,-1757,76,31,272
6,5,616631,-3527,-16142,-1757,76,31,272
6,6,616632,-3526,-16194,-1827,76,35,277
6,7,616632,-3526,-16194,-1827,76,35,277
6,8,616633,-3526,-16194,-1827,76,35,277
6,9,616634,-3526,-16194,-1827,76,35,277
6,10,616635,-3526,-16194,-1827,76,35,277
6,11,616635,-3526,-16194,-1827,76,35,277
6,12,616636,-3519,-16173,-1827,76,39,281
6,13,616637,-3519,-16173,-1827,76,39,281
6,14,616638,-3519,-16173,-1827,76,39,281
6,15,616638,-3519,-16173,-1827,76,39,281
6,16,616639,-3519,-16173,-1827,76,39,281
6,17,616640,-3519,-16173,-1827,76,39,281
6,18,616641,-3519,-16173,-1827,76,39,281
6,19,616641,-3490,-16207,-1839,77,40,284
6,20,616642,-3490,-16207,-1839,77,40,284
6,21,616643,-3490,-16207,-1839,77,40,284
6,22,616644,-3490,-16207,-1839,77,40,284
6,23,616644,-3490,-16207,-1839,77,40,284
6,24,616645,-3490,-16207,-1839,77,40,284
6,25,616646,-3490,-16207,-1839,77,40,284
6,26,616647,-3492,-16222,-1813,78,45,287
6,27,616647,-3492,-16222,-1813,78,45,287
6,28,616648,-3492,-16222,-1813,78,45,287
6,29,616649,-3492,-16222,-1813,78,45,287
6,30,616649,-3492,-16222,-1813,78,45,287
6,31,616650,-3492,-16222,-1813,78,45,287
6,32,616651,-3490,-16193,-1794,80,48,291
6,33,616652,-3490,-16193,-1794,80,48,291
6,34,616652,-3490,-16193,-1794,80,48,291
6,35,616653,-3490,-16193,-1794,80,48,291
6,36,616654,-3490,-16193,-1794,80,48,291
6,37,616655,-3490,-16193,-1794,80,48,291
6,38,616655,-3490,-16193,-1794,80,48,291
6,39,616656,-3450,-16145,-1896,82,50,294
6,40,616657,-3450,-16145,-1896,82,50,294
6,41,616658,-3450,-16145,-1896,82,50,294
6,42,616658,-3450,-16145,-1896,82,50,294
6,43,616659,-3450,-16145,-1896,82,50,294
6,44,616660,-3450,-16145,-1896,82,50,294
6,45,616661,-3450,-16145,-1896,82,50,294
6,46,616661,-3472,-16159,-1879,81,57,297
6,47,616662,-3472,-16159,-1879,81,57,297
6,48,616663,-3472,-16159,-1879,81,57,297
6,49,616663,-3472,-16159,-1879,81,57,297
6,50,616664,-3472,-16159,-1879,81,57,297
6,51,616665,-3472,-16159,-1879,81,57,297
6,52,616666,-3494,-16120,-1779,83,65,302
6,53,616666,-3494,-16120,-1779,83,65,302
6,54,616667,-3494,-16120,-1779,83,65,302
6,55,616668,-3494,-16120,-1779,83,65,302
6,56,616669,-3494,-16120,-1779,83,65,302
6,57,616669,-3494,-16120,-1779,83,65,302
6,58,616670,-3494,-16120,-1779,83,65,302
6,59,616671,-3433,-16170,-1796,83,63,303
6,60,616672,-3433,-16170,-1796,83,63,303
6,61,616672,-3433,-16170,-1796,83,63,303
6,62,616673,-3433,-16170,-1796,83,63,303
6,63,616674,-3433,-16170,-1796,83,63,303
6,64,616675,-3433,-16170,-1796,83,63,303
6,65,616675,-3433,-16170,-1796,83,63,303
6,66,616676,-3375,-16188,-1847,85,65,308
6,67,616677,-3375,-16188,-1847,85,65,308
6,68,616678,-3375,-16188,-1847,85,65,308
6,69,616678,-3375,-16188,-1847,85,65,308
6,70,616679,-3375,-16188,-1847,85,65,308
6,71,616680,-3375,-16188,-1847,85,65,308
6,72,616680,-3291,-16186,-1831,89,73,315
6,73,616681,-3291,-16186,-1831,89,73,315
6,74,616682,-3291,-16186,-1831,89,73,315
6,75,616683,-3291,-16186,-1831,89,73,315
6,76,616683,-3291,-16186,-1831,89,73,315
6,77,616684,-3291,-16186,-1831,89,73,315
6,78,616685,-3291,-16186,-1831,89,73,315
6,79,616686,-3253,-16181,-1811,86,83,318
6,80,616686,-3253,-16181,-1811,86,83,318
6,81,616687,-3253,-16181,-1811,86,83,318
6,82,616688,-3253,-16181,-1811,86,83,318
6,83,616689,-3253,-16181,-1811,86,83,318
6,84,616689,-3253,-16181,-1811,86,83,318
6,85,616690,-3253,-16181,-1811,86,83,318
6,86,616691,-3217,-16139,-1723,89,83,319
6,87,616692,-3217,-16139,-1723,89,83,319
6,88,616692,-3217,-16139,-1723,89,83,319
6,89,616693,-3217,-16139,-1723,89,83,319
6,90,616694,-3217,-16139,-1723,89,83,319
6,91,616694,-3217,-16139,-1723,89,83,319
6,92,616695,-3259,-16092,-1767,91,81,323
6,93,616696,-3259,-16092,-1767,91,81,323
6,94,616697,-3259,-16092,-1767,91,81,323
6,95,616697,-3259,-16092,-1767,91,81,323
6,96,616698,-3259,-16092,-1767,91,81,323
6,97,616699,-3259,-16092,-1767,91,81,323
6,98,616700,-3259,-16092,-1767,91,81,323
6,99,616700,-3286,-16102,-1832,92,81,326
6,100,616701,-3286,-16102,-1832,92,81,326
6,101,616702,-3286,-16102,-1832,92,81,326
6,102,616703,-3286,-16102,-1832,92,81,326
6,103,616703,-3286,-16102,-1832,92,81,326
6,104,616704,-3286,-16102,-1832,92,81,326
6,155,616742,-2977,-15974,-2020,101,125,359
6,156,616743,-2977,-15974,-2020,101,125,359
6,157,616744,-2977,-15974,-2020,101,125,359
6,158,616744,-2977,-15974,-2020,101,125,359
6,159,616745,-2916,-15987,-2147,102,134,363
6,160,616746,-2916,-15987,-2147,102,134,363
6,161,616747,-2916,-15987,-2147,102,134,363
6,162,616747,-2916,-15987,-2147,102,134,363
6,163,616748,-2916,-15987,-2147,102,134,363
6,164,616749,-2916,-15987,-2147,102,134,363
6,165,616749,-2918,-15952,-2076,101,153,366
6,166,616750,-2918,-15952,-2076,101,153,366
6,167,616751,-2918,-15952,-2076,101,153,366
6,168,616752,-2918,-15952,-2076,101,153,366
6,169,616752,-2918,-15952,-2076,101,153,366
6,170,616753,-2918,-15952,-2076,101,153,366
6,171,616754,-2918,-15952,-2076,101,153,366
6,172,616755,-2963,-15942,-1996,103,166,369
6,173,616755,-2963,-15942,-1996,103,166,369
6,174,616756,-2963,-15942,-1996,103,166,369
6,175,616757,-2963,-15942,-1996,103,166,369
6,176,616758,-2963,-15942,-1996,103,166,369
6,177,616758,-2963,-15942,-1996,103,166,369
6,178,616759,-2963,-15942,-1996,103,166,369
6,179,616760,-3010,-15934,-1979,103,171,372
6,180,616761,-3010,-15934,-1979,103,171,372
6,181,616761,-3010,-15934,-1979,103,171,372
6,182,616762,-3010,-15934,-1979,103,171,372
6,183,616763,-3010,-15934,-1979,103,171,372
6,184,616763,-3010,-15934,-1979,103,171,372
6,185,616764,-2930,-15968,-2059,103,178,372
6,186,616765,-2930,-15968,-2059,103,178,372
6,187,616766,-2930,-15968,-2059,103,178,372
6,188,616766,-2930,-15968,-2059,103,178,372
6,189,616767,-2930,-15968,-2059,103,178,372
6,190,616768,-2930,-15968,-2059,103,178,372
6,191,616769,-2930,-15968,-2059,103,178,372
6,192,616769,-2917,-15977,-2119,103,187,375
6,193,616770,-2917,-15977,-2119,103,187,375
6,194,616771,-2917,-15977,-2119,103,187,375
6,295,616845,-2992,-16069,-731,89,204,394
6,296,616846,-2992,-16069,-731,89,204,394
6,297,616847,-2992,-16069,-731,89,204,394
6,298,616848,-2992,-16069,-731,89,204,394
6,299,616848,-3000,-16057,-477,84,153,394
6,300,616849,-3000,-16057,-477,84,153,394
6,301,616850,-3000,-16057,-477,84,153,394
6,302,616851,-3000,-16057,-477,84,153,394
6,303,616851,-3000,-16057,-477,84,153,394
6,304,616852,-3000,-16057,-477,84,153,394
6,305,616853,-3000,-16057,-477,84,153,394
6,306,616854,-3049,-16023,-357,83,76,392
6,307,616854,-3049,-16023,-357,83,76,392
6,308,616855,-3049,-16023,-357,83,76,392
6,309,616856,-3049,-16023,-357,83,76,392
6,310,616857,-3049,-16023,-357,83,76,392
6,311,616857,-3049,-16023,-357,83,76,392
6,312,616858,-3065,-16008,-583,81,-22,396
6,313,616859,-3065,-16008,-583,81,-22,396
6,314,616860,-3065,-16008,-583,81,-22,396
6,315,616860,-3065,-16008,-583,81,-22,396
6,316,616861,-3065,-16008,-583,81,-22,396
6,317,616862,-3065,-16008,-583,81,-22,396
6,318,616862,-3065,-16008,-583,81,-22,396
6,319,616863,-3080,-15983,-939,80,-100,397
6,320,616864,-3080,-15983,-939,80,-100,397
6,321,616865,-3080,-15983,-939,80,-100,397
6,322,616865,-3080,-15983,-939,80,-100,397
6,323,616866,-3080,-15983,-939,80,-100,397
6,324,616867,-3080,-15983,-939,80,-100,397
6,325,616868,-3080,-15983,-939,80,-100,397
6,326,616868,-3025,-15934,-1053,73,-156,395
6,327,616869,-3025,-15934,-1053,73,-156,395
6,328,616870,-3025,-15934,-1053,73,-156,395
6,329,616871,-3025,-15934,-1053,73,-156,395
6,330,616871,-3025,-15934,-1053,73,-156,395
6,331,616872,-3025,-15934,-1053,73,-156,395
6,332,616873,-2967,-15889,-1106,63,-207,392
6,333,616874,-2967,-15889,-1106,63,-207,392
6,334,616874,-2967,-15889,-1106,63,-207,392
6,335,616875,-2967,-15889,-1106,63,-207,392
6,336,616876,-2967,-15889,-1106,63,-207,392
6,337,616876,-2967,-15889,-1106,63,-207,392
6,338,616877,-2967,-15889,-1106,63,-207,392
6,339,616878,-2900,-15798,-1327,61,-238,393
6,340,616879,-2900,-15798,-1327,61,-238,393
6,341,616879,-2900,-15798,-1327,61,-238,393
6,342,616881,-2900,-15798,-1327,61,-238,393
6,343,616881,-2900,-15798,-1327,61,-238,393
6,344,616882,-2900,-15798,-1327,61,-238,393
6,345,616883,-2826,-15743,-1768,60,-230,390
6,346,616883,-2826,-15743,-1768,60,-230,390
6,347,616884,-2826,-15743,-1768,60,-230,390
6,348,616885,-2826,-15743,-1768,60,-230,390
6,349,616886,-2826,-15743,-1768,60,-230,390
6,350,616886,-2826,-15743,-1768,60,-230,390
6,351,616887,-2826,-15743,-1768,60,-230,390
6,352,616888,-2705,-15760,-1982,55,-199,382
6,353,616889,-2705,-15760,-1982,55,-199,382
6,354,616889,-2705,-15760,-1982,55,-199,382
6,355,616890,-2705,-15760,-1982,55,-199,382
6,356,616891,-2705,-15760,-1982,55,-199,382
6,357,616892,-2705,-15760,-1982,55,-199,382
6,358,616892,-2705,-15760,-1982,55,-199,382
6,359,616893,-2591,-15738,-2117,49,-166,377
6,360,616894,-2591,-15738,-2117,49,-166,377
6,361,616895,-2591,-15738,-2117,49,-166,377
6,362,616895,-2591,-15738,-2117,49,-166,377
6,363,616896,-2591,-15738,-2117,49,-166,377
6,364,616897,-2591,-15738,-2117,49,-166,377
6,365,616897,-2541,-15677,-2238,47,-135,373
6,366,616898,-2541,-15677,-2238,47,-135,373
6,367,616899,-2541,-15677,-2238,47,-135,373
6,368,616900,-2541,-15677,-2238,47,-135,373
6,369,616900,-2541,-15677,-2238,47,-135,373
6,370,616901,-2541,-15677,-2238,47,-135,373
6,371,616902,-2541,-15677,-2238,47,-135,373
6,372,616903,-2575,-15556,-2357,43,-107,369
6,373,616903,-2575,-15556,-2357,43,-107,369
6,374,616904,-2575,-15556,-2357,43,-107,369
6,375,616905,-2575,-15556,-2357,43,-107,369
6,376,616906,-2575,-15556,-2357,43,-107,369
6,377,616906,-2575,-15556,-2357,43,-107,369
6,378,616907,-2575,-15556,-2357,43,-107,369
6,379,616908,-2679,-15446,-2473,38,-74,367
6,380,616909,-2679,-15446,-2473,38,-74,367
6,381,616909,-2679,-15446,-2473,38,-74,367
6,382,616910,-2679,-15446,-2473,38,-74,367
6,383,616911,-2679,-15446,-2473,38,-74,367
6,384,616912,-2679,-15446,-2473,38,-74,367
6,385,616912,-2725,-15352,-2453,34,-31,357
6,386,616913,-2725,-15352,-2453,34,-31,357
6,387,616914,-2725,-15352,-2453,34,-31,357
6,388,616914,-2725,-15352,-2453,34,-31,357
6,389,616915,-2725,-15352,-2453,34,-31,357
6,390,616916,-2725,-15352,-2453,34,-31,357
6,391,616917,-2725,-15352,-2453,34,-31,357
6,392,616917,-2912,-15308,-2331,30,14,352
6,393,616918,-2912,-15308,-2331,30,14,352
6,394,616919,-2912,-15308,-2331,30,14,352
6,395,616920,-2912,-15308,-2331,30,14,352
6,396,616920,-2912,-15308,-2331,30,14,352
6,397,616921,-2912,-15308,-2331,30,14,352
6,398,616922,-2912,-15308,-2331,30,14,352
6,399,616923,-3003,-15291,-2457,27,49,351
6,400,616923,-3003,-15291,-2457,27,49,351
6,401,616924,-3003,-15291,-2457,27,49,351
6,402,616925,-3003,-15291,-2457,27,49,351
6,403,616926,-3003,-15291,-2457,27,49,351
6,404,616926,-3003,-15291,-2457,27,49,351
6,405,616927,-2989,-15279,-2663,26,104,347
6,406,616928,-2989,-15279,-2663,26,104,347
6,407,616929,-2989,-15279,-2663,26,104,347
6,408,616929,-2989,-15279,-2663,26,104,347
6,409,616930,-2989,-15279,-2663,26,104,347
6,410,616931,-2989,-15279,-2663,26,104,347
6,411,616931,-2989,-15279,-2663,26,104,347
6,412,616932,-2960,-15273,-2272,23,189,339
6,413,616933,-2960,-15273,-2272,23,189,339
6,414,616934,-2960,-15273,-2272,23,189,339
6,415,616934,-2960,-15273,-2272,23,189,339
6,416,616935,-2960,-15273,-2272,23,189,339
6,417,616936,-2960,-15273,-2272,23,189,339
6,418,616937,-2960,-15273,-2272,23,189,339
6,419,616937,-3035,-15212,-1883,16,223,333
6,420,616938,-3035,-15212,-1883,16,223,333
6,421,616939,-3035,-15212,-1883,16,223,333
6,422,616940,-3035,-15212,-1883,16,223,333
6,423,616940,-3035,-15212,-1883,16,223,333
6,424,616941,-3035,-15212,-1883,16,223,333
6,425,616942,-3035,-15212,-1883,16,223,333
6,426,616943,-3163,-15183,-1908,18,208,330
6,427,616943,-3163,-15183,-1908,18,208,330
6,428,616944,-3163,-15183,-1908,18,208,330
6,429,616945,-3163,-15183,-1908,18,208,330
6,430,616945,-3163,-15183,-1908,18,208,330
6,431,616946,-3163,-15183,-1908,18,208,330
6,432,616947,-3171,-15242,-2012,18,199,327
6,433,616948,-3171,-15242,-2012,18,199,327
6,434,616948,-3171,-15242,-2012,18,199,327
6,435,616949,-3171,-15242,-2012,18,199,327
6,436,616950,-3171,-15242,-2012,18,199,327
6,437,616951,-3171,-15242,-2012,18,199,327
6,438,616951,-3171,-15242,-2012,18,199,327
6,439,616952,-3190,-15330,-1974,13,226,324
6,440,616953,-3190,-15330,-1974,13,226,324
6,441,616954,-3190,-15330,-1974,13,226,324
6,442,616954,-3190,-15330,-1974,13,226,324
6,443,616955,-3190,-15330,-1974,13,226,324
6,444,616956,-3190,-15330,-1974,13,226,324
6,445,616957,-3190,-15330,-1974,13,226,324
6,446,616957,-3131,-15432,-1665,11,250,319
6,447,616958,-3131,-15432,-1665,11,250,319
6,448,616959,-3131,-15432,-1665,11,250,319
6,449,616960,-3131,-15432,-1665,11,250,319
6,450,616960,-3131,-15432,-1665,11,250,319
6,451,616961,-3131,-15432,-1665,11,250,319
6,452,616962,-3304,-15534,-1379,10,225,314
6,453,616962,-3304,-15534,-1379,10,225,314
6,454,616963,-3304,-15534,-1379,10,225,314
6,455,616964,-3304,-15534,-1379,10,225,314
6,456,616965,-3304,-15534,-1379,10,225,314
6,457,616965,-3304,-15534,-1379,10,225,314
6,458,616966,-3304,-15534,-1379,10,225,314
6,459,616967,-3426,-15541,-1607,13,164,314
6,460,616968,-3426,-15541,-1607,13,164,314
6,461,616968,-3426,-15541,-1607,13,164,314
6,462,616969,-3426,-15541,-1607,13,164,314
6,463,616970,-3426,-15541,-1607,13,164,314
6,464,616971,-3426,-15541,-1607,13,164,314
6,465,616971,-3426,-15541,-1607,13,164,314
6,466,616972,-3500,-15641,-1819,9,129,309
6,467,616973,-3500,-15641,-1819,9,129,309
6,468,616974,-3500,-15641,-1819,9,129,309
6,469,616974,-3500,-15641,-1819,9,129,309
6,470,616975,-3500,-15641,-1819,9,129,309
6,471,616976,-3500,-15641,-1819,9,129,309
6,472,616977,-3626,-15748,-1843,9,135,302
6,473,616977,-3626,-15748,-1843,9,135,302
6,474,616978,-3626,-15748,-1843,9,135,302
6,475,616979,-3626,-15748,-1843,9,135,302
6,476,616980,-3626,-15748,-1843,9,135,302
6,477,616980,-3626,-15748,-1843,9,135,302
6,478,616981,-3626,-15748,-1843,9,135,302
6,479,616982,-3756,-15763,-1555,4,148,295
6,480,616982,-3756,-15763,-1555,4,148,295
6,481,616983,-3756,-15763,-1555,4,148,295
6,482,616984,-3756,-15763,-1555,4,148,295
6,483,616985,-3756,-15763,-1555,4,148,295
6,484,616985,-3756,-15763,-1555,4,148,295
6,485,616986,-3756,-15763,-1555,4,148,295
6,486,616987,-3735,-15865,-1533,4,123,292
6,487,616988,-3735,-15865,-1533,4,123,292
6,488,616988,-3735,-15865,-1533,4,123,292
6,489,616989,-3735,-15865,-1533,4,123,292
6,490,616990,-3735,-15865,-1533,4,123,292
6,491,616991,-3735,-15865,-1533,4,123,292
6,492,616991,-3758,-15927,-1641,5,95,288
6,493,616992,-3758,-15927,-1641,5,95,288
6,494,616993,-3758,-15927,-1641,5,95,288
6,495,616994,-3758,-15927,-1641,5,95,288
6,496,616994,-3758,-15927,-1641,5,95,288
6,497,616995,-3758,-15927,-1641,5,95,288
6,498,616996,-3758,-15927,-1641,5,95,288
6,499,616996,-3779,-15978,-1808,5,84,280
6,500,616997,-3779,-15978,-1808,5,84,280
6,501,616998,-3779,-15978,-1808,5,84,280
6,502,616999,-3779,-15978,-1808,5,84,280
6,503,616999,-3779,-15978,-1808,5,84,280
6,504,617000,-3779,-15978,-1808,5,84,280
6,505,617001,-3779,-15978,-1808,5,84,280
6,506,617002,-3935,-15975,-1834,3,94,272
6,507,617002,-3935,-15975,-1834,3,94,272
6,508,617003,-3935,-15975,-1834,3,94,272
6,509,617004,-3935,-15975,-1834,3,94,272
6,510,617005,-3935,-15975,-1834,3,94,272
6,511,617005,-3935,-15975,-1834,3,94,272
6,512,617006,-4019,-15913,-1762,1,104,262
6,513,617007,-4019,-15913,-1762,1,104,262
6,514,617008,-4019,-15913,-1762,1,104,262
6,515,617008,-4019,-15913,-1762,1,104,262
6,516,617009,-4019,-15913,-1762,1,104,262
6,517,617010,-4019,-15913,-1762,1,104,262
6,518,617011,-4019,-15913,-1762,1,104,262
6,519,617011,-4106,-15912,-1712,3,96,256
6,520,617012,-4106,-15912,-1712,3,96,256
6,521,617013,-4106,-15912,-1712,3,96,256
6,522,617013,-4106,-15912,-1712,3,96,256
6,523,617014,-4106,-15912,-1712,3,96,256
6,524,617015,-4106,-15912,-1712,3,96,256
6,525,617016,-4106,-15912,-1712,3,96,256
6,526,617016,-4135,-15900,-1745,3,76,251
6,527,617017,-4135,-15900,-1745,3,76,251
6,528,617018,-4135,-15900,-1745,3,76,251
6,529,617019,-4135,-15900,-1745,3,76,251
6,530,617019,-4135,-15900,-1745,3,76,251
6,531,617020,-4135,-15900,-1745,3,76,251
6,532,617021,-4194,-15854,-1856,5,62,245
6,533,617022,-4194,-15854,-1856,5,62,245
6,534,617022,-4194,-15854,-1856,5,62,245
6,535,617023,-4194,-15854,-1856,5,62,245
6,536,617024,-4194,-15854,-1856,5,62,245
6,537,617025,-4194,-15854,-1856,5,62,245
6,538,617025,-4194,-15854,-1856,5,62,245
6,539,617026,-4182,-15869,-1948,7,62,237
6,540,617027,-4182,-15869,-1948,7,62,237
6,541,617027,-4182,-15869,-1948,7,62,237
6,542,617028,-4182,-15869,-1948,7,62,237
6,543,617029,-4182,-15869,-1948,7,62,237
6,544,617030,-4182,-15869,-1948,7,62,237
6,545,617031,-4180,-15879,-1953,3,73,229
6,546,617032,-4180,-15879,-1953,3,73,229
6,547,617032,-4180,-15879,-1953,3,73,229
6,548,617033,-4180,-15879,-1953,3,73,229
6,549,617034,-4180,-15879,-1953,3,73,229
6,550,617034,-4180,-15879,-1953,3,73,229
6,551,617035,-4180,-15879,-1953,3,73,229
6,552,617036,-4261,-15873,-1968,2,82,221
6,553,617037,-4261,-15873,-1968,2,82,221
6,554,617037,-4261,-15873,-1968,2,82,221
6,555,617038,-4261,-15873,-1968,2,82,221
6,556,617039,-4261,-15873,-1968,2,82,221
6,557,617040,-4261,-15873,-1968,2,82,221
6,558,617040,-4261,-15873,-1968,2,82,221
6,559,617041,-4352,-15815,-2030,6,88,210
6,560,617042,-4352,-15815,-2030,6,88,210
6,561,617043,-4352,-15815,-2030,6,88,210
6,562,617043,-4352,-15815,-2030,6,88,210
6,563,617044,-4352,-15815,-2030,6,88,210
6,564,617045,-4352,-15815,-2030,6,88,210
6,565,617046,-4419,-15790,-2123,6,102,200
6,566,617046,-4419,-15790,-2123,6,102,200
6,567,617047,-4419,-15790,-2123,6,102,200
6,568,617048,-4419,-15790,-2123,6,102,200
6,569,617048,-4419,-15790,-2123,6,102,200
6,570,617049,-4419,-15790,-2123,6,102,200
6,571,617050,-4419,-15790,-2123,6,102,200
6,572,617051,-4418,-15807,-2030,6,126,191
6,573,617051,-4418,-15807,-2030,6,126,191
6,574,617052,-4418,-15807,-2030,6,126,191
6,575,617053,-4418,-15807,-2030,6,126,191
6,576,617054,-4418,-15807,-2030,6,126,191
6,577,617054,-4418,-15807,-2030,6,126,191
6,578,617055,-4418,-15807,-2030,6,126,191
6,579,617056,-4393,-15805,-1946,7,147,181
6,580,617057,-4393,-15805,-1946,7,147,181
6,581,617057,-4393,-15805,-1946,7,147,181
6,582,617058,-4393,-15805,-1946,7,147,181
6,583,617059,-4393,-15805,-1946,7,147,181
6,584,617060,-4393,-15805,-1946,7,147,181
6,585,617060,-4352,-15822,-1839,5,159,170
6,586,617061,-4352,-15822,-1839,5,159,170
6,587,617062,-4352,-15822,-1839,5,159,170
6,588,617063,-4352,-15822,-1839,5,159,170
6,589,617063,-4352,-15822,-1839,5,159,170
6,590,617064,-4352,-15822,-1839,5,159,170
6,591,617065,-4352,-15822,-1839,5,159,170
6,592,617065,-4391,-15728,-1767,7,158,161
6,593,617066,-4391,-15728,-1767,7,158,161
6,594,617067,-4391,-15728,-1767,7,158,161
6,595,617068,-4391,-15728,-1767,7,158,161
6,596,617068,-4391,-15728,-1767,7,158,161
6,597,617069,-4391,-15728,-1767,7,158,161
6,598,617070,-4391,-15728,-1767,7,158,161
6,599,617071,-4428,-15721,-1745,8,148,154
6,600,617071,-4428,-15721,-1745,8,148,154
6,601,617072,-4428,-15721,-1745,8,148,154
6,602,617073,-4428,-15721,-1745,8,148,154
6,603,617074,-4428,-15721,-1745,8,148,154
6,604,617074,-4428,-15721,-1745,8,148,154
6,605,617075,-4442,-15699,-1721,9,137,147
6,606,617076,-4442,-15699,-1721,9,137,147
6,607,617077,-4442,-15699,-1721,9,137,147
6,608,617077,-4442,-15699,-1721,9,137,147
6,609,617078,-4442,-15699,-1721,9,137,147
6,610,617079,-4442,-15699,-1721,9,137,147
6,611,617079,-4442,-15699,-1721,9,137,147
6,612,617080,-4440,-15701,-1739,9,118,138
6,613,617081,-4440,-15701,-1739,9,118,138
6,614,617082,-4440,-15701,-1739,9,118,138
6,615,617082,-4440,-15701,-1739,9,118,138
6,616,617083,-4440,-15701,-1739,9,118,138
6,617,617084,-4440,-15701,-1739,9,118,138
6,618,617085,-4440,-15701,-1739,9,118,138
6,619,617085,-4525,-15709,-1782,8,102,127
6,620,617086,-4525,-15709,-1782,8,102,127
6,621,617087,-4525,-15709,-1782,8,102,127
6,622,617088,-4525,-15709,-1782,8,102,127
6,623,617088,-4525,-15709,-1782,8,102,127
6,624,617089,-4525,-15709,-1782,8,102,127
6,625,617090,-4458,-15708,-1850,9,88,122
6,626,617091,-4458,-15708,-1850,9,88,122
6,627,617091,-4458,-15708,-1850,9,88,122
6,628,617092,-4458,-15708,-1850,9,88,122
6,629,617093,-4458,-15708,-1850,9,88,122
6,630,617094,-4458,-15708,-1850,9,88,122
6,631,617094,-4458,-15708,-1850,9,88,122
6,632,617095,-4370,-15737,-1835,11,75,116
6,633,617096,-4370,-15737,-1835,11,75,116
6,634,617097,-4370,-15737,-1835,11,75,116
6,635,617097,-4370,-15737,-1835,11,75,116
6,636,617098,-4370,-15737,-1835,11,75,116
6,637,617099,-4370,-15737,-1835,11,75,116
6,638,617099,-4370,-15737,-1835,11,75,116
6,639,617100,-4424,-15729,-1783,14,60,102
6,640,617101,-4424,-15729,-1783,14,60,102
6,641,617102,-4424,-15729,-1783,14,60,102
6,642,617102,-4424,-15729,-1783,14,60,102
6,643,617103,-4424,-15729,-1783,14,60,102
6,644,617104,-4424,-15729,-1783,14,60,102
6,645,617105,-4486,-15780,-1863,14,39,94
6,646,617105,-4486,-15780,-1863,14,39,94
6,647,617106,-4486,-15780,-1863,14,39,94
6,648,617107,-4486,-15780,-1863,14,39,94
6,649,617108,-4486,-15780,-1863,14,39,94
6,650,617108,-4486,-15780,-1863,14,39,94
6,651,617109,-4486,-15780,-1863,14,39,94
6,652,617110,-4422,-15781,-2040,15,27,90
6,653,617111,-4422,-15781,-2040,15,27,90
6,654,617111,-4422,-15781,-2040,15,27,90
6,655,617112,-4422,-15781,-2040,15,27,90
6,656,617113,-4422,-15781,-2040,15,27,90
6,657,617113,-4422,-15781,-2040,15,27,90
6,658,617114,-4422,-15781,-2040,15,27,90
6,659,617115,-4405,-15790,-2051,14,33,81
6,660,617116,-4405,-15790,-2051,14,33,81
6,661,617116,-4405,-15790,-2051,14,33,81
6,662,617117,-4405,-15790,-2051,14,33,81
6,663,617118,-4405,-15790,-2051,14,33,81
6,664,617119,-4405,-15790,-2051,14,33,81
6,665,617119,-4463,-15817,-1845,13,41,68
6,666,617120,-4463,-15817,-1845,13,41,68
6,667,617121,-4463,-15817,-1845,13,41,68
6,668,617122,-4463,-15817,-1845,13,41,68
6,669,617122,-4463,-15817,-1845,13,41,68
6,670,617123,-4463,-15817,-1845,13,41,68
6,671,617124,-4463,-15817,-1845,13,41,68
6,672,617125,-4527,-15844,-1665,17,31,59
6,673,617125,-4527,-15844,-1665,17,31,59
6,674,617126,-4527,-15844,-1665,17,31,59
6,675,617127,-4527,-15844,-1665,17,31,59
6,676,617128,-4527,-15844,-1665,17,31,59
6,677,617128,-4527,-15844,-1665,17,31,59
6,678,617129,-4527,-15844,-1665,17,31,59
6,679,617130,-4537,-15776,-1721,19,16,58
6,680,617130,-4537,-15776,-1721,19,16,58
6,681,617131,-4537,-15776,-1721,19,16,58
6,682,617132,-4537,-15776,-1721,19,16,58
6,683,617133,-4537,-15776,-1721,19,16,58
6,684,617133,-4537,-15776,-1721,19,16,58
6,685,617134,-4537,-15776,-1721,19,16,58
6,686,617135,-4466,-15754,-1839,16,13,49
6,687,617136,-4466,-15754,-1839,16,13,49
6,688,617136,-4466,-15754,-1839,16,13,49
6,689,617137,-4466,-15754,-1839,16,13,49
6,690,617138,-4466,-15754,-1839,16,13,49
6,691,617139,-4466,-15754,-1839,16,13,49
6,692,617139,-4456,-15719,-1692,15,19,39
6,693,617140,-4456,-15719,-1692,15,19,39
6,694,617141,-4456,-15719,-1692,15,19,39
6,695,617142,-4456,-15719,-1692,15,19,39
6,696,617142,-4456,-15719,-1692,15,19,39
6,697,617143,-4456,-15719,-1692,15,19,39
6,698,617144,-4456,-15719,-1692,15,19,39
6,699,617144,-4464,-15690,-1547,14,8,33
6,700,617145,-4464,-15690,-1547,14,8,33
6,701,617146,-4464,-15690,-1547,14,8,33
6,702,617147,-4464,-15690,-1547,14,8,33
6,703,617147,-4464,-15690,-1547,14,8,33
6,704,617148,-4464,-15690,-1547,14,8,33
6,705,617149,-4464,-15690,-1547,14,8,33
6,706,617150,-4429,-15703,-1590,14,-15,26
6,707,617150,-4429,-15703,-1590,14,-15,26
6,708,617151,-4429,-15703,-1590,14,-15,26
6,709,617152,-4429,-15703,-1590,14,-15,26
6,710,617153,-4429,-15703,-1590,14,-15,26
6,711,617153,-4429,-15703,-1590,14,-15,26
6,712,617154,-4344,-15692,-1685,15,-29,21
6,713,617155,-4344,-15692,-1685,15,-29,21
6,714,617156,-4344,-15692,-1685,15,-29,21
6,715,617156,-4344,-15692,-1685,15,-29,21
6,716,617157,-4344,-15692,-1685,15,-29,21
6,717,617158,-4344,-15692,-1685,15,-29,21
6,718,617158,-4344,-15692,-1685,15,-29,21
6,719,617159,-4338,-15679,-1762,16,-30,15
6,720,617160,-4338,-15679,-1762,16,-30,15
6,721,617161,-4338,-15679,-1762,16,-30,15
6,722,617161,-4338,-15679,-1762,16,-30,15
6,723,617162,-4338,-15679,-1762,16,-30,15
6,724,617163,-4338,-15679,-1762,16,-30,15
6,725,617164,-4338,-15679,-1762,16,-30,15
6,726,617164,-4296,-15632,-1747,18,-33,8
6,727,617165,-4296,-15632,-1747,18,-33,8
6,728,617166,-4296,-15632,-1747,18,-33,8
6,729,617167,-4296,-15632,-1747,18,-33,8
6,730,617167,-4296,-15632,-1747,18,-33,8
6,731,617168,-4296,-15632,-1747,18,-33,8
6,732,617169,-4221,-15662,-1814,16,-46,2
6,733,617170,-4221,-15662,-1814,16,-46,2
6,734,617170,-4221,-15662,-1814,16,-46,2
6,735,617171,-4221,-15662,-1814,16,-46,2
6,736,617172,-4221,-15662,-1814,16,-46,2
6,737,617173,-4221,-15662,-1814,16,-46,2
6,738,617173,-4221,-15662,-1814,16,-46,2
6,739,617174,-4193,-15658,-1943,18,-54,-4
6,740,617175,-4193,-15658,-1943,18,-54,-4
6,741,617175,-4193,-15658,-1943,18,-54,-4
6,742,617177,-4193,-15658,-1943,18,-54,-4
6,743,617177,-4193,-15658,-1943,18,-54,-4
6,744,617178,-4193,-15658,-1943,18,-54,-4
6,745,617179,-4199,-15689,-2024,14,-48,-13
6,746,617180,-4199,-15689,-2024,14,-48,-13
6,747,617180,-4199,-15689,-2024,14,-48,-13
6,748,617181,-4199,-15689,-2024,14,-48,-13
6,749,617182,-4199,-15689,-2024,14,-48,-13
6,750,617183,-4199,-15689,-2024,14,-48,-13
6,751,617183,-4199,-15689,-2024,14,-48,-13
6,752,617184,-4198,-15666,-2014,15,-36,-19
6,753,617185,-4198,-15666,-2014,15,-36,-19
6,754,617185,-4198,-15666,-2014,15,-36,-19
6,755,617186,-4198,-15666,-2014,15,-36,-19
6,756,617187,-4198,-15666,-2014,15,-36,-19
6,757,617188,-4198,-15666,-2014,15,-36,-19
6,758,617188,-4247,-15621,-2009,16,-22,-23
6,759,617189,-4247,-15621,-2009,16,-22,-23
6,760,617190,-4247,-15621,-2009,16,-22,-23
6,761,617191,-4247,-15621,-2009,16,-22,-23
6,762,617191,-4247,-15621,-2009,16,-22,-23
6,763,617192,-4247,-15621,-2009,16,-22,-23
6,764,617193,-4247,-15621,-2009,16,-22,-23
6,765,617194,-4249,-15564,-1978,13,-6,-30
6,766,617194,-4249,-15564,-1978,13,-6,-30
6,767,617195,-4249,-15564,-1978,13,-6,-30
6,768,617196,-4249,-15564,-1978,13,-6,-30
6,769,617197,-4249,-15564,-1978,13,-6,-30
6,770,617197,-4249,-15564,-1978,13,-6,-30
6,771,617198,-4249,-15564,-1978,13,-6,-30
6,772,617199,-4275,-15567,-1811,12,7,-35
6,773,617199,-4275,-15567,-1811,12,7,-35
6,774,617200,-4275,-15567,-1811,12,7,-35
6,775,617201,-4275,-15567,-1811,12,7,-35
6,776,617202,-4275,-15567,-1811,12,7,-35
6,777,617202,-4275,-15567,-1811,12,7,-35
6,778,617203,-4275,-15567,-1811,12,7,-35
6,779,617204,-4266,-15600,-1580,11,10,-39
6,780,617205,-4266,-15600,-1580,11,10,-39
6,781,617205,-4266,-15600,-1580,11,10,-39
6,782,617206,-4266,-15600,-1580,11,10,-39
6,783,617207,-4266,-15600,-1580,11,10,-39
6,784,617208,-4266,-15600,-1580,11,10,-39
6,785,617208,-4261,-15597,-1507,8,4,-46
6,786,617209,-4261,-15597,-1507,8,4,-46
6,787,617210,-4261,-15597,-1507,8,4,-46
6,788,617211,-4261,-15597,-1507,8,4,-46
6,789,617211,-4261,-15597,-1507,8,4,-46
6,790,617212,-4261,-15597,-1507,8,4,-46
6,791,617213,-4261,-15597,-1507,8,4,-46
6,792,617214,-4235,-15642,-1496,6,-9,-49
6,793,617214,-4235,-15642,-1496,6,-9,-49
6,794,617215,-4235,-15642,-1496,6,-9,-49
6,795,617216,-4235,-15642,-1496,6,-9,-49
6,796,617217,-4235,-15642,-1496,6,-9,-49
6,797,617217,-4235,-15642,-1496,6,-9,-49
6,798,617218,-4109,-15640,-1518,7,-27,-52
6,799,617219,-4109,-15640,-1518,7,-27,-52
6,800,617220,-4109,-15640,-1518,7,-27,-52
6,801,617220,-4109,-15640,-1518,7,-27,-52
6,802,617221,-4109,-15640,-1518,7,-27,-52
6,803,617222,-4109,-15640,-1518,7,-27,-52
6,804,617222,-4109,-15640,-1518,7,-27,-52
6,805,617223,-4020,-15628,-1545,6,-37,-58
6,806,617224,-4020,-15628,-1545,6,-37,-58
6,807,617225,-4020,-15628,-1545,6,-37,-58
6,808,617225,-4020,-15628,-1545,6,-37,-58
6,809,617226,-4020,-15628,-1545,6,-37,-58
6,810,617227,-4020,-15628,-1545,6,-37,-58
6,811,617228,-4020,-15628,-1545,6,-37,-58
6,812,617228,-4055,-15584,-1487,4,-52,-64
6,813,617229,-4055,-15584,-1487,4,-52,-64
6,814,617230,-4055,-15584,-1487,4,-52,-64
6,815,617231,-4055,-15584,-1487,4,-52,-64
6,816,617231,-4055,-15584,-1487,4,-52,-64
6,817,617232,-4055,-15584,-1487,4,-52,-64
6,818,617233,-4055,-15584,-1487,4,-52,-64
6,819,617234,-4090,-15561,-1570,0,-73,-65
6,820,617234,-4090,-15561,-1570,0,-73,-65
6,821,617235,-4090,-15561,-1570,0,-73,-65
6,822,617236,-4090,-15561,-1570,0,-73,-65
6,823,617236,-4090,-15561,-1570,0,-73,-65
6,824,617237,-4090,-15561,-1570,0,-73,-65
6,825,617238,-4043,-15557,-1741,1,-84,-68
6,826,617239,-4043,-15557,-1741,1,-84,-68
6,827,617239,-4043,-15557,-1741,1,-84,-68
6,828,617240,-4043,-15557,-1741,1,-84,-68
6,829,617241,-4043,-15557,-1741,1,-84,-68
6,830,617242,-4043,-15557,-1741,1,-84,-68
6,831,617242,-4043,-15557,-1741,1,-84,-68
6,832,617243,-3955,-15503,-1805,0,-73,-68
6,833,617244,-3955,-15503,-1805,0,-73,-68
6,834,617245,-3955,-15503,-1805,0,-73,-68
6,835,617245,-3955,-15503,-1805,0,-73,-68
6,836,617246,-3955,-15503,-1805,0,-73,-68
6,837,617247,-3955,-15503,-1805,0,-73,-68
6,838,617248,-3955,-15503,-1805,0,-73,-68
6,839,617248,-3929,-15514,-1832,-1,-57,-72
6,840,617249,-3929,-15514,-1832,-1,-57,-72
6,841,617250,-3929,-15514,-1832,-1,-57,-72
6,842,617251,-3929,-15514,-1832,-1,-57,-72
6,843,617251,-3929,-15514,-1832,-1,-57,-72
6,844,617252,-3929,-15514,-1832,-1,-57,-72
6,845,617253,-3898,-15521,-1904,-2,-56,-77
6,846,617253,-3898,-15521,-1904,-2,-56,-77
6,847,617254,-3898,-15521,-1904,-2,-56,-77
6,848,617255,-3898,-15521,-1904,-2,-56,-77
6,849,617256,-3898,-15521,-1904,-2,-56,-77
6,850,617256,-3898,-15521,-1904,-2,-56,-77
6,851,617257,-3898,-15521,-1904,-2,-56,-77
6,852,617258,-3846,-15466,-1937,-6,-56,-78
6,853,617259,-3846,-15466,-1937,-6,-56,-78
6,854,617259,-3846,-15466,-1937,-6,-56,-78
6,855,617260,-3846,-15466,-1937,-6,-56,-78
6,856,617261,-3846,-15466,-1937,-6,-56,-78
6,857,617262,-3846,-15466,-1937,-6,-56,-78
6,858,617262,-3846,-15466,-1937,-6,-56,-78
6,859,617263,-3799,-15486,-1942,-4,-57,-81
6,860,617264,-3799,-15486,-1942,-4,-57,-81
6,861,617265,-3799,-15486,-1942,-4,-57,-81
6,862,617265,-3799,-15486,-1942,-4,-57,-81
6,863,617266,-3799,-15486,-1942,-4,-57,-81
6,864,617267,-3799,-15486,-1942,-4,-57,-81
6,865,617267,-3807,-15496,-2048,-5,-49,-83
6,866,617268,-3807,-15496,-2048,-5,-49,-83
6,867,617269,-3807,-15496,-2048,-5,-49,-83
6,868,617270,-3807,-15496,-2048,-5,-49,-83
6,869,617270,-3807,-15496,-2048,-5,-49,-83
6,870,617271,-3807,-15496,-2048,-5,-49,-83
6,871,617272,-3807,-15496,-2048,-5,-49,-83
6,872,617273,-3681,-15518,-2048,-8,-36,-85
6,873,617273,-3681,-15518,-2048,-8,-36,-85
6,874,617274,-3681,-15518,-2048,-8,-36,-85
6,875,617275,-3681,-15518,-2048,-8,-36,-85
6,876,617276,-3681,-15518,-2048,-8,-36,-85
6,877,617276,-3681,-15518,-2048,-8,-36,-85
6,878,617277,-3681,-15518,-2048,-8,-36,-85
6,879,617278,-3598,-15507,-2047,-9,-20,-88
6,880,617279,-3598,-15507,-2047,-9,-20,-88
6,881,617279,-3598,-15507,-2047,-9,-20,-88
6,882,617280,-3598,-15507,-2047,-9,-20,-88
6,883,617281,-3598,-15507,-2047,-9,-20,-88
6,884,617281,-3598,-15507,-2047,-9,-20,-88
6,885,617282,-3594,-15495,-2036,-10,-10,-94
6,886,617283,-3594,-15495,-2036,-10,-10,-94
6,887,617284,-3594,-15495,-2036,-10,-10,-94
6,888,617284,-3594,-15495,-2036,-10,-10,-94
6,889,617285,-3594,-15495,-2036,-10,-10,-94
6,890,617286,-3594,-15495,-2036,-10,-10,-94
6,891,617287,-3594,-15495,-2036,-10,-10,-94
6,892,617287,-3618,-15522,-2023,-15,1,-98
6,893,617288,-3618,-15522,-2023,-15,1,-98
6,894,617289,-3618,-15522,-2023,-15,1,-98
6,895,617290,-3618,-15522,-2023,-15,1,-98
6,896,617290,-3618,-15522,-2023,-15,1,-98
6,897,617291,-3618,-15522,-2023,-15,1,-98
6,898,617292,-3618,-15522,-2023,-15,1,-98
6,899,617293,-3619,-15501,-1992,-14,14,-99
6,900,617293,-3619,-15501,-1992,-14,14,-99
6,901,617294,-3619,-15501,-1992,-14,14,-99
6,902,617295,-3619,-15501,-1992,-14,14,-99
6,903,617296,-3619,-15501,-1992,-14,14,-99
6,904,617296,-3619,-15501,-1992,-14,14,-99
6,905,617297,-3568,-15472,-1866,-15,35,-99
6,906,617298,-3568,-15472,-1866,-15,35,-99
6,907,617298,-3568,-15472,-1866,-15,35,-99
6,908,617299,-3568,-15472,-1866,-15,35,-99
6,909,617300,-3568,-15472,-1866,-15,35,-99
6,910,617301,-3568,-15472,-1866,-15,35,-99
6,911,617301,-3568,-15472,-1866,-15,35,-99
6,912,617302,-3558,-15451,-1744,-16,48,-105
6,913,617303,-3558,-15451,-1744,-16,48,-105
6,914,617304,-3558,-15451,-1744,-16,48,-105
6,915,617304,-3558,-15451,-1744,-16,48,-105
6,916,617305,-3558,-15451,-1744,-16,48,-105
6,917,617306,-3558,-15451,-1744,-16,48,-105
6,918,617311,-3510,-15476,-1691,-19,51,-108
6,919,617316,-3490,-15484,-1710,-20,51,-109
6,920,617321,-3422,-15402,-1658,-21,51,-109
6,921,617326,-3403,-15364,-1718,-22,45,-113
6,922,617331,-3295,-15388,-1864,-24,27,-115
6,923,617336,-3117,-15353,-1940,-29,18,-117
6,924,617341,-2954,-15257,-1950,-31,12,-119
6,925,617346,-2786,-15386,-2038,-29,8,-119
6,926,617351,-2615,-15437,-2164,-31,14,-121
6,927,617356,-2638,-15437,-2237,-33,31,-128
6,928,617361,-2710,-15401,-2238,-35,50,-132
6,929,617366,-2779,-15403,-2251,-39,76,-135
6,930,617371,-2775,-15244,-2279,-45,105,-140
6,931,617376,-2268,-15865,-2374,-44,135,-145
6,932,617381,-2329,-15526,-2330,-50,171,-150
6,933,617386,-2377,-15546,-1934,-62,196,-174
6,934,617391,-2155,-15590,-1704,-63,169,-174
6,935,617396,-2230,-15495,-1852,-60,161,-182
6,936,617401,-2424,-15490,-1968,-63,162,-193
6,937,617406,-2451,-15582,-1829,-69,156,-206
6,938,617411,-2115,-15660,-2019,-73,144,-207
6,939,617416,-2215,-15639,-2179,-77,153,-222
6,940,617421,-1966,-15827,-1772,-81,161,-234
6,941,617426,-1660,-15976,-2001,-84,140,-245
6,942,617431,-1779,-16236,-2276,-87,129,-263
6,943,617436,-1885,-16118,-1906,-95,131,-280
6,944,617441,-1567,-15989,-2253,-102,126,-291
6,945,617446,-1972,-16283,-2558,-101,147,-310
6,946,617451,-1739,-16205,-2207,-107,170,-329
6,947,617456,-1309,-15935,-2250,-116,178,-345
6,948,617461,-1421,-16202,-2363,-114,197,-370
6,949,617466,-1318,-16315,-2209,-114,192,-388
6,950,617471,-804,-16050,-2293,-121,180,-401
6,951,617476,-945,-16188,-2348,-120,198,-428
6,952,617481,-1095,-16434,-2351,-122,198,-448
6,953,617486,-994,-16455,-2372,-126,179,-466
6,954,617491,-892,-16471,-2443,-127,165,-489
6,955,617496,-1120,-16658,-2371,-125,170,-514
6,956,617501,-955,-16678,-2366,-125,160,-536
6,957,617506,-1029,-16686,-2134,-125,147,-559
6,958,617511,-1040,-16912,-2112,-127,106,-584
6,959,617516,-1064,-17053,-2184,-125,62,-602
6,960,617521,-1101,-17076,-2307,-122,28,-625
6,961,617526,-1019,-17057,-2278,-122,15,-657
6,962,617531,-926,-17196,-2340,-123,-6,-680
6,963,617536,-1006,-17412,-2277,-120,-47,-705
6,964,617541,-629,-17236,-2358,-118,-113,-725
6,965,617546,-576,-17432,-2772,-117,-163,-753
6,966,617551,-906,-17346,-3037,-117,-183,-788
6,967,617556,-779,-17232,-2818,-115,-216,-803
6,968,617561,-998,-17261,-2433,-112,-242,-831
6,969,617566,-1225,-17265,-3176,-106,-266,-853
6,970,617571,-1157,-17244,-3473,-107,-216,-881
6,971,617576,-1137,-17206,-3036,-110,-150,-910
6,972,617581,-957,-17324,-2684,-110,-150,-932
6,973,617586,-973,-17419,-2730,-105,-204,-953
6,974,617591,-926,-17434,-2944,-105,-245,-971
6,975,617596,-883,-17478,-3019,-107,-246,-993
6,976,617601,-1114,-17650,-2736,-109,-231,-1020
6,977,617606,-1210,-17630,-2466,-111,-242,-1041
6,978,617611,-1435,-17605,-2421,-109,-262,-1063
6,979,617616,-1486,-17643,-2616,-110,-267,-1081
6,980,617621,-1391,-17648,-2691,-112,-253,-1097
6,981,617626,-1435,-17689,-2369,-117,-241,-1120
6,982,617631,-1498,-17653,-2129,-123,-265,-1134
6,983,617636,-1579,-17608,-2091,-124,-301,-1150
6,984,617641,-1806,-17521,-2209,-124,-316,-1163
6,985,617646,-1923,-17473,-2353,-132,-304,-1173
6,986,617651,-1927,-17448,-2266,-138,-293,-1186
6,987,617656,-2070,-17411,-2075,-143,-302,-1199
6,988,617661,-2154,-17386,-2069,-143,-330,-1206
6,989,617666,-2180,-17414,-2060,-148,-350,-1212
6,990,617671,-2109,-17442,-1890,-155,-365,-1215
6,991,617676,-2088,-17425,-1752,-160,-388,-1219
6,992,617681,-2063,-17297,-1857,-162,-426,-1224
6,993,617686,-2154,-17233,-1988,-163,-453,-1220
6,994,617691,-2246,-17219,-2003,-168,-464,-1220
6,995,617696,-2449,-17144,-1843,-175,-466,-1217
6,996,617701,-2725,-16975,-1781,-179,-463,-1214
6,997,617706,-2777,-16934,-2042,-182,-451,-1204
6,998,617711,-2413,-16885,-2353,-185,-424,-1192
6,999,617716,7022,-5139,-5498,-218,-384,-1140
6,1000,617721,-10640,4542,13596,-221,102,-1574
6,1001,617726,846,-16810,-2055,-28,-1087,-277
6,1002,617731,10923,-13806,-21808,-76,-1484,-313
6,1003,617736,-1006,-20070,5170,-176,2316,-1219
6,1004,617741,-7043,-14610,9551,-204,355,-1097
6,1005,617746,-2928,-15024,558,-78,-1726,-567
6,1006,617751,-1734,-17933,-10830,-75,-1316,-681
6,1007,617756,-737,-17194,1728,-212,744,-820
6,1008,617761,-2976,-14979,3597,-170,-112,-839
6,1009,617766,-3187,-17021,-6199,-85,-1068,-632
6,1010,617771,-2578,-16439,-7721,-135,-471,-668
6,1011,617776,-1426,-16364,-2498,-167,359,-689
6,1012,617781,-1745,-16430,1985,-165,453,-703
6,1013,617786,-1793,-16246,-468,-137,-172,-651
6,1014,617791,-1341,-16789,-5019,-119,-486,-571
6,1015,617796,-1763,-16333,-4339,-142,-46,-606
6,1016,617801,-2049,-16220,-1187,-149,304,-601
6,1017,617806,-1879,-16171,-62,-134,136,-569
6,1018,617811,-1666,-16223,-2046,-116,-206,-525
6,1019,617816,-1839,-16183,-3509,-121,-245,-499
6,1020,617821,-2160,-16086,-2692,-133,-9,-491
6,1021,617826,-1936,-16109,-1013,-134,100,-470
6,1022,617831,-1418,-16263,-1175,-120,-47,-438
6,1023,617836,-1266,-16274,-2591,-109,-189,-416
6,1024,617841,-1500,-16298,-3042,-115,-148,-402
6,1025,617846,-1706,-16190,-2331,-120,-33,-388
6,1026,617851,-1559,-16120,-1687,-117,-23,-365
6,1027,617856,-1314,-16178,-2191,-115,-112,-344
6,1028,617861,-1377,-16203,-2833,-109,-146,-329
6,1029,617866,-1539,-16133,-2898,-110,-86,-311
6,1030,617871,-1545,-16056,-2539,-108,-7,-300
6,1031,617876,-1398,-16140,-2483,-101,13,-280
6,1032,617881,-1376,-16097,-2679,-101,10,-269
6,1033,617886,-1496,-16017,-2857,-99,36,-257
6,1034,617891,-1553,-16021,-2696,-98,83,-247
6,1035,617896,-1483,-16084,-2522,-93,104,-231
6,1036,617901,-1293,-16091,-2568,-90,96,-215
6,1037,617906,-1190,-16110,-2774,-86,95,-206
6,1038,617911,-1294,-16169,-2703,-86,121,-197
6,1039,617916,-1205,-16173,-2595,-86,150,-186
6,1040,617921,-1101,-16153,-2546,-83,162,-173
6,1041,617926,-986,-16256,-2477,-83,166,-162
6,1042,617931,-1029,-16209,-2300,-83,165,-155
6,1043,617936,-1087,-16138,-2166,-78,158,-147
6,1044,617941,-1144,-16078,-2140,-76,146,-140
6,1045,617946,-994,-16105,-2297,-73,127,-128
6,1046,617951,-729,-16096,-2470,-73,111,-119
6,1047,617956,-630,-16107,-2450,-71,94,-110
6,1048,617961,-600,-16140,-2464,-67,68,-102
6,1049,617966,-678,-16083,-2661,-65,42,-94
6,1050,617971,-692,-16075,-2896,-62,43,-89
6,1051,617976,-723,-16059,-2906,-59,66,-84
6,1052,617981,-794,-16044,-2715,-58,80,-77
6,1053,617986,-833,-16040,-2473,-60,69,-73
6,1054,617991,-772,-16080,-2495,-56,47,-66
6,1055,617996,-738,-16103,-2442,-54,39,-60
6,1056,618001,-593,-16137,-2367,-52,33,-57
6,1057,618006,-457,-16120,-2302,-52,16,-51
6,1058,618011,-416,-16175,-2298,-51,-15,-49
6,1059,618016,-488,-16208,-2327,-49,-52,-46
6,1060,618021,-581,-16151,-2458,-47,-88,-41
6,1061,618026,-628,-16137,-2688,-44,-110,-36
6,1062,618031,-478,-16169,-2850,-39,-119,-34
6,1063,618036,-425,-16217,-2947,-38,-111,-34
6,1064,618041,-412,-16214,-2810,-38,-107,-36
6,1065,618046,-447,-16175,-2818,-38,-108,-33
6,1066,618051,-401,-16182,-2822,-33,-110,-32
6,1067,618056,-377,-16226,-2802,-30,-109,-28
6,1068,618061,-346,-16189,-2575,-33,-117,-28
6,1069,618066,-325,-16144,-2326,-32,-142,-27
6,1070,618071,-399,-16101,-2332,-28,-187,-25
6,1071,618076,-345,-16074,-2388,-26,-232,-22
6,1072,618081,-362,-16091,-2421,-25,-264,-17
6,1073,618086,-382,-16174,-2462,-23,-290,-14
6,1074,618091,-111,-16265,-2657,-20,-306,-11
6,1075,618096,353,-16408,-3104,-20,-289,-7
6,1076,618101,526,-16485,-3452,-19,-240,-7
6,1077,618106,529,-16435,-3498,-17,-186,-12
6,1078,618111,373,-16292,-3361,-19,-147,-14
6,1079,618116,297,-16236,-3290,-24,-109,-13
6,1080,618121,470,-16167,-2753,-30,7,-8
6,1081,618126,482,-16126,-2248,-30,36,-10
6,1082,618131,426,-16071,-2040,-29,24,-6
6,1083,618136,451,-16016,-2252,-26,-3,2
6,1084,618141,544,-15987,-2367,-23,-14,3
6,1085,618146,503,-15983,-2342,-24,-18,5
6,1086,618151,561,-15887,-2322,-27,-31,6
6,1087,618156,657,-15889,-2496,-26,-50,11
6,1088,618161,696,-15903,-2644,-25,-47,17
6,1089,618166,736,-15915,-2561,-28,-27,21
6,1090,618171,768,-15884,-2465,-27,-19,23
6,1091,618176,781,-15927,-2548,-26,-23,28
6,1092,618181,804,-15943,-2605,-27,-21,31
6,1093,618186,879,-15932,-2549,-24,-12,34
6,1094,618191,929,-16000,-2552,-24,-18,39
6,1095,618196,920,-16030,-2714,-20,-39,41
6,1096,618201,925,-16006,-2876,-19,-52,45
6,1097,618206,945,-15981,-3081,-17,-51,47
6,1098,618211,979,-15981,-3065,-14,-31,50
6,1099,618216,940,-15961,-3115,-14,-17,51
6,1100,618221,948,-15967,-3212,-12,-22,57
6,1101,618226,1009,-15999,-3235,-6,-16,59
6,1102,618231,1192,-16065,-3463,-1,0,64
6,1103,618236,1240,-16073,-3328,-2,39,62
6,1104,618241,1196,-16036,-3222,-2,64,62
6,1105,618246,1212,-16035,-3294,2,71,66
6,1106,618251,1066,-16019,-3290,4,82,67
6,1107,618256,994,-15970,-3164,8,94,70
6,1108,618261,988,-16012,-3116,13,102,73
6,1109,618266,1001,-15963,-3034,13,106,72
6,1110,618271,932,-15946,-2858,17,93,73
6,1111,618276,929,-15945,-2893,18,74,76
6,1112,618281,1014,-15948,-3147,21,59,78
6,1113,618286,1083,-16040,-3281,23,62,79
6,1114,618291,1164,-16031,-3311,25,71,83
6,1115,618296,1138,-15999,-3265,26,76,81
6,1116,618301,1105,-15971,-3270,27,76,81
6,1117,618306,1119,-15971,-3348,27,82,84
6,1118,618311,1173,-15998,-3303,24,98,86
6,1119,618316,1166,-16032,-3088,25,114,83
6,1120,618321,1118,-16047,-2903,24,119,80
6,1121,618326,1092,-16098,-2785,27,115,80
6,1122,618331,1101,-16074,-2810,26,108,78
6,1123,618336,1172,-16090,-2917,26,101,80
6,1124,618341,1176,-16162,-2921,26,90,79
6,1125,618346,1158,-16177,-2937,23,72,79
6,1126,618351,1152,-16157,-3000,20,56,78
6,1127,618356,1089,-16105,-3136,20,63,75
6,1128,618361,1087,-16103,-3227,19,86,74
6,1129,618366,1109,-16129,-3199,16,118,71
6,1130,618371,1123,-16129,-3047,13,131,67
6,1131,618376,1109,-16104,-2966,13,123,68
6,1132,618381,1060,-16094,-3018,15,110,65
6,1133,618386,1030,-16094,-3020,15,106,63
6,1134,618391,1077,-16143,-3022,10,106,60
6,1135,618396,1165,-16155,-2932,9,101,56
6,1136,618401,1152,-16132,-2947,8,92,54
6,1137,618406,1129,-16187,-3037,10,77,51
6,1138,618411,1105,-16168,-3048,5,67,49
6,1139,618416,1096,-16132,-3013,3,56,46
6,1140,618421,1087,-16133,-3008,5,44,43
6,1141,618426,1069,-16172,-2948,5,23,43
6,1142,618431,1042,-16138,-2971,3,10,40
6,1143,618436,987,-16112,-3026,3,1,35
6,1144,618441,1030,-16122,-3129,5,-3,35
6,1145,618446,1118,-16148,-3175,5,-7,32
6,1146,618451,1201,-16154,-3109,4,-9,26
6,1147,618456,1175,-16145,-3197,4,-17,25
6,1148,618461,1160,-16165,-3291,2,-21,21
6,1149,618466,1147,-16136,-3269,0,-29,19
6,1150,618471,1094,-16094,-3203,1,-27,15
6,1151,618476,1011,-16104,-3103,-1,-18,9
6,1152,618481,1015,-16092,-3113,0,-10,9
6,1153,618486,977,-16064,-3021,-1,-8,1
6,1154,618491,1019,-16103,-2933,-2,-14,1
6,1155,618496,1026,-16129,-3039,1,-28,1
6,1156,618501,1073,-16129,-3153,1,-40,-3
6,1157,618506,1146,-16138,-3139,-2,-42,-6
6,1158,618511,1093,-16126,-3045,-1,-47,-9
6,1159,618516,970,-16099,-3033,3,-60,-11
6,1160,618521,894,-16122,-3079,1,-65,-11
6,1161,618526,874,-16053,-3077,0,-67,-14
6,1162,618531,888,-16054,-3042,0,-70,-13
6,1163,618536,935,-16086,-3161,2,-76,-17
6,1164,618541,964,-16094,-3233,3,-74,-18
6,1165,618546,941,-16127,-3176,4,-67,-19
6,1166,618551,948,-16141,-3147,3,-60,-21
6,1167,618556,984,-16180,-3227,3,-63,-21
6,1168,618561,1074,-16184,-3260,4,-60,-22
6,1169,618566,1132,-16218,-3290,4,-61,-22
6,1170,618571,1105,-16238,-3275,5,-60,-25
6,1171,618576,1038,-16262,-3153,3,-58,-25
6,1172,618581,977,-16243,-3153,0,-50,-26
6,1173,618586,988,-16258,-3136,4,-27,-25
6,1174,618591,921,-16249,-3000,3,-4,-29
6,1175,618596,820,-16151,-2893,3,2,-30
6,1176,618601,778,-16113,-2823,4,-9,-27
6,1177,618606,798,-16141,-2828,4,-26,-24
6,1178,618611,852,-16162,-2907,4,-38,-24
6,1179,618616,842,-16184,-2915,1,-44,-24
6,1180,618621,843,-16152,-2931,2,-50,-24
6,1181,618626,865,-16163,-3071,4,-54,-22
6,1182,618631,888,-16140,-3058,5,-54,-25
6,1183,618636,870,-16129,-2946,4,-53,-24
6,1184,618641,795,-16134,-2907,5,-62,-20
6,1185,618646,761,-16119,-2989,5,-79,-21
6,1186,618651,817,-16116,-3012,5,-80,-21
6,1187,618656,822,-16084,-2864,5,-82,-22
6,1188,618661,781,-16060,-2898,6,-100,-18
6,1189,618666,784,-16015,-3038,7,-125,-16
6,1190,618671,764,-16008,-3162,7,-137,-14
6,1191,618676,766,-15993,-3306,7,-132,-13
6,1192,618681,852,-16001,-3483,7,-127,-12
6,1193,618686,856,-16003,-3442,6,-119,-13
6,1194,618691,733,-15989,-3249,8,-113,-13
6,1195,618696,674,-16046,-3243,10,-103,-11
6,1196,618701,716,-16059,-3375,8,-68,-11
6,1197,618706,845,-16061,-3280,5,-12,-11
6,1198,618711,894,-16044,-3016,4,22,-10
6,1199,618716,932,-16068,-2880,3,23,-11
6,1200,618721,910,-16084,-2928,3,14,-12
6,1201,618726,902,-16075,-3000,4,17,-9
6,1202,618731,961,-16121,-2922,4,29,-4
6,1203,618736,932,-16125,-2871,2,32,-6
6,1204,618741,882,-16140,-2988,3,31,-8
6,1205,618746,843,-16174,-3209,-1,41,-6
6,1206,618751,926,-16195,-3244,-1,68,-4
6,1207,618756,924,-16187,-3126,-1,91,-2
6,1208,618761,891,-16187,-3116,-2,97,-4
6,1209,618766,880,-16228,-3219,-5,102,-1
6,1210,618771,858,-16224,-3236,-6,115,-1
6,1211,618776,856,-16211,-3174,-4,123,0
6,1212,618781,942,-16276,-3043,-7,135,0
6,1213,618786,999,-16282,-2975,-8,137,-2
6,1214,618791,1013,-16292,-3023,-7,129,-1
6,1215,618796,937,-16301,-2879,-7,129,-4
6,1216,618801,941,-16267,-2806,-13,119,-7
6,1217,618806,946,-16240,-2793,-11,94,-5
6,1218,618811,934,-16274,-2844,-11,72,-6
6,1219,618816,932,-16255,-2804,-12,58,-6
6,1220,618821,992,-16199,-2811,-13,45,-5
6,1221,618826,1001,-16203,-2810,-13,26,-7
6,1222,618831,990,-16199,-2871,-11,5,-5
6,1223,618836,1018,-16194,-3025,-10,-12,-4
6,1224,618841,1011,-16178,-3068,-12,-15,-3
6,1225,618846,976,-16147,-3039,-12,-18,-5
6,1226,618851,993,-16198,-3170,-15,-26,-10
6,1227,618856,1032,-16220,-3241,-17,-17,-12
6,1228,618861,1030,-16208,-3231,-19,-4,-15
6,1229,618866,1058,-16179,-3170,-14,-2,-18
6,1230,618871,1046,-16136,-3129,-18,-4,-17
6,1231,618876,1003,-16137,-3103,-21,-12,-19
6,1232,618881,1002,-16115,-3107,-18,-19,-21
6,1233,618886,1033,-16124,-3096,-17,-17,-21
6,1234,618891,1004,-16146,-3065,-20,-18,-22
6,1235,618896,962,-16130,-3122,-22,-26,-26
6,1236,618901,928,-16108,-3167,-20,-33,-28
6,1237,618906,956,-16090,-3273,-18,-33,-26
6,1238,618911,978,-16112,-3363,-17,-21,-26
6,1239,618916,1011,-16132,-3321,-23,-9,-30
6,1240,618921,1012,-16117,-3232,-22,-10,-36
6,1241,618926,1065,-16130,-3139,-20,-12,-31
6,1242,618931,1120,-16161,-3210,-23,-8,-35
6,1243,618936,1084,-16180,-3164,-22,-3,-36
6,1244,618941,1105,-16193,-3093,-22,-1,-38
6,1245,618946,1010,-16136,-3064,-20,-5,-40
6,1246,618951,974,-16083,-3093,-20,-2,-41
6,1247,618956,871,-16047,-3081,-22,8,-43
6,1248,618961,876,-16034,-3077,-23,10,-46
6,1249,618966,907,-15955,-3106,-23,9,-38
6,1250,618971,840,-15967,-3149,-22,15,-41
6,1251,618976,801,-16001,-3075,-23,20,-47
6,1252,618981,866,-15958,-3037,-25,14,-45
6,1253,618986,971,-15982,-3096,-25,14,-43
6,1254,618991,1075,-16052,-3159,-25,20,-46
6,1255,618996,1080,-16087,-3088,-22,25,-47
6,1256,619001,1037,-16079,-3086,-22,14,-48
6,1257,619006,1051,-16077,-3155,-20,-2,-46
6,1258,619011,1080,-16081,-3216,-20,-5,-45
6,1259,619016,999,-16121,-3128,-21,2,-44
6,1260,619021,979,-16150,-3027,-20,2,-43
6,1261,619026,960,-16127,-2976,-19,-5,-46
6,1262,619031,908,-16144,-3039,-18,-12,-43
6,1263,619036,882,-16118,-3052,-16,-17,-40
6,1264,619041,877,-16122,-2997,-16,-25,-41
6,1265,619046,920,-16124,-3094,-13,-37,-37
6,1266,619051,939,-16118,-3177,-11,-43,-35
6,1267,619056,935,-16087,-3223,-15,-43,-35
6,1268,619061,994,-16060,-3193,-14,-40,-33
6,1269,619066,1057,-16092,-3184,-12,-41,-31
6,1270,619071,1121,-16138,-3102,-14,-47,-30
6,1271,619076,1126,-16104,-3118,-12,-50,-30
6,1272,619081,1043,-16055,-3176,-9,-49,-28
6,1273,619086,949,-16055,-3123,-12,-42,-27
6,1274,619091,859,-16045,-3060,-13,-32,-25
6,1275,619096,865,-16042,-2982,-13,-26,-24
6,1276,619101,871,-16054,-2968,-9,-19,-21
6,1277,619106,862,-16043,-3002,-12,-12,-17
6,1278,619111,926,-16060,-3021,-9,-11,-15
6,1279,619116,990,-16112,-2999,-10,-21,-12
6,1280,619121,1108,-16168,-3024,-9,-25,-13
6,1281,619126,1130,-16213,-3193,-11,-24,-10
6,1282,619131,1120,-16214,-3206,-11,-14,-10
6,1283,619136,1106,-16165,-3204,-12,-9,-5
6,1284,619141,1057,-16112,-3056,-14,-9,-5
6,1285,619146,981,-16119,-3008,-14,-13,-3
6,1286,619151,980,-16136,-3112,-10,-6,0
6,1287,619156,941,-16127,-3122,-10,11,0
6,1288,619161,859,-16097,-2984,-15,24,3
6,1289,619166,831,-16077,-2913,-15,25,5
6,1290,619171,813,-16072,-2977,-12,23,5
6,1291,619176,845,-16072,-2940,-12,26,6
6,1292,619181,896,-16126,-2910,-9,29,5
6,1293,619186,921,-16130,-2894,-9,20,8
6,1294,619191,894,-16130,-2887,-8,3,7
6,1295,619196,842,-16109,-3041,-7,-8,8
6,1296,619201,806,-16092,-3189,-7,-7,11
6,1297,619206,814,-16068,-3125,-5,-9,11
6,1298,619211,847,-16109,-3093,-5,-13,11
6,1299,619216,885,-16124,-3148,-7,-21,13
6,1300,619221,923,-16194,-3109,-2,-22,10
6,1301,619226,951,-16222,-3133,-1,-31,10
6,1302,619231,976,-16235,-3204,3,-36,7
6,1303,619236,952,-16263,-3258,5,-35,9
6,1304,619241,963,-16224,-3363,4,-28,12
6,1305,619246,979,-16244,-3290,2,-18,9
6,1306,619251,974,-16257,-3131,3,-13,6
6,1307,619256,890,-16244,-3037,5,-8,9
6,1308,619261,835,-16282,-3033,4,3,8
6,1309,619266,864,-16311,-2955,7,17,7
6,1310,619271,900,-16278,-2861,7,21,5
6,1311,619276,851,-16258,-2849,6,9,4
6,1312,619281,804,-16232,-2942,7,-1,5
6,1313,619286,808,-16209,-2982,8,-2,5
6,1314,619291,783,-16196,-2906,7,-2,1
6,1315,619296,818,-16159,-2905,7,-12,1
6,1316,619301,868,-16142,-2931,6,-21,-1
6,1317,619306,880,-16101,-3018,8,-20,0
6,1318,619311,886,-16059,-3015,7,-20,-1
6,1319,619316,930,-16046,-2977,4,-22,-3
6,1320,619321,919,-16019,-2964,5,-37,-3
6,1321,619326,883,-16023,-3044,7,-52,-1
6,1322,619331,905,-15973,-3041,5,-51,-1
6,1323,619336,913,-15963,-3102,9,-50,-1
6,1324,619341,915,-15942,-3154,9,-44,-2
6,1325,619346,956,-15983,-3228,3,-41,-3
6,1326,619351,894,-15947,-3224,3,-40,-4
6,1327,619356,834,-15905,-3221,5,-38,-5
6,1328,619361,813,-15964,-3235,6,-35,-1
6,1329,619366,867,-16029,-3196,7,-21,0
6,1330,619371,923,-16065,-3099,6,-7,-1
6,1331,619376,897,-16059,-3049,4,3,-4
6,1332,619381,900,-16043,-3037,5,2,-2
6,1333,619386,876,-16036,-3047,7,5,0
6,1334,619391,861,-16051,-3022,7,5,1
6,1335,619396,885,-16027,-3030,4,1,4
6,1336,619401,878,-16018,-3028,5,-1,6
6,1337,619406,878,-16040,-3057,7,-2,8
6,1338,619411,910,-16001,-3202,6,2,8
6,1339,619416,962,-16022,-3219,7,7,12
6,1340,619421,972,-15978,-3214,7,16,16
6,1341,619426,1063,-16033,-3267,5,27,17
6,1342,619431,1123,-16062,-3259,6,41,18
6,1343,619436,1067,-16108,-3031,4,51,17
6,1344,619441,1035,-16078,-3021,8,45,21
6,1345,619446,1001,-16083,-3140,7,40,24
6,1346,619451,1008,-16094,-3122,5,46,24
6,1347,619456,934,-16096,-3018,6,57,26
6,1348,619461,957,-16076,-3005,6,55,28
6,1349,619466,938,-16059,-3002,7,49,32
6,1350,619471,878,-16054,-2948,9,49,34
6,1351,619476,925,-16085,-2967,7,51,33
6,1352,619481,988,-16102,-2989,9,46,36
6,1353,619486,1031,-16098,-3000,5,48,39
6,1354,619491,1087,-16125,-3099,4,49,39
6,1355,619496,1113,-16118,-3077,5,38,42
6,1356,619501,1112,-16149,-3127,7,35,43
6,1357,619506,1095,-16172,-3162,6,33,44
6,1358,619511,1037,-16190,-3203,4,45,41
6,1359,619516,1023,-16170,-3285,7,68,43
6,1360,619521,1068,-16176,-3324,6,86,42
6,1361,619526,1053,-16191,-3160,5,94,42
6,1362,619531,1057,-16216,-3070,6,89,42
6,1363,619536,974,-16221,-3030,6,79,42
6,1364,619541,943,-16205,-3026,6,72,42
6,1365,619546,948,-16187,-2992,6,70,44
6,1366,619551,968,-16175,-2946,3,59,44
6,1367,619556,986,-16186,-2953,6,41,45
6,1368,619561,1007,-16202,-3038,6,27,44
6,1369,619566,1031,-16214,-3148,4,15,43
6,1370,619571,1024,-16186,-3181,4,11,40
6,1371,619576,1023,-16150,-3219,4,9,40
6,1372,619581,975,-16112,-3225,3,13,40
6,1373,619586,953,-16035,-3170,3,28,38
6,1374,619591,942,-16071,-3090,2,31,35
6,1375,619596,966,-16071,-3019,0,33,31
6,1376,619601,917,-16089,-3019,3,28,28
6,1377,619606,928,-16073,-3161,4,25,25
6,1378,619611,912,-16080,-3182,3,21,26
6,1379,619616,926,-16076,-3121,-1,10,24
6,1380,619621,930,-16085,-3176,0,2,22
6,1381,619626,958,-16126,-3344,-1,-3,22
6,1382,619631,986,-16111,-3324,-2,6,20
6,1383,619636,944,-16127,-3323,-3,20,17
6,1384,619641,1019,-16130,-3341,0,25,18
6,1385,619646,1080,-16153,-3373,-2,43,14
6,1386,619651,1023,-16201,-3183,-2,65,10
6,1387,619656,973,-16213,-2978,-3,67,8
6,1388,619661,1077,-16242,-3083,-3,55,9
6,1389,619666,1196,-16216,-3094,-4,47,7
6,1390,619671,1092,-16216,-3075,-4,39,5
6,1391,619676,935,-16201,-3066,-3,24,6
6,1392,619681,934,-16118,-3194,-2,17,5
6,1393,619686,1015,-16126,-3440,-1,17,5
6,1394,619691,1115,-16121,-3416,-2,23,4
6,1395,619696,1024,-16162,-3345,-3,25,0
6,1396,619701,954,-16129,-3340,-2,16,1
6,1397,619706,879,-16112,-3318,0,18,0
6,1398,619711,928,-16098,-3331,-2,27,0
6,1399,619716,1009,-16099,-3347,4,39,2
6,1400,619721,966,-16105,-3169,3,38,-4
6,1401,619726,930,-16089,-3028,-3,20,-9
6,1402,619731,865,-16094,-3047,1,4,-5
6,1403,619736,846,-16102,-3158,-3,6,-8
6,1404,619741,892,-16111,-3109,-3,16,-8
6,1405,619746,978,-16113,-2971,-3,10,-9
6,1406,619751,1005,-16138,-2961,-5,-13,-10
6,1407,619756,975,-16139,-2993,-4,-34,-12
6,1408,619761,928,-16095,-3048,-3,-42,-14
6,1409,619766,863,-16109,-3062,-5,-43,-13
6,1410,619771,852,-16109,-3106,-5,-44,-12
6,1411,619776,920,-16118,-3104,-6,-40,-13
6,1412,619781,974,-16091,-3114,-7,-37,-13
6,1413,619786,899,-16099,-3126,-9,-40,-13
6,1414,619791,909,-16107,-3151,-10,-42,-12
6,1415,619796,862,-16120,-3225,-12,-30,-14
6,1416,619801,851,-16094,-3169,-14,-9,-18
6,1417,619806,896,-16124,-3075,-17,3,-20
6,1418,619811,958,-16092,-3059,-15,-2,-20
6,1419,619816,947,-16152,-3080,-15,-11,-17
6,1420,619821,952,-16166,-3070,-15,-15,-17
6,1421,619826,945,-16131,-3047,-17,-21,-18
6,1422,619831,940,-16085,-3028,-17,-25,-18
6,1423,619836,921,-16062,-3019,-18,-30,-16
6,1424,619841,916,-16058,-2976,-17,-35,-18
6,1425,619846,912,-16057,-3006,-22,-41,-19
6,1426,619851,921,-16062,-3018,-21,-48,-15
6,1427,619856,998,-16070,-3082,-18,-54,-14
6,1428,619861,951,-16042,-3141,-22,-59,-14
6,1429,619866,900,-16040,-3177,-23,-64,-16
6,1430,619871,936,-16050,-3204,-22,-68,-13
6,1431,619876,958,-16044,-3222,-22,-63,-11
6,1432,619881,967,-16124,-3245,-20,-52,-10
6,1433,619886,1015,-16125,-3203,-22,-43,-10
6,1434,619891,1010,-16159,-3132,-24,-32,-12
6,1435,619896,1016,-16189,-3176,-22,-29,-11
6,1436,619901,936,-16172,-3176,-21,-23,-8
6,1437,619906,869,-16123,-3115,-23,-19,-10
6,1438,619911,866,-16114,-3036,-22,-26,-8
6,1439,619916,836,-16135,-3072,-22,-33,-8
6,1440,619921,871,-16162,-3180,-21,-34,-11
6,1441,619926,902,-16186,-3208,-23,-30,-10
6,1442,619931,885,-16168,-3197,-23,-26,-8
6,1443,619936,944,-16135,-3194,-21,-31,-5
6,1444,619941,967,-16154,-3274,-18,-33,-4
6,1445,619946,962,-16175,-3357,-15,-31,-4
6,1446,619951,984,-16145,-3246,-20,-23,-7
6,1447,619956,922,-16134,-3188,-18,-25,-6
6,1448,619961,891,-16118,-3186,-14,-24,-6
6,1449,619966,836,-16128,-3193,-13,-22,-5
6,1450,619971,834,-16147,-3112,-16,-19,-6
6,1451,619976,798,-16160,-3094,-15,-24,-5
6,1452,619981,868,-16145,-3170,-12,-28,-3
6,1453,619986,943,-16126,-3142,-15,-26,-3
6,1454,619991,941,-16094,-3085,-11,-30,-2
6,1455,619996,914,-16115,-3124,-10,-38,-2
6,1456,620001,963,-16134,-3260,-10,-38,-5
6,1457,620006,981,-16138,-3334,-9,-25,-2
6,1458,620011,968,-16085,-3297,-11,-8,-4
6,1459,620016,908,-16074,-3179,-9,-2,-8
6,1460,620021,850,-16014,-3191,-9,-7,-6
6,1461,620026,861,-15975,-3182,-10,-3,-7
6,1462,620031,877,-15988,-3199,-6,7,-7
6,1463,620036,892,-15990,-3109,-7,9,-5
6,1464,620041,889,-15977,-3085,-7,1,-8
6,1465,620046,916,-16039,-3109,-3,-8,-8
6,1466,620051,947,-16028,-3094,-3,-13,-7
6,1467,620056,950,-16072,-3099,-3,-19,-6
6,1468,620061,922,-16036,-3066,-1,-31,-8
6,1469,620066,931,-16067,-3124,1,-40,-9
6,1470,620071,912,-16096,-3188,-3,-47,-8
6,1471,620076,911,-16115,-3264,0,-46,-7
6,1472,620081,939,-16101,-3253,1,-38,-9
6,1473,620086,897,-16085,-3144,-1,-34,-10
6,1474,620091,865,-16104,-3103,2,-42,-8
6,1475,620096,913,-16143,-3190,0,-48,-8
6,1476,620101,999,-16167,-3271,2,-45,-10
6,1477,620106,1030,-16163,-3235,1,-45,-10
6,1478,620111,998,-16159,-3187,2,-52,-10
6,1479,620116,908,-16148,-3222,3,-64,-8
6,1480,620121,897,-16115,-3295,4,-64,-9
6,1481,620126,922,-16128,-3317,4,-52,-6
6,1482,620131,965,-16144,-3313,2,-27,-10
6,1483,620136,944,-16159,-3223,1,-6,-12
6,1484,620141,956,-16082,-3195,3,0,-13
6,1485,620146,924,-16061,-3231,3,-1,-13
6,1486,620151,1001,-16092,-3196,3,5,-12
6,1487,620156,1048,-16088,-3105,3,12,-12
6,1488,620161,1042,-16080,-3099,1,8,-11
6,1489,620166,960,-16094,-3129,0,-1,-13
6,1490,620171,927,-16046,-3146,1,-6,-11
6,1491,620176,992,-16028,-3190,1,-5,-12
6,1492,620181,978,-16054,-3218,1,-8,-11
6,1493,620186,978,-16075,-3199,1,-12,-9
6,1494,620191,988,-16054,-3226,1,-13,-10
6,1495,620196,1012,-16065,-3215,3,-10,-11
6,1496,620201,990,-16061,-3224,1,-4,-13
6,1497,620206,1008,-16087,-3237,-1,-2,-10
6,1498,620211,1010,-16091,-3195,-2,-3,-12
6,1499,620216,977,-16092,-3191,-1,-6,-11
6,1500,620221,978,-16117,-3199,3,-8,-11
6,1501,620226,955,-16122,-3181,2,-10,-12
6,1502,620231,954,-16101,-3172,2,-16,-7
6,1503,620236,972,-16105,-3262,2,-12,-9
6,1504,620241,886,-16091,-3248,1,-2,-11
6,1505,620246,913,-16088,-3206,0,5,-10
6,1506,620251,921,-16057,-3204,0,4,-9
6,1507,620256,952,-16059,-3256,0,3,-10
6,1508,620261,999,-16086,-3223,-1,9,-8
6,1509,620266,988,-16098,-3176,-2,16,-10
6,1510,620271,979,-16065,-3204,0,13,-7
6,1511,620276,936,-16073,-3239,1,13,-9
6,1512,620281,885,-16041,-3214,-1,13,-9
6,1513,620286,912,-16045,-3274,1,12,-9
6,1514,620291,925,-16049,-3320,1,7,-6
6,1515,620296,889,-16053,-3295,0,5,-9
6,1516,620301,938,-16033,-3282,0,5,-10
6,1517,620306,890,-16047,-3277,1,4,-9
6,1518,620311,839,-16129,-3262,0,6,-10
6,1519,620316,888,-16117,-3200,0,6,-5
6,1520,620321,876,-16093,-3151,-1,3,-7
6,1521,620326,857,-16087,-3069,-1,-4,-7
6,1522,620331,846,-16096,-3158,4,-10,-5
6,1523,620336,861,-16117,-3231,4,-14,-7
6,1524,620341,923,-16091,-3267,3,-10,-8
6,1525,620346,939,-16087,-3168,2,-6,-7
6,1526,620351,946,-16049,-3145,0,-11,-10
6,1527,620356,913,-16075,-3182,2,-18,-8
6,1528,620361,894,-16084,-3189,1,-16,-8
6,1529,620366,898,-16101,-3142,0,-9,-6
6,1530,620371,920,-16100,-3085,1,-4,-7
6,1531,620376,945,-16125,-3091,1,-7,-8
6,1532,620381,923,-16135,-3133,2,-11,-8
6,1533,620386,858,-16119,-3141,2,-12,-10
6,1534,620391,799,-16060,-3169,1,-12,-12
6,1535,620396,821,-16054,-3156,0,-10,-7
6,1536,620401,902,-16080,-3165,-1,-9,-9
6,1537,620406,896,-16112,-3160,1,-5,-11
6,1538,620411,899,-16108,-3149,1,-7,-9
6,1539,620416,929,-16141,-3178,-1,-12,-9
6,1540,620421,977,-16133,-3189,-2,-15,-8
6,1541,620426,983,-16130,-3160,-2,-13,-12
6,1542,620431,997,-16102,-3160,-2,-11,-12
6,1543,620436,1004,-16093,-3187,-1,-16,-9
6,1544,620441,994,-16093,-3171,-2,-18,-9
6,1545,620446,978,-16136,-3168,-3,-17,-10
6,1546,620451,937,-16166,-3223,-1,-19,-11
6,1547,620456,986,-16106,-3233,1,-12,-9
6,1548,620461,940,-16107,-3178,-1,-2,-10
6,1549,620466,892,-16121,-3096,-1,-7,-11
6,1550,620471,933,-16134,-3122,-2,-13,-10
6,1551,620476,970,-16120,-3188,-2,-12,-9
6,1552,620481,980,-16119,-3171,0,-11,-9
6,1553,620486,969,-16121,-3136,0,-11,-11
6,1554,620491,962,-16123,-3186,1,-10,-10
6,1555,620496,991,-16120,-3209,1,-8,-9
6,1556,620501,986,-16147,-3206,1,-2,-10
6,1557,620506,990,-16082,-3218,0,8,-8
6,1558,620511,1004,-16101,-3194,0,10,-9
6,1559,620516,1017,-16092,-3229,2,10,-8
6,1560,620521,1011,-16044,-3149,3,4,-9
6,1561,620526,1005,-16004,-3119,-1,-1,-10
6,1562,620531,1007,-16031,-3205,3,-6,-8
6,1563,620536,1040,-16061,-3269,4,-8,-4
6,1564,620541,1079,-16036,-3280,4,-6,-6
6,1565,620546,1022,-16019,-3210,4,-7,-4
6,1566,620551,987,-16033,-3272,7,-9,-4
6,1567,620556,1026,-16052,-3241,8,-8,-5
6,1568,620561,1055,-16041,-3210,5,-5,-5
6,1569,620566,1012,-16059,-3184,7,-4,-1
6,1570,620571,982,-16029,-3131,9,-7,-4
6,1571,620576,930,-15988,-3178,10,-10,-4
6,1572,620581,922,-16002,-3235,10,-6,-1
6,1573,620586,941,-16085,-3197,12,2,-3
6,1574,620591,976,-16095,-3208,13,4,-6
6,1575,620596,944,-16070,-3138,13,1,-7
6,1576,620601,854,-16103,-3157,13,-6,-3
6,1577,620606,844,-16045,-3214,13,-11,-5
6,1578,620611,924,-16097,-3233,15,-6,-5
6,1579,620616,995,-16162,-3203,14,2,-8
6,1580,620621,989,-16132,-3184,15,-3,-9
6,1581,620626,951,-16154,-3192,12,-11,-5
6,1582,620631,991,-16157,-3160,15,-17,-8
6,1583,620636,964,-16187,-3137,17,-18,-8
6,1584,620641,1018,-16182,-3115,16,-15,-5
6,1585,620646,999,-16165,-3104,15,-16,-9
6,1586,620651,979,-16174,-3173,18,-17,-9
6,1587,620656,968,-16129,-3221,16,-18,-10
6,1588,620661,895,-16114,-3147,15,-14,-8
6,1589,620666,960,-16098,-3165,16,-12,-7
6,1590,620671,976,-16104,-3226,16,-7,-9
6,1591,620676,1033,-16162,-3249,16,7,-10
6,1592,620681,1012,-16167,-3150,15,14,-11
6,1593,620686,916,-16141,-3184,12,7,-12
6,1594,620691,945,-16127,-3250,13,7,-8
6,1595,620696,912,-16105,-3103,13,17,-11
6,1596,620701,900,-16099,-3021,11,16,-14
6,1597,620706,925,-16106,-3086,10,8,-13
6,1598,620711,977,-16137,-3147,6,6,-13
6,1599,620716,992,-16137,-3082,7,9,-13
