event_id,seq,ts_ms,ax,ay,az,gx,gy,gz
49,0,637955,13,-16352,3252,-14,141,-9
49,1,637960,130,-16297,3331,-9,99,-6
49,2,637965,264,-16232,3206,-5,65,-5
49,3,637970,110,-16256,3426,-4,27,-5
49,4,637975,22,-16166,3717,-9,-36,-2
49,5,637980,135,-15990,3653,0,-106,5
49,6,637985,336,-15999,3330,6,-155,14
49,7,637990,236,-16107,3039,5,-158,11
49,8,637995,-58,-16238,2862,3,-143,5
49,9,638000,-160,-16305,2768,2,-132,8
49,10,638005,-99,-16329,2727,1,-105,8
49,11,638010,-44,-16290,2643,1,-55,5
49,12,638015,-101,-16317,2559,2,7,-2
49,13,638020,-166,-16450,2602,2,86,-7
49,14,638025,-4,-16538,2851,-2,97,-9
49,15,638030,207,-16593,3070,0,104,-11
49,16,638035,287,-16513,3133,5,100,-12
49,17,638040,235,-16466,3156,7,73,-9
49,18,638045,39,-16473,3261,8,20,-9
49,19,638050,-94,-16537,3305,10,-49,-2
49,20,638055,-14,-16555,3052,12,-95,2
49,21,638060,76,-16525,2653,18,-95,6
49,22,638065,46,-16469,2675,15,-64,-1
49,23,638070,-75,-16303,2865,12,-38,-6
49,24,638075,-58,-16198,2947,11,-26,-5
49,25,638080,105,-16136,2939,12,-10,-6
49,26,638085,93,-16146,2977,10,20,-10
49,27,638090,-10,-16213,3101,7,41,-13
49,28,638095,-109,-16250,3127,7,33,-9
49,29,638100,44,-16256,2980,8,14,-6
49,30,638105,236,-16132,3055,8,10,-7
49,31,638110,273,-16086,3159,10,15,-8
49,32,638115,231,-16048,3095,10,11,-8
49,33,638120,90,-16067,2888,9,2,-6
49,34,638125,127,-16113,3014,6,-4,-3
49,35,638130,149,-16155,3078,3,-4,-5
49,36,638135,130,-16230,2959,5,4,-2
49,37,638140,-74,-16251,2737,5,18,-4
49,38,638145,8,-16260,2640,5,31,-5
49,39,638150,56,-16263,2971,2,47,-6
49,40,638155,207,-16307,3152,3,49,-5
49,41,638160,168,-16289,3114,6,49,-8
49,42,638165,154,-16319,2882,8,38,-11
49,43,638170,71,-16374,2971,2,24,-8
49,44,638175,54,-16429,3177,1,-2,-5
49,45,638180,63,-16414,3111,5,-35,-5
49,46,638185,51,-16362,2780,8,-49,-5
49,47,638190,46,-16288,2563,6,-37,-4
49,48,638195,141,-16214,2784,3,-18,-3
49,49,638200,264,-16154,3186,1,-21,-4
49,50,638205,354,-16148,3403,2,-46,-1
49,51,638210,364,-16127,3323,2,-62,1
49,52,638215,241,-16145,3216,1,-62,-3
49,53,638220,52,-16138,3132,1,-69,2
49,54,638225,-24,-16268,3004,4,-74,4
49,55,638230,83,-16364,2844,5,-79,4
49,56,638235,85,-16323,2914,6,-66,1
49,57,638240,27,-16264,3018,2,-49,0
49,58,638245,45,-16286,2979,2,-34,0
49,59,638250,-4,-16426,2919,6,-15,1
49,60,638255,-79,-16497,2815,0,-6,-2
49,61,638260,-83,-16556,2921,-1,-3,-6
49,62,638265,-61,-16558,2952,1,-12,-3
49,63,638270,16,-16499,2908,5,-17,-1
49,64,638275,-33,-16381,2880,3,-9,-6
49,65,638280,-168,-16337,2799,7,-5,-6
49,66,638285,-73,-16271,2792,8,-11,-4
49,67,638290,45,-16168,2872,8,-12,-4
49,68,638295,190,-16089,2928,5,2,-6
49,69,638300,273,-16043,2867,7,22,-10
49,70,638305,214,-15993,2894,6,51,-10
49,71,638310,162,-16064,3069,6,53,-10
49,72,638315,169,-16103,3145,8,40,-10
49,73,638320,289,-16037,3161,6,29,-6
49,74,638325,326,-16091,3279,5,19,-7
49,75,638330,307,-16150,3319,8,-1,-9
49,76,638335,254,-16173,3251,11,-33,-5
49,77,638340,264,-16224,3142,11,-67,1
49,78,638345,143,-16270,3111,11,-91,3
49,79,638350,-19,-16328,3019,13,-98,1
49,80,638355,-76,-16459,2814,15,-94,1
49,81,638360,-96,-16515,2679,12,-78,3
49,82,638365,-77,-16562,2760,7,-59,-3
49,83,638370,-156,-16567,2748,10,-44,-4
49,84,638375,-274,-16511,2590,11,-24,-6
49,85,638380,-206,-16486,2481,10,0,-8
49,86,638385,-65,-16548,2720,12,48,-15
49,87,638390,18,-16454,2884,13,57,-18
49,88,638395,-9,-16320,2925,13,58,-20
49,89,638400,-22,-16150,2938,16,59,-19
49,90,638405,98,-16052,3047,14,57,-19
49,91,638410,183,-16040,3323,14,42,-18
49,92,638415,312,-16049,3456,17,12,-17
49,93,638420,304,-16095,3341,15,-18,-15
49,94,638425,215,-16062,3144,13,-32,-14
49,95,638430,73,-16006,3026,14,-36,-11
49,96,638435,-22,-16114,3009,15,-41,-10
49,97,638440,6,-16292,2865,19,-46,-11
49,98,638445,39,-16372,2861,16,-39,-10
49,99,638450,79,-16407,2862,9,-29,-11
49,100,638455,124,-16379,2846,11,-18,-15
49,101,638460,13,-16339,2854,13,-3,-17
49,102,638465,-9,-16353,2890,10,9,-15
49,103,638470,30,-16280,2918,8,20,-16
49,104,638475,120,-16244,2970,7,34,-17
49,105,638480,85,-16350,3095,7,44,-17
49,106,638485,55,-16484,3081,5,37,-19
49,107,638490,109,-16489,3067,5,20,-18
49,108,638495,139,-16382,3174,6,-5,-18
49,109,638500,226,-16205,3144,4,-27,-16
49,110,638505,263,-16117,3118,6,-30,-16
49,111,638510,225,-16054,2861,7,-26,-13
49,112,638515,175,-16040,2894,5,-9,-13
49,113,638520,155,-16086,3122,4,-8,-17
49,114,638525,85,-16136,3271,3,-18,-13
49,115,638530,145,-16151,2967,2,-21,-10
49,116,638535,114,-16175,2722,-1,2,-11
49,117,638540,117,-16190,2854,-1,30,-17
49,118,638545,95,-16167,3191,-8,30,-16
49,119,638550,156,-16084,3248,-5,6,-13
49,120,638555,238,-16102,3094,-1,-12,-9
49,121,638560,114,-16206,3079,-4,-17,-10
49,122,638565,55,-16168,3242,-8,-37,-11
49,123,638570,153,-16116,3266,-9,-80,-7
49,124,638575,155,-16112,3024,-4,-116,-5
49,125,638580,91,-16131,2937,-1,-119,-3
49,126,638585,-9,-16032,3000,-3,-99,-5
49,127,638590,-38,-15985,2991,-6,-79,-5
49,128,638595,104,-16107,2733,-6,-56,-6
49,129,638600,189,-16245,2616,-7,-10,-7
49,130,638605,114,-16342,2897,-10,38,-17
49,131,638610,-41,-16338,3077,-11,56,-20
49,132,638615,-171,-16374,3006,-11,54,-15
49,133,638620,-90,-16449,2875,-9,50,-14
49,134,638625,69,-16517,2908,-10,57,-15
49,135,638630,210,-16537,3036,-11,55,-13
49,136,638635,187,-16486,3103,-8,40,-16
49,137,638640,98,-16396,3005,-4,21,-16
49,138,638645,23,-16301,2890,-5,8,-13
49,139,638650,194,-16323,2903,-4,9,-9
49,140,638655,415,-16334,3010,-5,13,-10
49,141,638660,363,-16321,3206,-6,1,-11
49,142,638665,46,-16222,3180,-1,-16,-13
49,143,638670,-188,-16150,2949,5,-29,-9
49,144,638675,-127,-16152,2633,5,-32,-7
49,145,638680,54,-16306,2797,3,-7,-7
49,146,638685,258,-16402,2989,1,14,-10
49,147,638690,288,-16412,2981,4,26,-12
49,148,638695,87,-16399,2909,3,41,-15
49,149,638700,-125,-16392,3019,4,43,-15
49,150,638705,-94,-16383,3220,7,22,-12
49,151,638710,-11,-16340,3185,7,-5,-5
49,152,638715,159,-16307,3048,8,-24,-6
49,153,638720,285,-16255,3005,6,-27,-6
49,154,638725,288,-16192,3136,9,-22,-8
49,155,638730,223,-16138,3271,8,-36,-7
49,156,638735,216,-16068,3182,9,-55,-3
49,157,638740,172,-16054,2924,12,-51,-5
49,158,638745,108,-16031,2809,12,-30,-5
49,159,638750,106,-16191,2920,5,-6,-6
49,160,638755,48,-16295,2881,7,-11,-6
49,161,638760,-2,-16359,2786,12,-18,-4
49,162,638765,-13,-16376,2720,8,-12,-6
49,163,638770,28,-16405,2794,6,4,-8
49,164,638775,100,-16427,2878,6,13,-4
49,165,638780,196,-16408,2900,5,18,-9
49,166,638785,219,-16339,3006,6,14,-7
49,167,638790,160,-16284,3196,7,-5,-6
49,168,638795,141,-16287,3208,9,-26,-3
49,169,638800,184,-16311,3091,10,-40,-1
49,170,638805,265,-16294,2996,9,-34,-2
49,171,638810,199,-16293,3148,8,-17,-6
49,172,638815,-21,-16299,3164,6,-11,-6
49,173,638820,-93,-16282,3044,3,-18,-3
49,174,638825,41,-16310,2925,0,-17,-3
49,175,638830,-5,-16385,2904,3,-10,-2
49,176,638835,-19,-16363,2942,2,-4,-5
49,177,638840,129,-16373,2835,1,-5,-2
49,178,638845,333,-16337,2802,2,-1,-1
49,179,638850,294,-16258,2945,2,7,-5
49,180,638855,112,-16201,3176,-1,-7,-5
49,181,638860,-46,-16146,3131,3,-36,-4
49,182,638865,-67,-16188,2831,5,-54,-1
49,183,638870,48,-16166,2710,4,-40,-1
49,184,638875,164,-16173,2929,-3,-10,-3
49,185,638880,247,-16087,3125,-5,8,-4
49,186,638885,289,-15991,3088,-2,16,-5
49,187,638890,231,-15952,2938,-1,27,-5
49,188,638895,35,-15937,3081,-3,44,-3
49,189,638900,73,-15973,3293,-6,35,-6
49,190,638905,175,-16079,3291,-4,14,-1
49,191,638910,403,-16162,3015,-5,-4,3
49,192,638915,415,-16138,3091,-5,-2,0
49,193,638920,193,-16152,3287,-7,-9,1
49,194,638925,-5,-16264,3111,-5,-26,2
49,195,638930,87,-16315,2655,-3,-34,3
49,196,638935,181,-16315,2697,-7,-6,2
49,197,638940,200,-16278,3005,-11,22,-1
49,198,638945,232,-16290,3122,-9,25,-2
49,199,638950,219,-16358,2874,-5,19,0
49,200,638955,168,-16373,2798,-5,24,-2
49,201,638960,112,-16363,2966,-9,29,-4
49,202,638965,96,-16301,3291,-9,16,-2
49,203,638970,200,-16267,3239,-5,-8,-4
49,204,638975,190,-16298,2988,0,-11,-5
49,205,638980,108,-16245,2839,-2,-1,-6
49,206,638985,123,-16171,3020,-4,-3,-6
49,207,638990,250,-16142,3213,-4,-14,-9
49,208,638995,265,-16173,3205,0,-26,-4
49,209,639000,221,-16163,3037,4,-20,-7
49,210,639005,95,-16232,2884,4,-10,-9
49,211,639010,83,-16309,3113,4,-8,-9
49,212,639015,93,-16343,3289,1,-29,-7
49,213,639020,142,-16389,3017,9,-51,-3
49,214,639025,109,-16381,2699,11,-42,-7
49,215,639030,-91,-16349,2766,7,-25,-9
49,216,639035,-92,-16350,3010,5,-21,-7
49,217,639040,-72,-16369,3099,7,-36,-5
49,218,639045,0,-16368,2901,10,-39,-4
49,219,639050,-47,-16373,2778,11,-18,-4
49,220,639055,45,-16347,2816,7,2,-7
49,221,639060,269,-16357,3024,6,15,-6
49,222,639065,294,-16279,3127,2,15,-9
49,223,639070,160,-16234,3046,4,7,-10
49,224,639075,-20,-16188,2967,5,-4,-8
49,225,639080,36,-16229,2925,4,-16,-4
49,226,639085,207,-16273,2994,6,-16,1
49,227,639090,311,-16312,2919,3,2,-5
49,228,639095,207,-16251,2942,3,20,-7
49,229,639100,56,-16265,2951,4,30,-9
49,230,639105,20,-16308,2753,6,27,-7
49,231,639110,140,-16352,2648,8,34,-8
49,232,639115,160,-16396,2723,7,43,-10
49,233,639120,208,-16319,2785,6,51,-12
49,234,639125,156,-16240,2981,6,61,-14
49,235,639130,143,-16159,3113,3,54,-14
49,236,639135,175,-16131,3219,6,40,-10
49,237,639140,184,-16141,3232,9,27,-10
49,238,639145,101,-16161,3172,6,15,-11
49,239,639150,100,-16151,3191,6,2,-9
49,240,639155,177,-16099,3340,4,-8,-4
49,241,639160,221,-16058,3410,6,-19,-4
49,242,639165,96,-16084,3367,7,-30,-1
49,243,639170,13,-16129,3106,8,-43,1
49,244,639175,154,-16215,3023,9,-46,3
49,245,639180,200,-16338,3068,5,-48,2
49,246,639185,181,-16426,3046,4,-50,0
49,247,639190,118,-16446,2837,5,-50,-2
49,248,639195,-29,-16411,2773,4,-36,0
49,249,639200,-165,-16425,2773,5,-26,-1
49,250,639205,-114,-16467,2726,4,-20,-6
49,251,639210,25,-16453,2623,5,-10,-6
49,252,639215,81,-16446,2763,4,3,-11
49,253,639220,44,-16340,2836,3,17,-13
49,254,639225,120,-16222,2960,4,27,-15
49,255,639230,231,-16213,3172,4,42,-14
49,256,639235,308,-16203,3332,3,48,-14
49,257,639240,251,-16200,3344,6,41,-17
49,258,639245,85,-16149,3348,6,30,-16
49,259,639250,62,-16076,3265,2,19,-16
49,260,639255,7,-16157,3146,6,18,-12
49,261,639260,47,-16209,2987,6,18,-15
49,262,639265,70,-16269,3012,4,24,-12
49,263,639270,66,-16352,3135,3,22,-10
49,264,639275,103,-16456,3003,3,16,-12
49,265,639280,32,-16432,2764,-1,15,-12
49,266,639285,111,-16360,2796,0,14,-11
49,267,639290,70,-16283,3076,0,10,-11
49,268,639295,41,-16293,3086,2,-2,-14
49,269,639300,60,-16283,2899,4,-13,-8
49,270,639305,66,-16273,2840,7,-20,-3
49,271,639310,70,-16218,3088,4,-22,-6
49,272,639315,110,-16190,3122,4,-33,-8
49,273,639320,103,-16106,2911,5,-37,-1
49,274,639325,172,-16085,2934,6,-25,-5
49,275,639330,140,-16055,3124,4,-9,-10
49,276,639335,257,-16054,3112,1,-13,-9
49,277,639340,523,-16050,3140,3,-21,-9
49,278,639345,520,-16159,3214,3,-25,-8
49,279,639350,336,-16204,3163,3,-33,-12
49,280,639355,144,-16246,2978,2,-42,-9
49,281,639360,65,-16343,2945,5,-47,-5
49,282,639365,87,-16353,3009,6,-53,-4
49,283,639370,59,-16410,3023,3,-49,-5
49,284,639375,52,-16357,2966,3,-48,-6
49,285,639380,74,-16353,2962,4,-49,-5
49,286,639385,26,-16352,3025,3,-54,-3
49,287,639390,-29,-16366,2986,6,-60,-1
49,288,639395,78,-16361,2862,6,-63,1
49,289,639400,98,-16363,2828,2,-58,2
49,290,639405,164,-16393,2915,1,-52,1
49,291,639410,151,-16315,2979,3,-50,0
49,292,639415,74,-16278,2838,4,-51,1
49,293,639420,15,-16211,2990,4,-38,-3
49,294,639425,-24,-16113,3065,4,-23,-7
49,295,639430,188,-15997,2922,7,-5,-6
49,296,639435,409,-15970,2818,4,21,-9
49,297,639440,362,-15989,3227,3,35,-14
49,298,639445,237,-16033,3469,2,17,-14
49,299,639450,144,-16060,3226,5,-11,-13
49,300,639455,23,-16173,2820,6,-18,-15
49,301,639460,-44,-16264,2910,2,2,-16
49,302,639465,-76,-16282,3162,-1,16,-20
49,303,639470,-87,-16430,3206,1,14,-17
49,304,639475,58,-16544,3008,1,7,-17
49,305,639480,28,-16556,3095,2,15,-16
49,306,639485,-151,-16547,3106,2,-11,-12
49,307,639490,-114,-16523,2719,3,-20,-7
49,308,639495,-82,-16555,2997,2,-2,-14
49,309,639500,-139,-16416,3215,0,-3,-12
49,310,639505,-169,-16332,3248,1,-12,-7
49,311,639510,102,-16224,2929,2,-28,-6
49,312,639515,192,-16184,3006,3,-19,-6
49,313,639520,128,-16154,3310,4,-25,-11
49,314,639525,-211,-16233,3345,7,-49,-10
49,315,639530,-23,-16277,2891,9,-90,-3
49,316,639535,185,-16262,2945,6,-92,-8
49,317,639540,101,-16224,3373,2,-92,-9
49,318,639545,-140,-16101,3598,5,-117,-8
49,319,639550,-136,-16088,3311,10,-150,-3
49,320,639555,-30,-16118,3143,9,-150,0
49,321,639560,-52,-16000,3448,4,-138,-3
49,322,639565,-193,-15940,3610,0,-136,-3
49,323,639570,-377,-15970,3133,9,-141,-2
49,324,639575,-511,-16028,2385,11,-100,2
49,325,639580,-498,-16212,2221,7,-14,-5
49,326,639585,-384,-16268,2701,-1,73,-13
49,327,639590,-248,-16210,3180,-4,121,-18
49,328,639595,-73,-16164,3222,-4,126,-19
49,329,639600,-89,-16222,3072,1,115,-15
49,330,639605,-41,-16364,3243,2,109,-13
49,331,639610,22,-16530,3456,5,78,-10
49,332,639615,-79,-16667,3411,10,25,-5
49,333,639620,-283,-16828,3101,16,-29,-1
49,334,639625,-753,-16760,2742,21,-54,-1
49,335,639630,-732,-16639,2536,21,-55,2
49,336,639635,-573,-16585,2620,18,-30,2
49,337,639640,-326,-16544,2742,20,-5,1
49,338,639645,-301,-16531,2949,19,35,-4
49,339,639650,-424,-16453,2775,21,68,-7
49,340,639655,-558,-16289,2771,24,116,-9
49,341,639660,-581,-16069,3152,19,158,-13
49,342,639665,-506,-15861,3662,21,174,-7
49,343,639670,-139,-15928,3727,23,173,1
49,344,639675,5,-16109,3529,27,173,3
49,345,639680,-53,-16208,3711,24,165,2
49,346,639685,-161,-16144,4086,19,99,10
49,347,639690,-125,-16087,4067,24,-1,23
49,348,639695,-39,-16009,3616,31,-76,32
49,349,639700,-25,-15976,3196,31,-90,37
49,350,639705,-79,-15936,3135,29,-69,38
49,351,639710,-194,-15951,3022,29,-58,42
49,352,639715,-385,-16061,2974,31,-49,47
49,353,639720,-552,-16178,2911,31,-30,52
49,354,639725,-473,-16277,2823,32,1,56
49,355,639730,-364,-16378,2929,30,23,57
49,356,639735,-207,-16296,3470,29,10,57
49,357,639740,-304,-16183,4085,29,-50,66
49,358,639745,-360,-16141,4193,40,-130,76
49,359,639750,-390,-16143,3681,50,-182,87
49,360,639755,-414,-16156,3404,49,-198,90
49,361,639760,-619,-16161,3400,43,-198,90
49,362,639765,-755,-16155,3350,46,-208,98
49,363,639770,-819,-16258,2736,53,-185,105
49,364,639775,-843,-16449,2025,50,-95,101
49,365,639780,-972,-16550,2267,40,44,87
49,366,639785,-1068,-16497,3300,32,133,84
49,367,639790,-710,-16401,3379,41,109,97
49,368,639795,-302,-16383,3129,48,114,102
49,369,639800,-289,-16356,3285,41,162,93
49,370,639805,-634,-16462,3686,44,171,94
49,371,639810,-1025,-16588,4011,47,117,102
49,372,639815,-764,-16730,3489,52,16,120
49,373,639820,-467,-16760,3109,55,-22,129
49,374,639825,-533,-16627,2740,54,-9,122
49,375,639830,-655,-16361,3015,54,12,120
49,376,639835,-554,-16073,3304,52,-11,130
49,377,639840,-472,-15914,3794,52,-44,133
49,378,639845,-268,-15785,3793,59,-76,141
49,379,639850,-594,-15665,3360,61,-58,146
49,380,639855,-797,-15761,3413,60,-56,151
49,381,639860,-850,-15897,3351,57,-73,156
49,382,639865,-879,-15988,3284,59,-57,157
49,383,639870,-855,-16080,2802,58,8,157
49,384,639875,-979,-16285,3148,57,108,151
49,385,639880,-981,-16604,3195,55,128,150
49,386,639885,-859,-16780,3440,52,108,154
49,387,639890,-754,-16646,3484,50,73,154
49,388,639895,-1040,-16496,3683,52,62,152
49,389,639900,-1225,-16487,3471,59,37,156
49,390,639905,-1201,-16500,3264,56,29,163
49,391,639910,-842,-16507,3181,53,19,164
49,392,639915,-739,-16434,3317,55,4,164
49,393,639920,-831,-16281,3220,59,-25,163
49,394,639925,-1160,-16133,3154,63,-27,161
49,395,639930,-1370,-16025,3078,62,-4,160
49,396,639935,-1258,-16033,2995,60,23,164
49,397,639940,-896,-15976,3229,58,62,164
49,398,639945,-749,-15985,3486,56,84,161
49,399,639950,-912,-16001,3707,60,79,161
49,400,639955,-1096,-16108,3631,62,53,161
49,401,639960,-1171,-16147,3472,59,37,166
49,402,639965,-1309,-16192,3609,53,39,165
49,403,639970,-1397,-16185,3707,54,31,164
49,404,639975,-1239,-16371,3333,59,25,173
49,405,639980,-1023,-16583,2871,60,53,173
49,406,639985,-1020,-16610,3125,51,114,165
49,407,639990,-1234,-16441,3725,47,141,158
49,408,639995,-1231,-16236,3703,52,111,167
49,409,640000,-1194,-16288,3221,57,104,172
49,410,640005,-1311,-16265,2809,50,145,167
49,411,640010,-1295,-16325,3358,43,188,164
49,412,640015,-1136,-16370,3625,44,190,167
49,413,640020,-891,-16449,3746,46,186,167
49,414,640025,-860,-16391,3415,49,184,168
49,415,640030,-1201,-16362,3394,49,187,168
49,416,640035,-1305,-16341,3666,43,169,171
49,417,640040,-1354,-16277,3920,44,133,179
49,418,640045,-1200,-16302,3647,51,98,184
49,419,640050,-1077,-16375,3036,53,99,186
49,420,640055,-881,-16386,3021,51,132,186
49,421,640060,-747,-16364,3534,47,145,184
49,422,640065,-908,-16414,3662,50,123,185
49,423,640070,-1084,-16444,3275,55,104,190
49,424,640075,-1235,-16362,2886,51,120,192
49,425,640080,-1342,-16327,3102,50,157,193
49,426,640085,-1291,-16313,3613,45,180,192
49,427,640090,-1070,-16307,3550,48,174,197
49,428,640095,-906,-16437,3279,53,179,202
49,429,640100,-862,-16473,3171,49,193,201
49,430,640105,-954,-16345,3594,45,184,200
49,431,640110,-1132,-16156,4146,46,138,205
49,432,640115,-1201,-16018,4085,50,78,210
49,433,640120,-1074,-15952,3754,58,53,220
49,434,640125,-1014,-15901,3550,56,61,221
49,435,640130,-869,-15887,3654,51,64,222
49,436,640135,-937,-15972,4101,50,43,223
49,437,640140,-1167,-16155,3972,56,-6,231
49,438,640145,-1329,-16344,3435,63,-36,238
49,439,640150,-1401,-16433,2901,63,-17,238
49,440,640155,-1514,-16368,3090,55,35,236
49,441,640160,-1400,-16362,3410,50,54,231
49,442,640165,-1283,-16320,3661,53,76,234
49,443,640170,-1113,-16334,3216,61,86,238
49,444,640175,-1130,-16271,3026,59,128,229
49,445,640180,-1139,-16174,3302,56,152,228
49,446,640185,-1217,-16071,3783,56,130,232
49,447,640190,-1143,-16147,3678,65,86,236
49,448,640195,-1120,-16183,3269,72,71,241
49,449,640200,-1033,-16301,2861,74,92,242
49,450,640205,-1065,-16266,3040,69,127,239
49,451,640210,-1086,-16136,3613,68,127,238
49,452,640215,-1186,-16072,3747,74,86,244
49,453,640220,-934,-16122,3440,81,75,248
49,454,640225,-939,-16091,3929,79,66,248
49,455,640230,-1219,-16115,4229,81,3,250
49,456,640235,-1273,-16203,3594,89,-92,263
49,457,640240,-1246,-16298,3042,97,-123,270
49,458,640245,-1183,-16380,3006,97,-106,267
49,459,640250,-1130,-16244,3379,96,-79,259
49,460,640255,-1014,-16018,3282,101,-76,265
49,461,640260,-945,-15859,3044,104,-43,266
49,462,640265,-911,-15733,3257,98,44,258
49,463,640270,-1021,-15668,4004,97,121,255
49,464,640275,-1117,-15675,4042,100,136,255
49,465,640280,-1233,-15851,3857,105,132,258
49,466,640285,-1093,-16024,3723,104,97,264
49,467,640290,-987,-16147,4030,104,46,269
49,468,640295,-1018,-16141,4389,107,-14,269
49,469,640300,-1172,-16081,3987,113,-77,276
49,470,640305,-1325,-16055,3313,118,-99,276
49,471,640310,-1601,-16061,3249,115,-77,272
49,472,640315,-1623,-16064,3340,115,-56,271
49,473,640320,-1369,-16065,3220,121,-24,275
49,474,640325,-1161,-16053,2975,123,33,270
49,475,640330,-1166,-16096,3130,123,98,264
49,476,640335,-1247,-16198,3136,121,128,259
49,477,640340,-1300,-16137,3436,118,143,258
49,478,640345,-1215,-16161,3497,118,125,260
49,479,640350,-1179,-16151,3614,121,113,258
49,480,640355,-1091,-16118,3533,128,100,263
49,481,640360,-923,-16006,3566,131,86,263
49,482,640365,-864,-15858,3664,130,51,262
49,483,640370,-847,-15745,3792,132,4,264
49,484,640375,-751,-15672,3731,137,-31,267
49,485,640380,-711,-15637,3552,135,-40,268
49,486,640385,-742,-15617,3572,132,-42,269
49,487,640390,-897,-15567,3709,133,-51,269
49,488,640395,-935,-15468,3586,132,-61,269
49,489,640400,-842,-15484,3469,130,-48,272
49,490,640405,-827,-15602,3551,129,-21,269
49,491,640410,-799,-15739,3738,125,-9,270
49,492,640415,-808,-15837,3747,125,-39,274
49,493,640420,-1009,-15815,3613,122,-84,269
49,494,640425,-1122,-15782,3428,124,-116,273
49,495,640430,-922,-15702,3217,122,-114,271
49,496,640435,-847,-15811,3360,115,-80,266
49,497,640440,-990,-15985,3319,115,-38,254
49,498,640445,-1127,-16011,3362,114,-10,251
49,499,640450,-1129,-16171,2815,113,-9,251
49,500,640455,-1113,-16231,2785,106,26,246
49,501,640460,-921,-16171,3076,100,54,244
49,502,640465,-847,-16075,3416,97,63,236
49,503,640470,-783,-15905,3350,100,61,233
49,504,640475,-801,-15739,3228,97,79,229
49,505,640480,-864,-15609,3244,86,106,216
49,506,640485,-905,-15642,3430,82,129,214
49,507,640490,-890,-15761,3575,80,124,211
49,508,640495,-777,-15897,3636,79,90,208
49,509,640500,-623,-15981,3934,69,49,204
49,510,640505,-496,-15859,4315,63,-2,201
49,511,640510,-458,-15679,4323,66,-72,201
49,512,640515,-704,-15740,4007,61,-130,195
49,513,640520,-936,-15752,3543,58,-169,192
49,514,640525,-794,-15835,3358,51,-188,194
49,515,640530,-651,-15845,3259,45,-190,183
49,516,640535,-718,-15853,3172,46,-172,171
49,517,640540,-934,-15927,2548,41,-135,161
49,518,640545,-1320,-15910,2895,31,-64,143
49,519,640550,-1207,-15948,2846,24,-17,135
49,520,640555,-1072,-16027,3050,17,58,123
49,521,640560,-776,-16132,2886,16,108,110
49,522,640565,-684,-16207,3081,11,155,91
49,523,640570,-698,-16305,3378,2,164,80
49,524,640575,-765,-16390,3837,-2,146,66
49,525,640580,-915,-16546,3718,0,95,58
49,526,640585,-902,-16786,2855,-6,35,40
49,527,640590,-724,-16964,2977,-14,23,31
49,528,640595,-420,-16977,3565,-16,-12,16
49,529,640600,-286,-16681,3737,-17,-80,6
49,530,640605,-267,-16277,3559,-11,-139,2
49,531,640610,-527,-15850,3189,-15,-149,-11
49,532,640615,-672,-15649,2946,-21,-130,-22
49,533,640620,-574,-15566,2893,-26,-96,-37
49,534,640625,-403,-15509,3303,-32,-56,-51
49,535,640630,-156,-15477,3300,-33,-39,-62
49,536,640635,129,-15332,3364,-34,0,-83
49,537,640640,241,-15315,3696,-38,39,-101
49,538,640645,101,-15547,4186,-49,43,-122
49,539,640650,-155,-15884,4397,-54,-22,-131
49,540,640655,-30,-16326,4058,-49,-146,-133
49,541,640660,157,-16687,3717,-49,-261,-138
49,542,640665,-42,-17102,3465,-47,-358,-146
49,543,640670,-224,-17351,3252,-39,-453,-156
49,544,640675,-57,-17400,2746,-38,-537,-159
49,545,640680,185,-17331,2241,-38,-577,-174
49,546,640685,142,-17227,2161,-41,-532,-197
49,547,640690,-172,-16982,2119,-47,-448,-218
49,548,640695,-469,-16775,1445,-44,-333,-234
49,549,640700,-544,-16673,1078,-46,-134,-265
49,550,640705,-303,-16619,1114,-58,72,-292
49,551,640710,141,-16549,1998,-67,246,-317
49,552,640715,952,-16511,3053,-73,345,-341
49,553,640720,1252,-16596,4026,-67,371,-357
49,554,640725,1413,-16681,4109,-61,333,-376
49,555,640730,1383,-16639,3721,-55,254,-386
49,556,640735,1657,-16387,3664,-59,157,-388
49,557,640740,1948,-16194,4292,-57,45,-395
49,558,640745,2199,-16254,4354,-48,-96,-399
49,559,640750,2296,-16311,3665,-46,-207,-402
49,560,640755,2211,-16315,3022,-55,-265,-409
49,561,640760,2078,-16391,3187,-62,-290,-418
49,562,640765,2055,-16596,2805,-56,-326,-425
49,563,640770,2145,-16615,2595,-54,-297,-434
49,564,640775,2429,-16518,2633,-56,-268,-442
49,565,640780,2416,-16318,3368,-63,-286,-455
49,566,640785,2584,-16073,3772,-64,-387,-458
49,567,640790,2743,-16094,3819,-63,-500,-459
49,568,640795,3084,-16039,3900,-68,-584,-470
49,569,640800,3262,-16049,4095,-73,-657,-481
49,570,640805,3024,-16139,4084,-74,-753,-489
49,571,640810,2802,-16427,3359,-65,-900,-490
49,572,640815,2484,-16547,3157,-70,-1007,-496
49,573,640820,2441,-16690,3076,-74,-1074,-498
49,574,640825,2641,-16921,3011,-77,-1089,-501
49,575,640830,2550,-17450,1950,-77,-1075,-517
49,576,640835,1955,-17994,608,-90,-955,-540
49,577,640840,1269,-18249,550,-114,-740,-573
49,578,640845,989,-18121,1387,-129,-540,-601
49,579,640850,1242,-18181,1682,-139,-400,-613
49,580,640855,1443,-18077,2727,-153,-252,-647
49,581,640860,1653,-17734,3685,-162,-208,-669
49,582,640865,1936,-17243,4227,-166,-258,-680
49,583,640870,2032,-16782,4247,-173,-341,-690
49,584,640875,1864,-16500,4044,-182,-393,-706
49,585,640880,1630,-16339,3813,-196,-407,-720
49,586,640885,1632,-16350,3549,-207,-405,-730
49,587,640890,1712,-16420,3325,-223,-370,-747
49,588,640895,1872,-16469,3152,-241,-315,-765
49,589,640900,1701,-16471,3446,-259,-233,-789
49,590,640905,1776,-16417,4024,-278,-171,-808
49,591,640910,2097,-16324,4493,-291,-140,-816
49,592,640915,2292,-16306,4391,-300,-136,-830
49,593,640920,2139,-16398,4551,-316,-141,-847
49,594,640925,1591,-16878,4964,-331,-191,-855
49,595,640930,1349,-17348,5176,-339,-307,-858
49,596,640935,1475,-17738,4857,-350,-447,-859
49,597,640940,1630,-17974,4520,-363,-557,-862
49,598,640945,1434,-14545,3434,-375,-642,-867
49,599,640950,-7173,826,-7160,-594,2331,-1058
49,600,640955,12647,-13854,17531,-431,7322,-658
49,601,640960,-5889,-10458,32767,-677,8044,-1610
49,602,640965,24571,-11696,26505,-61,-1761,-444
49,603,640970,20304,-19294,12855,203,-7958,6
49,604,640975,-16160,-13876,-2347,68,-9048,-419
49,605,640980,-17161,-17243,-24454,-408,-8420,-118
49,606,640985,-12229,-18713,-18292,-598,-3287,-296
49,607,640990,4493,-17567,-14312,-477,751,-785
49,608,640995,10721,-20561,-1674,-425,2443,-912
49,609,641000,4555,-19088,10172,-420,2207,-1109
49,610,641005,-2751,-17845,9095,-394,794,-993
49,611,641010,-5290,-17644,4999,-354,318,-795
49,612,641015,-1864,-16493,7004,-508,743,-858
49,613,641020,4871,-17632,11830,-539,498,-866
49,614,641025,7707,-17435,14082,-427,-791,-799
49,615,641030,5073,-18457,5399,-331,-2338,-720
49,616,641035,-1356,-17714,584,-319,-2650,-729
49,617,641040,-4500,-18235,-5210,-370,-2224,-709
49,618,641045,-3519,-17787,-4290,-460,-1179,-797
49,619,641050,783,-18510,-3093,-485,-431,-831
49,620,641055,2798,-19160,585,-487,148,-897
49,621,641060,2319,-18403,1743,-475,374,-966
49,622,641065,-6,-17759,3019,-467,513,-980
49,623,641070,-898,-16891,4511,-476,478,-979
49,624,641075,450,-16406,5932,-461,300,-950
49,625,641080,2841,-16357,6863,-449,38,-928
49,626,641085,4188,-16424,6708,-428,-296,-925
49,627,641090,3263,-16783,5127,-413,-652,-917
49,628,641095,962,-16830,4002,-413,-929,-910
49,629,641100,-649,-16878,1850,-420,-1107,-883
49,630,641105,-527,-17100,229,-428,-1010,-873
49,631,641110,649,-17198,397,-444,-685,-891
49,632,641115,1903,-17315,1766,-443,-388,-911
49,633,641120,2220,-17174,2127,-426,-310,-923
49,634,641125,1537,-17129,1950,-421,-278,-926
49,635,641130,995,-16907,3084,-433,-191,-929
49,636,641135,1350,-16970,2332,-421,-179,-913
49,637,641140,1943,-17222,2071,-422,-82,-913
49,638,641145,2207,-17446,2405,-432,-6,-923
49,639,641150,1701,-17522,3090,-421,-18,-923
49,640,641155,1709,-17686,2274,-399,-167,-902
49,641,641160,1586,-17964,1649,-385,-191,-888
49,642,641165,1468,-18017,1503,-384,-112,-890
49,643,641170,1519,-17902,2122,-377,-45,-884
49,644,641175,1886,-17492,2673,-370,-80,-876
49,645,641180,2106,-17172,2393,-359,-168,-858
49,646,641185,2163,-16996,2187,-349,-186,-851
49,647,641190,1927,-16820,2078,-346,-158,-843
49,648,641195,1866,-16869,2275,-341,-105,-835
49,649,641200,2104,-16912,2588,-338,-83,-828
49,650,641205,2427,-17069,2535,-328,-108,-809
49,651,641210,2474,-16976,2407,-320,-137,-798
49,652,641215,2188,-16596,2738,-313,-150,-790
49,653,641220,2112,-16238,2609,-306,-175,-774
49,654,641225,2377,-15894,2967,-302,-164,-762
49,655,641230,2695,-15599,3224,-299,-173,-745
49,656,641235,2835,-15385,3442,-292,-217,-731
49,657,641240,2911,-15303,3043,-287,-278,-713
49,658,641245,2871,-15324,2649,-278,-294,-692
49,659,641250,2777,-15605,2045,-272,-283,-683
49,660,641255,2634,-15890,1716,-267,-258,-668
49,661,641260,2444,-16106,1979,-263,-256,-654
49,662,641265,2386,-16288,2206,-258,-295,-643
49,663,641270,2442,-16443,1939,-244,-352,-621
49,664,641275,2774,-16420,1698,-239,-368,-606
49,665,641280,2896,-16345,1803,-231,-357,-591
49,666,641285,2991,-16181,1883,-223,-356,-582
49,667,641290,3059,-16120,1514,-219,-349,-570
49,668,641295,3033,-16025,1120,-209,-311,-554
49,669,641300,2954,-16021,1348,-204,-235,-546
49,670,641305,2859,-16039,1742,-198,-163,-539
49,671,641310,3037,-15988,1956,-192,-123,-525
49,672,641315,3762,-15577,2465,-180,-102,-498
49,673,641320,3841,-15422,2770,-169,-124,-483
49,674,641325,3824,-15323,2766,-163,-159,-470
49,675,641330,3681,-15279,2486,-156,-197,-453
49,676,641335,3499,-15157,2654,-153,-226,-439
49,677,641340,3446,-14951,2535,-150,-273,-421
49,678,641345,3678,-14873,2007,-142,-299,-403
49,679,641350,3817,-15023,1851,-136,-278,-397
49,680,641355,3833,-15229,2290,-135,-266,-388
49,681,641360,3962,-15362,2908,-127,-301,-370
49,682,641365,4340,-15398,3118,-124,-381,-354
49,683,641370,4568,-15261,3025,-117,-471,-340
49,684,641375,4282,-15225,2989,-108,-553,-328
49,685,641380,3923,-15241,2926,-98,-629,-313
49,686,641385,3892,-15264,2230,-92,-697,-297
49,687,641390,3895,-15480,1228,-88,-686,-287
49,688,641395,3918,-15531,1165,-92,-596,-287
49,689,641400,4076,-15340,1935,-92,-538,-282
49,690,641405,4183,-15085,2321,-87,-543,-270
49,691,641410,4300,-15102,2022,-72,-544,-262
49,692,641415,4098,-15342,1122,-64,-507,-261
49,693,641420,3822,-15708,501,-64,-435,-258
49,694,641425,3774,-16019,311,-60,-370,-258
49,695,641430,3839,-16079,313,-51,-303,-256
49,696,641435,3723,-16241,320,-42,-203,-259
49,697,641440,3536,-16894,-237,-32,-88,-266
49,698,641445,3838,-17426,-757,-26,32,-267
49,699,641450,4206,-17495,-74,-29,126,-275
49,700,641455,4295,-16886,1727,-26,131,-284
49,701,641460,4515,-16189,1633,-3,12,-267
49,702,641465,4800,-15476,1274,11,-23,-260
49,703,641470,5034,-14933,1236,12,-42,-256
49,704,641475,5087,-14705,1835,12,-74,-253
49,705,641480,5146,-14514,1909,20,-141,-250
49,706,641485,5162,-14413,1622,30,-217,-233
49,707,641490,4978,-14230,1484,38,-263,-231
49,708,641495,4891,-14273,1313,45,-288,-223
49,709,641500,5027,-14336,906,48,-283,-217
49,710,641505,5323,-14484,1261,43,-253,-215
49,711,641510,5547,-14546,1997,42,-259,-210
49,712,641515,5378,-14925,1933,44,-324,-206
49,713,641520,5208,-15432,1383,47,-382,-200
49,714,641525,4847,-15782,824,50,-412,-198
49,715,641530,4339,-15961,783,46,-408,-199
49,716,641535,3992,-16109,745,43,-410,-198
49,717,641540,4212,-16146,531,42,-411,-192
49,718,641545,4644,-15933,401,43,-386,-193
49,719,641550,4812,-15559,776,40,-326,-201
49,720,641555,4530,-15070,1247,36,-265,-210
49,721,641560,4368,-14657,1257,35,-215,-208
49,722,641565,4619,-14548,688,35,-158,-201
49,723,641570,5060,-14731,286,30,-71,-203
49,724,641575,5224,-14832,633,18,29,-214
49,725,641580,5112,-14689,1425,13,74,-216
49,726,641585,5004,-14459,1387,12,47,-210
49,727,641590,5171,-14422,1044,18,34,-201
49,728,641595,5426,-14434,1032,15,48,-202
49,729,641600,5588,-14377,1846,10,26,-199
49,730,641605,5541,-14375,2136,13,-101,-189
49,731,641610,5283,-14505,1899,19,-266,-173
49,732,641615,5160,-14956,338,31,-428,-152
49,733,641620,4755,-15258,-116,25,-428,-150
49,734,641625,4419,-15437,-47,17,-363,-158
49,735,641630,4333,-15532,101,18,-305,-151
49,736,641635,4800,-15702,-586,23,-276,-141
49,737,641640,5189,-15617,-197,10,-193,-146
49,738,641645,5514,-15069,951,-3,-134,-154
49,739,641650,5455,-14578,1966,-1,-127,-149
49,740,641655,5479,-14366,1512,7,-160,-140
49,741,641660,5478,-14398,711,14,-153,-128
49,742,641665,5397,-14497,343,9,-100,-129
49,743,641670,5255,-14572,642,0,-20,-132
49,744,641675,5172,-14604,786,1,31,-127
49,745,641680,5157,-14740,628,-3,56,-125
49,746,641685,5112,-15040,705,-4,56,-114
49,747,641690,5231,-15047,794,-5,11,-105
49,748,641695,5420,-14946,645,-3,-29,-96
49,749,641700,5683,-14832,331,-5,-38,-90
49,750,641705,5648,-14677,214,-7,-5,-89
49,751,641710,5328,-14653,292,-6,39,-88
49,752,641715,5238,-14793,163,-5,71,-84
49,753,641720,5646,-14972,64,-6,92,-76
49,754,641725,6092,-15321,238,-5,112,-71
49,755,641730,6147,-15564,664,-4,109,-70
49,756,641735,6088,-15485,972,1,55,-64
49,757,641740,5927,-15146,1236,1,-38,-55
49,758,641745,5890,-14948,1401,5,-157,-41
49,759,641750,6065,-14851,1213,14,-270,-25
49,760,641755,6195,-14863,751,21,-363,-8
49,761,641760,6101,-14825,446,23,-399,-3
49,762,641765,5664,-14905,501,19,-380,-1
49,763,641770,5493,-15074,3,20,-365,8
49,764,641775,5532,-15077,-233,20,-315,15
49,765,641780,5509,-15184,-324,14,-218,10
49,766,641785,5381,-15199,16,9,-90,0
49,767,641790,5586,-15171,343,5,12,5
49,768,641795,5858,-15098,627,7,42,5
49,769,641800,5740,-15088,960,9,7,7
49,770,641805,5738,-15148,812,11,-45,10
49,771,641810,5866,-15113,670,12,-69,20
49,772,641815,5967,-15364,254,16,-91,25
49,773,641820,5765,-15518,329,14,-99,18
49,774,641825,5591,-15497,664,14,-140,24
49,775,641830,5822,-15246,729,18,-199,34
49,776,641835,6214,-15101,335,28,-227,42
49,777,641840,6397,-15018,4,27,-194,41
49,778,641845,6279,-15067,37,27,-147,42
49,779,641850,6103,-15181,161,27,-139,43
49,780,641855,6231,-15119,95,28,-161,49
49,781,641860,6579,-14896,25,31,-161,57
49,782,641865,6482,-14669,142,31,-116,56
49,783,641870,6201,-14630,120,36,-61,53
49,784,641875,6140,-14748,126,34,-21,57
49,785,641880,6280,-14871,321,34,-5,62
49,786,641885,6547,-14958,653,31,-20,61
49,787,641890,6609,-15013,669,36,-45,64
49,788,641895,6419,-15200,280,40,-61,66
49,789,641900,6159,-15339,-89,42,-59,68
49,790,641905,6184,-15409,46,42,-49,65
49,791,641910,6257,-15381,422,44,-58,70
49,792,641915,6501,-15378,572,48,-90,76
49,793,641920,6502,-15489,426,53,-134,78
49,794,641925,6176,-15661,200,56,-178,75
49,795,641930,5746,-15823,38,59,-212,79
49,796,641935,5925,-16005,-436,62,-219,83
49,797,641940,6295,-16000,-593,60,-168,79
49,798,641945,6500,-15815,-341,60,-85,67
49,799,641950,6427,-15540,222,58,-12,62
49,800,641955,6345,-15431,249,60,18,58
49,801,641960,6385,-15373,173,59,36,59
49,802,641965,6662,-15177,499,52,39,56
49,803,641970,6688,-14950,1138,52,16,53
49,804,641975,6339,-14813,983,55,-50,56
49,805,641980,6000,-14900,107,65,-97,59
49,806,641985,5837,-15183,-874,64,-75,60
49,807,641990,6029,-15361,-845,54,31,54
49,808,641995,6185,-15304,6,44,147,40
49,809,642000,6532,-15243,540,41,207,34
49,810,642005,6893,-15084,580,40,220,31
49,811,642010,6837,-15015,721,40,194,28
49,812,642015,6533,-14941,1166,36,124,26
49,813,642020,6392,-14886,1544,34,9,34
49,814,642025,6679,-14847,1298,39,-118,50
49,815,642030,7065,-14756,801,41,-174,54
49,816,642035,7182,-14765,374,35,-167,47
49,817,642040,6823,-14757,375,32,-145,36
49,818,642045,6316,-14851,480,27,-156,36
49,819,642050,6360,-15213,-101,22,-173,38
49,820,642055,6393,-15335,0,19,-138,29
49,821,642060,6196,-15412,142,16,-124,21
49,822,642065,6053,-15518,133,14,-165,23
49,823,642070,6023,-15706,-23,13,-217,24
49,824,642075,6242,-15603,-173,12,-225,22
49,825,642080,6219,-15398,-191,11,-180,16
49,826,642085,6348,-15112,-35,6,-107,3
49,827,642090,6425,-14932,299,-2,-42,-5
49,828,642095,6632,-14787,412,-3,-2,-6
49,829,642100,6637,-14639,598,-5,30,-12
49,830,642105,6485,-14544,665,-7,54,-18
49,831,642110,6235,-14584,741,-10,62,-21
49,832,642115,6228,-14801,601,-12,43,-22
49,833,642120,6358,-14955,468,-16,27,-20
49,834,642125,6458,-14982,274,-18,21,-22
49,835,642130,6177,-14983,256,-18,26,-29
49,836,642135,6081,-15178,22,-16,23,-30
49,837,642140,6211,-15446,-108,-23,32,-33
49,838,642145,6430,-15665,-49,-28,44,-38
49,839,642150,6577,-15703,184,-26,38,-42
49,840,642155,6605,-15613,388,-28,8,-42
49,841,642160,6704,-15438,452,-25,-29,-41
49,842,642165,6734,-15206,428,-23,-51,-39
49,843,642170,6691,-15099,423,-22,-55,-41
49,844,642175,6666,-15172,298,-20,-55,-43
49,845,642180,6775,-15212,205,-18,-58,-42
49,846,642185,6790,-15221,283,-20,-60,-45
49,847,642190,6543,-15252,177,-20,-65,-47
49,848,642195,6398,-15271,51,-17,-56,-46
49,849,642200,6353,-15256,-109,-17,-37,-45
49,850,642205,6358,-15330,21,-24,-13,-49
49,851,642210,6493,-15447,238,-25,-4,-50
49,852,642215,6618,-15500,298,-24,2,-51
49,853,642220,6614,-15412,38,-20,21,-55
49,854,642225,6442,-15335,-25,-18,62,-57
49,855,642230,6393,-15177,82,-19,103,-61
49,856,642235,6398,-15091,215,-18,127,-63
49,857,642240,6545,-15125,193,-12,123,-62
49,858,642245,6638,-15170,-21,-11,104,-58
49,859,642250,6644,-15124,185,-14,81,-60
49,860,642255,6583,-15043,362,-13,49,-58
49,861,642260,6621,-15047,379,-10,21,-56
49,862,642265,6736,-15193,225,-3,18,-54
49,863,642270,6752,-15454,126,-2,27,-52
49,864,642275,6913,-15471,289,-3,36,-52
49,865,642280,6859,-15380,552,-2,20,-51
49,866,642285,6822,-15326,325,2,-7,-45
49,867,642290,6769,-15261,-149,6,-9,-49
49,868,642295,6643,-15193,-55,2,21,-48
49,869,642300,6692,-15113,441,-5,52,-49
49,870,642305,6920,-15069,623,-8,72,-49
49,871,642310,7054,-15006,563,-4,83,-42
49,872,642315,7070,-15068,685,-2,80,-44
49,873,642320,6818,-15109,768,1,52,-40
49,874,642325,6787,-15059,637,1,3,-33
49,875,642330,6811,-15086,433,2,-33,-25
49,876,642335,6914,-15107,176,5,-35,-23
49,877,642340,6829,-15146,159,8,-7,-26
49,878,642345,6605,-15330,219,6,13,-28
49,879,642350,6529,-15377,76,9,3,-24
49,880,642355,6519,-15381,194,8,-12,-21
49,881,642360,6446,-15333,378,8,-32,-26
49,882,642365,6498,-15201,239,11,-49,-21
49,883,642370,6506,-15096,102,10,-43,-20
49,884,642375,6640,-14940,269,12,-33,-20
49,885,642380,6980,-14738,387,11,-35,-17
49,886,642385,7307,-14690,556,13,-41,-15
49,887,642390,7251,-14757,667,17,-55,-16
49,888,642395,6915,-14896,402,21,-66,-13
49,889,642400,6760,-14935,-113,23,-71,-11
49,890,642405,6571,-15042,91,20,-57,-9
49,891,642410,6593,-15182,510,17,-53,-6
49,892,642415,6877,-15099,-31,28,-52,-1
49,893,642420,6968,-14959,73,26,-18,-8
49,894,642425,6897,-14827,447,23,8,-11
49,895,642430,6959,-14915,460,21,24,-4
49,896,642435,6882,-15112,184,26,39,-6
49,897,642440,6722,-15275,118,27,52,-9
49,898,642445,6473,-15321,397,23,42,-8
49,899,642450,6398,-15151,692,25,0,-5
49,900,642455,6605,-15030,844,29,-55,5
49,901,642460,6928,-14903,522,33,-86,6
49,902,642465,7022,-14989,213,33,-76,5
49,903,642470,6529,-15247,249,30,-59,-2
49,904,642475,6124,-15285,431,29,-76,-3
49,905,642480,6139,-15173,506,30,-99,2
49,906,642485,6451,-15077,310,25,-88,2
49,907,642490,6668,-15143,238,27,-38,-2
49,908,642495,6682,-15134,335,31,3,-10
49,909,642500,6507,-15187,615,29,-4,-14
49,910,642505,6314,-15207,683,29,-53,-11
49,911,642510,6280,-15245,375,32,-96,-11
49,912,642515,6330,-15314,50,35,-90,-8
49,913,642520,6403,-15312,58,33,-57,-14
49,914,642525,6442,-15369,246,30,-38,-13
49,915,642530,6348,-15287,277,32,-37,-15
49,916,642535,6360,-15089,162,30,-29,-16
49,917,642540,6301,-14951,50,26,9,-20
49,918,642545,6338,-14890,80,24,75,-28
49,919,642550,6600,-14868,451,20,137,-31
49,920,642555,6720,-14849,616,17,161,-32
49,921,642560,6727,-14809,665,20,152,-33
49,922,642565,6571,-14768,754,18,113,-37
49,923,642570,6514,-14741,904,20,53,-30
49,924,642575,6704,-14705,725,24,8,-23
49,925,642580,6772,-14837,382,24,-12,-20
49,926,642585,6640,-15022,297,23,-22,-22
49,927,642590,6355,-15261,421,22,-54,-24
49,928,642595,6089,-15444,220,25,-109,-20
49,929,642600,6159,-15574,-131,28,-137,-19
49,930,642605,6235,-15701,-184,31,-125,-21
49,931,642610,6310,-15678,-156,30,-92,-28
49,932,642615,6235,-15587,-155,27,-64,-31
49,933,642620,6161,-15319,-147,25,-42,-37
49,934,642625,6043,-15147,70,26,-18,-37
49,935,642630,6225,-15009,26,25,24,-39
49,936,642635,6453,-15050,25,28,99,-42
49,937,642640,6571,-15185,330,24,167,-50
49,938,642645,6393,-15149,753,19,175,-51
49,939,642650,6308,-15001,994,17,124,-51
49,940,642655,6363,-14809,946,18,76,-46
49,941,642660,6651,-14827,717,21,68,-39
49,942,642665,6884,-14928,722,17,108,-44
49,943,642670,6967,-15035,943,12,132,-46
49,944,642675,6955,-15061,1111,9,108,-48
49,945,642680,6765,-14956,961,11,59,-42
49,946,642685,6790,-14843,585,14,25,-36
49,947,642690,6819,-14804,407,14,42,-32
49,948,642695,6798,-14907,521,8,86,-35
49,949,642700,6843,-15076,593,4,109,-34
49,950,642705,6783,-15275,615,3,103,-31
49,951,642710,6733,-15414,543,3,75,-29
49,952,642715,6883,-15356,570,3,46,-23
49,953,642720,6977,-15233,621,4,24,-19
49,954,642725,7049,-15228,774,5,9,-17
49,955,642730,6997,-15202,813,5,-25,-14
49,956,642735,6917,-15142,659,4,-66,-10
49,957,642740,7016,-15096,417,8,-90,-6
49,958,642745,6991,-14995,426,8,-83,-7
49,959,642750,6925,-14982,441,6,-71,-5
49,960,642755,6797,-14956,596,4,-56,-4
49,961,642760,6871,-14931,333,4,-50,-1
49,962,642765,6920,-14850,207,7,-23,0
49,963,642770,6918,-14696,198,10,10,-5
49,964,642775,6782,-14668,369,6,36,-1
49,965,642780,6789,-14893,381,7,38,6
49,966,642785,6767,-15148,405,9,9,8
49,967,642790,6676,-15140,538,13,-24,9
49,968,642795,6604,-15242,349,16,-57,19
49,969,642800,6578,-15391,116,16,-59,22
49,970,642805,6550,-15377,43,17,-36,17
49,971,642810,6501,-15294,198,16,-10,16
49,972,642815,6555,-15125,450,16,8,15
49,973,642820,6629,-15011,481,20,13,16
49,974,642825,6862,-15018,443,19,17,16
49,975,642830,6959,-14968,532,15,25,17
49,976,642835,6883,-15040,857,18,15,12
49,977,642840,6820,-15165,695,23,-32,19
49,978,642845,6675,-15344,323,27,-76,27
49,979,642850,6512,-15430,-66,29,-94,19
49,980,642855,6253,-15491,-275,33,-88,25
49,981,642860,6224,-15519,-326,32,-62,21
49,982,642865,6173,-15521,-234,34,-23,21
49,983,642870,6421,-15398,-196,37,11,18
49,984,642875,6530,-15251,-55,36,39,16
49,985,642880,6383,-15168,125,36,42,15
49,986,642885,6104,-15147,335,36,29,10
49,987,642890,5989,-15143,312,39,9,14
49,988,642895,6220,-15089,128,39,21,13
49,989,642900,6563,-15025,257,36,58,9
49,990,642905,6686,-14975,744,38,91,3
49,991,642910,6836,-14892,817,40,85,1
49,992,642915,6948,-14875,667,40,64,4
49,993,642920,6840,-14828,577,37,54,4
49,994,642925,6630,-14833,685,35,65,-1
49,995,642930,6461,-14919,597,33,71,-2
49,996,642935,6401,-15070,516,33,77,1
49,997,642940,6446,-15060,612,30,72,0
49,998,642945,6553,-15073,934,26,57,3
49,999,642950,6630,-15099,1016,29,29,2
