event_id,seq,ts_ms,ax,ay,az,gx,gy,gz
10,0,785245,-4226,-15712,-4131,-143,-20,36
10,1,785250,-4109,-15808,-3897,-144,23,40
10,2,785255,-4185,-15809,-3616,-147,22,37
10,3,785260,-3917,-16045,-4033,-146,-6,45
10,4,785265,-3564,-16355,-4163,-147,-11,59
10,5,785270,-3550,-16388,-3754,-154,-5,60
10,6,785275,-3954,-16540,-3569,-159,-34,63
10,7,785280,-4547,-16461,-3810,-160,-70,63
10,8,785285,-5028,-16398,-4542,-160,-80,64
10,9,785290,-5443,-16236,-4750,-160,-37,62
10,10,785295,-5502,-16258,-4907,-161,31,52
10,11,785300,-5146,-16402,-5042,-157,120,44
10,12,785305,-4563,-16584,-4865,-150,223,44
10,13,785310,-3884,-16830,-4486,-144,304,41
10,14,785315,-3379,-16847,-4116,-144,333,36
10,15,785320,-3240,-16806,-3755,-149,309,35
10,16,785325,-3433,-16637,-3648,-157,241,39
10,17,785330,-3682,-16300,-3862,-162,162,45
10,18,785335,-3973,-16006,-4095,-164,117,49
10,19,785340,-4162,-15663,-4306,-162,101,44
10,20,785345,-4357,-15468,-4457,-160,106,40
10,21,785350,-4491,-15350,-4737,-158,123,35
10,22,785355,-4306,-15334,-4818,-156,155,25
10,23,785360,-3993,-15442,-4531,-156,187,20
10,24,785365,-3614,-15473,-4170,-158,187,15
10,25,785370,-3473,-15424,-3986,-159,151,8
10,26,785375,-3525,-15428,-3949,-163,88,10
10,27,785380,-3576,-15371,-4101,-170,8,13
10,28,785385,-3747,-15206,-4236,-174,-60,11
10,29,785390,-4141,-15077,-4347,-178,-107,7
10,30,785395,-4463,-14924,-4691,-174,-130,4
10,31,785400,-4483,-14820,-4957,-170,-122,-7
10,32,785405,-4409,-14810,-5059,-166,-75,-16
10,33,785410,-4255,-14692,-5107,-163,-10,-29
10,34,785415,-4265,-14450,-4897,-161,50,-43
10,35,785420,-4460,-14262,-4533,-162,82,-58
10,36,785425,-4228,-14223,-4415,-158,72,-63
10,37,785430,-3928,-14137,-4204,-160,40,-65
10,38,785435,-3758,-14053,-3708,-162,-83,-64
10,39,785440,-3712,-14002,-3729,-165,-164,-62
10,40,785445,-3781,-14113,-3903,-172,-232,-63
10,41,785450,-3840,-14182,-4021,-173,-278,-71
10,42,785455,-3932,-14207,-3958,-174,-299,-75
10,43,785460,-4086,-14303,-4063,-175,-309,-78
10,44,785465,-4128,-14329,-4267,-180,-303,-84
10,45,785470,-4117,-14444,-4272,-178,-281,-92
10,46,785475,-4310,-14641,-4279,-177,-262,-96
10,47,785480,-4466,-14768,-4534,-174,-250,-104
10,48,785485,-4432,-14982,-4661,-172,-235,-104
10,49,785490,-4316,-15094,-4601,-171,-215,-105
10,50,785495,-3978,-15240,-4688,-163,-201,-107
10,51,785500,-3947,-15390,-4843,-156,-175,-113
10,52,785505,-3999,-15582,-4914,-151,-147,-114
10,53,785510,-4082,-15557,-4817,-145,-134,-118
10,54,785515,-4067,-15647,-4814,-137,-138,-113
10,55,785520,-4096,-15677,-4931,-131,-140,-118
10,56,785525,-4022,-15808,-5117,-129,-125,-118
10,57,785530,-4077,-15746,-5076,-121,-86,-123
10,58,785535,-4150,-15696,-5034,-112,-45,-124
10,59,785540,-4145,-15637,-5018,-104,-5,-125
10,60,785545,-3999,-15650,-4942,-93,33,-128
10,61,785550,-3708,-15831,-4764,-85,61,-126
10,62,785555,-3298,-15950,-4362,-79,63,-123
10,63,785560,-3144,-15958,-4088,-76,26,-116
10,64,785565,-3174,-15931,-4173,-75,-35,-108
10,65,785570,-3395,-15837,-4279,-76,-95,-98
10,66,785575,-3594,-15764,-4286,-77,-146,-92
10,67,785580,-3672,-15615,-4460,-73,-174,-79
10,68,785585,-3891,-15462,-4865,-66,-167,-75
10,69,785590,-4259,-15254,-5041,-58,-130,-79
10,70,785595,-4420,-15065,-5002,-52,-89,-74
10,71,785600,-4278,-14981,-4956,-47,-52,-72
10,72,785605,-4009,-14900,-4830,-38,-20,-74
10,73,785610,-3874,-14858,-4652,-31,5,-71
10,74,785615,-3862,-14826,-4637,-23,13,-67
10,75,785620,-3879,-14809,-4715,-19,4,-62
10,76,785625,-3833,-14837,-4652,-12,-12,-55
10,77,785630,-3821,-14897,-4575,-7,-29,-48
10,78,785635,-3868,-14966,-4662,-3,-46,-44
10,79,785640,-3960,-15025,-4825,1,-46,-40
10,80,785645,-4003,-15032,-4825,3,-26,-35
10,81,785650,-4074,-15027,-4739,6,-9,-32
10,82,785655,-4066,-14984,-4701,14,1,-31
10,83,785660,-3976,-15018,-4737,18,9,-29
10,84,785665,-3954,-15006,-4697,20,19,-25
10,85,785670,-4010,-14984,-4585,26,18,-19
10,86,785675,-4106,-14929,-4601,29,-3,-16
10,87,785680,-4010,-14851,-4636,29,-24,-6
10,88,785685,-3955,-14808,-4607,33,-45,0
10,89,785690,-3970,-14741,-4581,36,-65,3
10,90,785695,-4079,-14759,-4585,37,-84,5
10,91,785700,-4163,-14748,-4623,39,-98,10
10,92,785705,-4169,-14793,-4609,44,-103,12
10,93,785710,-4237,-14852,-4614,45,-107,9
10,94,785715,-4267,-14896,-4650,45,-121,14
10,95,785720,-4368,-14900,-4561,46,-125,13
10,96,785725,-4441,-14922,-4691,50,-124,10
10,97,785730,-4511,-14876,-4740,51,-107,9
10,98,785735,-4594,-14825,-4792,55,-82,2
10,99,785740,-4717,-14861,-4809,58,-58,-5
10,100,785745,-4726,-14864,-4891,61,-31,-4
10,101,785750,-4408,-14955,-4933,64,-8,-5
10,102,785755,-4102,-14994,-4688,65,11,-12
10,103,785760,-3836,-15116,-4440,70,14,-14
10,104,785765,-3633,-15260,-4338,72,-1,-10
10,105,785770,-3682,-15312,-4274,72,-32,-13
10,106,785775,-3917,-15343,-4193,69,-78,-15
10,107,785780,-4125,-15403,-4280,65,-128,-11
10,108,785785,-4075,-15438,-4504,61,-158,-6
10,109,785790,-3963,-15522,-4476,59,-160,-8
10,110,785795,-3970,-15584,-4423,58,-150,-15
10,111,785800,-4159,-15601,-4657,56,-143,-21
10,112,785805,-4240,-15468,-4735,57,-134,-29
10,113,785810,-4228,-15345,-4854,55,-112,-31
10,114,785815,-4130,-15289,-4918,55,-84,-34
10,115,785820,-4058,-15212,-4869,57,-55,-37
10,116,785825,-4057,-15103,-4707,62,-39,-43
10,117,785830,-4039,-15042,-4662,63,-47,-46
10,118,785835,-3967,-15056,-4692,62,-63,-44
10,119,785840,-3876,-15054,-4613,61,-69,-45
10,120,785845,-3935,-15059,-4472,61,-69,-49
10,121,785850,-4069,-15020,-4439,60,-74,-50
10,122,785855,-4138,-14987,-4430,56,-76,-54
10,123,785860,-4111,-15017,-4524,53,-73,-57
10,124,785865,-4111,-15055,-4454,49,-66,-62
10,125,785870,-4148,-15117,-4336,47,-61,-65
10,126,785875,-4063,-15190,-4355,44,-62,-68
10,127,785880,-4059,-15295,-4439,44,-66,-68
10,128,785885,-4051,-15353,-4470,45,-72,-69
10,129,785890,-3947,-15315,-4474,39,-77,-71
10,130,785895,-3858,-15398,-4610,40,-79,-70
10,131,785900,-3843,-15416,-4736,40,-70,-70
10,132,785905,-3963,-15421,-4756,43,-48,-76
10,133,785910,-4093,-15429,-4663,41,-29,-77
10,134,785915,-4010,-15378,-4588,40,-28,-74
10,135,785920,-3962,-15342,-4546,40,-25,-78
10,136,785925,-4014,-15246,-4478,37,-26,-81
10,137,785930,-4101,-15146,-4451,36,-27,-85
10,138,785935,-4173,-15078,-4610,36,-25,-83
10,139,785940,-4188,-15029,-4603,35,-10,-84
10,140,785945,-4144,-14970,-4507,34,4,-92
10,141,785950,-4104,-14881,-4505,34,11,-92
10,142,785955,-4037,-14848,-4554,33,23,-95
10,143,785960,-4021,-14838,-4433,36,42,-99
10,144,785965,-4045,-14805,-4370,37,52,-101
10,145,785970,-4060,-14763,-4399,37,47,-105
10,146,785975,-4018,-14769,-4463,32,45,-108
10,147,785980,-3876,-14849,-4443,33,44,-108
10,148,785985,-3643,-14906,-4268,36,43,-107
10,149,785990,-3508,-14936,-4099,33,30,-109
10,150,785995,-3612,-14995,-4094,34,0,-104
10,151,786000,-3582,-15052,-4254,35,-30,-102
10,152,786005,-3530,-15095,-4312,33,-50,-100
10,153,786010,-3720,-15196,-4267,33,-59,-98
10,154,786015,-3841,-15300,-4282,35,-64,-97
10,155,786020,-3762,-15385,-4448,34,-62,-97
10,156,786025,-3491,-15551,-4621,32,-43,-95
10,157,786030,-3383,-15595,-4466,33,-25,-92
10,158,786035,-3492,-15586,-4254,33,-22,-97
10,159,786040,-3755,-15499,-4281,35,-31,-99
10,160,786045,-3924,-15481,-4544,37,-37,-100
10,161,786050,-3911,-15452,-4707,41,-25,-97
10,162,786055,-3833,-15402,-4699,46,-2,-96
10,163,786060,-3832,-15386,-4543,46,15,-97
10,164,786065,-3847,-15300,-4524,49,14,-96
10,165,786070,-3933,-15266,-4598,52,19,-95
10,166,786075,-4009,-15186,-4593,54,27,-93
10,167,786080,-4016,-15150,-4612,57,35,-94
10,168,786085,-3854,-15196,-4445,57,47,-94
10,169,786090,-3671,-15242,-4369,61,50,-91
10,170,786095,-3569,-15283,-4281,63,46,-90
10,171,786100,-3675,-15231,-4236,64,36,-87
10,172,786105,-3778,-15220,-4271,63,18,-81
10,173,786110,-3826,-15271,-4300,58,-4,-76
10,174,786115,-3782,-15324,-4333,61,-14,-72
10,175,786120,-3744,-15348,-4405,62,-16,-71
10,176,786125,-3806,-15392,-4455,62,-11,-68
10,177,786130,-3779,-15494,-4475,64,-2,-63
10,178,786135,-3714,-15536,-4434,67,8,-62
10,179,786140,-3685,-15585,-4362,67,5,-57
10,180,786145,-3781,-15550,-4361,66,-1,-56
10,181,786150,-3828,-15467,-4369,64,-6,-52
10,182,786155,-3818,-15501,-4533,66,-7,-46
10,183,786160,-3759,-15583,-4653,63,1,-41
10,184,786165,-3608,-15613,-4602,66,11,-36
10,185,786170,-3539,-15541,-4317,66,-1,-26
10,186,786175,-3676,-15450,-4402,65,-15,-21
10,187,786180,-3808,-15407,-4600,66,-19,-14
10,188,786185,-3911,-15339,-4652,66,-8,-11
10,189,786190,-3875,-15274,-4604,65,11,-9
10,190,786195,-3845,-15256,-4544,67,24,-6
10,191,786200,-3814,-15199,-4525,70,30,-6
10,192,786205,-3843,-15177,-4472,69,31,-1
10,193,786210,-3934,-15128,-4424,67,31,2
10,194,786215,-3987,-15124,-4459,68,29,3
10,195,786220,-3990,-15121,-4462,68,27,5
10,196,786225,-3949,-15102,-4451,64,25,9
10,197,786230,-3858,-15150,-4419,64,20,11
10,198,786235,-3735,-15219,-4352,63,17,14
10,199,786240,-3645,-15320,-4227,62,7,20
10,200,786245,-3660,-15308,-4204,59,-11,22
10,201,786250,-3751,-15292,-4299,57,-32,24
10,202,786255,-3851,-15326,-4414,55,-46,29
10,203,786260,-3849,-15298,-4411,53,-50,31
10,204,786265,-3849,-15292,-4374,52,-48,32
10,205,786270,-3815,-15334,-4382,49,-44,35
10,206,786275,-3779,-15328,-4267,49,-37,34
10,207,786280,-3846,-15354,-4169,48,-42,34
10,208,786285,-3969,-15359,-4318,46,-47,37
10,209,786290,-4060,-15369,-4472,44,-45,35
10,210,786295,-4090,-15336,-4421,40,-33,33
10,211,786300,-4077,-15312,-4341,41,-19,35
10,212,786305,-3977,-15303,-4379,40,-5,33
10,213,786310,-3924,-15302,-4359,40,10,31
10,214,786315,-3892,-15278,-4270,39,9,29
10,215,786320,-3782,-15353,-4208,37,4,30
10,216,786325,-3712,-15320,-4158,37,-3,32
10,217,786330,-3668,-15386,-4126,32,-9,34
10,218,786335,-3631,-15338,-4103,29,-22,33
10,219,786340,-3625,-15308,-4116,27,-35,31
10,220,786345,-3753,-15314,-4134,28,-48,31
10,221,786350,-3896,-15238,-4198,23,-58,31
10,222,786355,-3967,-15255,-4369,19,-57,27
10,223,786360,-4009,-15143,-4453,19,-43,26
10,224,786365,-4021,-15081,-4336,17,-27,25
10,225,786370,-4059,-15096,-4288,16,-17,20
10,226,786375,-4065,-15039,-4239,13,-13,19
10,227,786380,-4117,-15013,-4340,14,-10,17
10,228,786385,-4162,-14965,-4389,14,-2,14
10,229,786390,-4117,-14989,-4389,13,12,11
10,230,786395,-4080,-14951,-4379,12,21,7
10,231,786400,-4083,-14973,-4356,14,31,2
10,232,786405,-3945,-15038,-4406,14,42,-1
10,233,786410,-3655,-15160,-4370,11,54,1
10,234,786415,-3457,-15281,-4189,12,63,-1
10,235,786420,-3435,-15317,-4002,12,56,-5
10,236,786425,-3502,-15373,-3965,13,22,-4
10,237,786430,-3572,-15406,-4065,7,-12,-2
10,238,786435,-3596,-15445,-4207,4,-36,2
10,239,786440,-3592,-15560,-4221,3,-47,2
10,240,786445,-3509,-15666,-4228,3,-45,1
10,241,786450,-3583,-15710,-4195,4,-47,1
10,242,786455,-3687,-15772,-4160,6,-57,-1
10,243,786460,-3734,-15771,-4216,4,-71,0
10,244,786465,-3804,-15784,-4354,0,-74,-1
10,245,786470,-3916,-15833,-4425,1,-64,-3
10,246,786475,-3900,-15895,-4498,5,-47,-5
10,247,786480,-3810,-15901,-4519,5,-18,-8
10,248,786485,-3801,-15900,-4525,9,13,-11
10,249,786490,-3802,-15889,-4453,11,34,-16
10,250,786495,-3803,-15851,-4354,12,41,-15
10,251,786500,-3737,-15760,-4265,11,34,-16
10,252,786505,-3758,-15688,-4205,11,28,-17
10,253,786510,-3808,-15678,-4176,11,19,-16
10,254,786515,-3735,-15670,-4249,13,10,-16
10,255,786520,-3684,-15664,-4291,11,12,-14
10,256,786525,-3694,-15637,-4266,9,15,-13
10,257,786530,-3719,-15524,-4238,7,11,-14
10,258,786535,-3691,-15414,-4318,7,13,-19
10,259,786540,-3632,-15363,-4311,8,23,-19
10,260,786545,-3694,-15274,-4228,7,33,-21
10,261,786550,-3711,-15257,-4243,6,33,-23
10,262,786555,-3724,-15187,-4296,9,26,-23
10,263,786560,-3765,-15128,-4333,5,23,-23
10,264,786565,-3776,-15148,-4270,4,24,-23
10,265,786570,-3697,-15158,-4255,7,29,-21
10,266,786575,-3691,-15176,-4244,5,29,-21
10,267,786580,-3625,-15178,-4179,2,24,-20
10,268,786585,-3614,-15216,-4102,1,11,-18
10,269,786590,-3626,-15219,-4171,-1,0,-15
10,270,786595,-3613,-15269,-4233,-3,-1,-18
10,271,786600,-3576,-15303,-4215,-1,1,-17
10,272,786605,-3563,-15390,-4158,1,-1,-12
10,273,786610,-3480,-15450,-4121,-3,-5,-12
10,274,786615,-3417,-15511,-4158,-4,-14,-10
10,275,786620,-3416,-15502,-4230,-4,-22,-8
10,276,786625,-3398,-15547,-4279,-7,-17,-9
10,277,786630,-3450,-15538,-4212,-6,-17,-8
10,278,786635,-3569,-15527,-4211,-4,-21,-2
10,279,786640,-3541,-15520,-4280,-4,-20,-2
10,280,786645,-3521,-15516,-4274,-8,-18,0
10,281,786650,-3565,-15509,-4224,-10,-17,3
10,282,786655,-3682,-15490,-4192,-9,-22,1
10,283,786660,-3786,-15433,-4209,-7,-29,2
10,284,786665,-3840,-15405,-4349,-7,-31,4
10,285,786670,-3837,-15419,-4323,-9,-30,3
10,286,786675,-3816,-15398,-4268,-11,-23,5
10,287,786680,-3786,-15348,-4215,-9,-17,6
10,288,786685,-3838,-15329,-4304,-10,-13,1
10,289,786690,-3862,-15313,-4315,-7,-10,1
10,290,786695,-3919,-15296,-4296,-6,-11,3
10,291,786700,-3914,-15282,-4271,-8,-12,2
10,292,786705,-3869,-15277,-4223,-11,-12,4
10,293,786710,-3762,-15301,-4276,-9,-17,2
10,294,786715,-3677,-15328,-4257,-8,-18,3
10,295,786720,-3683,-15366,-4257,-7,-14,-2
10,296,786725,-3742,-15381,-4215,-7,-19,-2
10,297,786730,-3800,-15383,-4218,-9,-23,-2
10,298,786735,-3726,-15410,-4259,-10,-25,1
10,299,786740,-3674,-15405,-4261,-9,-21,3
10,300,786745,-3653,-15413,-4238,-7,-14,-1
10,301,786750,-3726,-15370,-4268,-9,-14,-1
10,302,786755,-3752,-15321,-4249,-8,-19,4
10,303,786760,-3775,-15335,-4151,-6,-30,3
10,304,786765,-3755,-15382,-4196,-10,-40,3
10,305,786770,-3744,-15331,-4269,-11,-39,3
10,306,786775,-3807,-15355,-4347,-11,-35,2
10,307,786780,-3846,-15404,-4371,-12,-21,0
10,308,786785,-3835,-15439,-4377,-7,-13,0
10,309,786790,-3768,-15391,-4302,-8,-7,-1
10,310,786795,-3761,-15390,-4143,-11,-5,2
10,311,786800,-3740,-15345,-4079,-9,-10,2
10,312,786805,-3721,-15286,-4090,-11,-20,2
10,313,786810,-3778,-15282,-4099,-11,-28,3
10,314,786815,-3823,-15289,-4121,-10,-34,4
10,315,786820,-3854,-15255,-4099,-10,-34,5
10,316,786825,-3800,-15222,-4015,-11,-36,5
10,317,786830,-3785,-15235,-3953,-13,-39,4
10,318,786835,-3804,-15229,-4017,-15,-41,1
10,319,786840,-3839,-15209,-4061,-17,-50,0
10,320,786845,-3945,-15183,-4012,-19,-57,2
10,321,786850,-3923,-15211,-4054,-22,-66,3
10,322,786855,-3806,-15190,-4113,-21,-71,5
10,323,786860,-3772,-15195,-4098,-22,-69,4
10,324,786865,-3770,-15246,-4016,-22,-69,3
10,325,786870,-3774,-15226,-4136,-19,-76,5
10,326,786875,-3743,-15267,-4247,-18,-76,5
10,327,786880,-3738,-15276,-4287,-19,-66,3
10,328,786885,-3714,-15238,-4196,-16,-60,3
10,329,786890,-3700,-15253,-4194,-15,-54,5
10,330,786895,-3649,-15345,-4197,-14,-47,7
10,331,786900,-3666,-15398,-4094,-11,-45,6
10,332,786905,-3802,-15416,-4088,-12,-55,6
10,333,786910,-3801,-15458,-4170,-11,-65,5
10,334,786915,-3857,-15474,-4218,-7,-63,7
10,335,786920,-3880,-15479,-4218,-7,-58,10
10,336,786925,-3876,-15463,-4257,-5,-51,11
10,337,786930,-3838,-15546,-4329,-4,-42,11
10,338,786935,-3763,-15626,-4240,-4,-30,10
10,339,786940,-3751,-15678,-4253,2,-19,10
10,340,786945,-3761,-15664,-4189,5,-13,9
10,341,786950,-3789,-15601,-4226,6,-12,7
10,342,786955,-3823,-15595,-4140,7,-13,11
10,343,786960,-3843,-15562,-4199,6,-15,9
10,344,786965,-3903,-15500,-4229,9,-13,10
10,345,786970,-3927,-15446,-4273,15,-4,8
10,346,786975,-3956,-15389,-4251,16,7,7
10,347,786980,-3930,-15379,-4214,17,13,7
10,348,786985,-3900,-15391,-4233,20,18,5
10,349,786990,-3833,-15426,-4210,21,21,3
10,350,786995,-3799,-15437,-4083,22,25,4
10,351,787000,-3759,-15423,-4026,22,21,7
10,352,787005,-3733,-15427,-4075,23,10,5
10,353,787010,-3812,-15407,-4129,26,-4,6
10,354,787015,-3782,-15472,-4116,22,-13,10
10,355,787020,-3745,-15487,-4160,22,-18,9
10,356,787025,-3739,-15449,-4186,26,-23,10
10,357,787030,-3801,-15408,-4207,24,-24,12
10,358,787035,-3876,-15402,-4165,23,-20,9
10,359,787040,-3871,-15376,-4181,26,-20,11
10,360,787045,-3854,-15334,-4178,27,-14,10
10,361,787050,-3877,-15317,-4171,28,-9,9
10,362,787055,-3874,-15285,-4135,27,-9,9
10,363,787060,-3899,-15240,-4160,29,-11,10
10,364,787065,-3882,-15247,-4152,30,-13,8
10,365,787070,-3857,-15312,-4113,29,-16,10
10,366,787075,-3848,-15329,-4154,29,-17,14
10,367,787080,-3822,-15335,-4114,31,-9,12
10,368,787085,-3945,-15368,-4103,29,-4,9
10,369,787090,-3948,-15386,-4171,29,-3,8
10,370,787095,-3865,-15388,-4237,31,3,11
10,371,787100,-3934,-15398,-4160,32,16,10
10,372,787105,-4065,-15395,-4131,30,22,7
10,373,787110,-4093,-15377,-4125,27,22,9
10,374,787115,-4017,-15388,-4205,32,22,11
10,375,787120,-3914,-15318,-4163,31,25,12
10,376,787125,-3943,-15299,-4039,28,22,8
10,377,787130,-3996,-15345,-4034,30,12,10
10,378,787135,-4030,-15398,-4129,29,8,15
10,379,787140,-4078,-15366,-4105,29,10,15
10,380,787145,-4131,-15371,-3984,27,5,16
10,381,787150,-4091,-15382,-4014,27,-7,22
10,382,787155,-3987,-15394,-4031,24,-11,23
10,383,787160,-4010,-15406,-4072,23,-12,26
10,384,787165,-4078,-15449,-4209,23,-10,27
10,385,787170,-4037,-15415,-4365,26,2,27
10,386,787175,-4034,-15369,-4355,26,22,31
10,387,787180,-4048,-15342,-4194,25,36,33
10,388,787185,-3996,-15283,-4206,29,36,35
10,389,787190,-4061,-15228,-4334,33,40,40
10,390,787195,-4151,-15191,-4323,33,55,41
10,391,787200,-4096,-15167,-4339,34,67,47
10,392,787205,-4085,-15099,-4302,36,78,53
10,393,787210,-4027,-15062,-4216,40,86,57
10,394,787215,-4117,-15003,-4246,41,92,60
10,395,787220,-4247,-14968,-4274,47,96,66
10,396,787225,-4258,-14973,-4341,49,104,71
10,397,787230,-4296,-14958,-4381,54,119,77
10,398,787235,-4346,-14975,-4265,58,134,83
10,399,787240,-4366,-14940,-4282,61,140,88
10,400,787245,-4406,-15045,-4373,71,147,98
10,401,787250,-4476,-15202,-4451,79,171,102
10,402,787255,-4460,-15270,-4522,84,204,110
10,403,787260,-4388,-15292,-4544,91,245,116
10,404,787265,-4501,-15330,-4395,106,317,127
10,405,787270,-4192,-15347,-4434,110,355,142
10,406,787275,-3929,-15404,-4257,120,402,151
10,407,787280,-3860,-15398,-4069,131,435,159
10,408,787285,-3878,-15477,-4034,140,433,171
10,409,787290,-3987,-15495,-3779,144,405,185
10,410,787295,-3639,-15533,-3779,148,365,206
10,411,787300,-3565,-15566,-3645,154,322,229
10,412,787305,-3702,-15629,-3433,157,263,243
10,413,787310,-4012,-15576,-3483,157,192,261
10,414,787315,-4200,-15452,-3824,162,125,284
10,415,787320,-4257,-15311,-3972,166,82,300
10,416,787325,-4368,-15223,-3860,170,69,312
10,417,787330,-4469,-15223,-4025,180,58,328
10,418,787335,-4512,-15245,-4283,190,72,341
10,419,787340,-4515,-15212,-4299,199,95,352
10,420,787345,-4590,-15145,-4014,206,101,366
10,421,787350,-4549,-15195,-3844,214,81,382
10,422,787355,-4470,-15233,-3869,220,55,394
10,423,787360,-4475,-15164,-3823,225,33,404
10,424,787365,-4606,-15180,-3643,231,2,415
10,425,787370,-4657,-15271,-3675,237,-43,431
10,426,787375,-4592,-15299,-3778,240,-79,448
10,427,787380,-4700,-15263,-3701,244,-101,462
10,428,787385,-4768,-15247,-3695,251,-117,470
10,429,787390,-4940,-15214,-3861,256,-121,477
10,430,787395,-5035,-15213,-3987,263,-115,486
10,431,787400,-5122,-15163,-3895,273,-95,492
10,432,787405,-5111,-15103,-3799,278,-77,495
10,433,787410,-5188,-15035,-3707,283,-64,501
10,434,787415,-5165,-14992,-3596,288,-54,510
10,435,787420,-5188,-15006,-3587,293,-49,514
10,436,787425,-5166,-15063,-3497,297,-49,521
10,437,787430,-5152,-15021,-3416,300,-53,524
10,438,787435,-5155,-14967,-3344,301,-57,530
10,439,787440,-5175,-14984,-3315,303,-57,536
10,440,787445,-5248,-15055,-3245,304,-53,534
10,441,787450,-5397,-15035,-3215,305,-56,538
10,442,787455,-5481,-14965,-3262,309,-56,544
10,443,787460,-5703,-14922,-3218,309,-53,546
10,444,787465,-5985,-14943,-3097,310,-53,548
10,445,787470,-6074,-14987,-3180,311,-59,554
10,446,787475,-6161,-14916,-3248,311,-54,555
10,447,787480,-6443,-14838,-3153,313,-46,556
10,448,787485,-6566,-14772,-3023,311,-54,556
10,449,787490,-6317,-14703,-3070,311,-62,561
10,450,787495,-5925,-14778,-3040,313,-52,556
10,451,787500,-5691,-14813,-2944,314,-37,549
10,452,787505,-5609,-14845,-3062,318,-24,544
10,453,787510,-5639,-14971,-3294,324,-1,546
10,454,787515,-5597,-15079,-3344,327,29,547
10,455,787520,-5616,-15177,-3179,328,56,548
10,456,787525,-5548,-15352,-3073,331,67,548
10,457,787530,-5558,-15582,-2963,331,58,553
10,458,787535,-5538,-15764,-3062,330,42,562
10,459,787540,-5339,-15779,-3162,327,20,568
10,460,787545,-5327,-15743,-3217,323,-8,573
10,461,787550,-5542,-15630,-3088,325,-49,584
10,462,787555,-5579,-15512,-3109,326,-96,594
10,463,787560,-5458,-15493,-3128,325,-136,599
10,464,787565,-5398,-15550,-2988,327,-170,604
10,465,787570,-5364,-15544,-2839,331,-203,608
10,466,787575,-5326,-15563,-2939,330,-234,609
10,467,787580,-5400,-15564,-2895,329,-243,609
10,468,787585,-5630,-15593,-2822,330,-245,611
10,469,787590,-5723,-15582,-2879,332,-243,613
10,470,787595,-5732,-15496,-2892,332,-221,615
10,471,787600,-5790,-15444,-2766,331,-188,611
10,472,787605,-5954,-15306,-2750,331,-157,608
10,473,787610,-6077,-15207,-2840,332,-118,603
10,474,787615,-6273,-15014,-2740,330,-66,594
10,475,787620,-6229,-14898,-2728,327,-35,595
10,476,787625,-6126,-14787,-2364,324,-19,594
10,477,787630,-6055,-14736,-2086,320,-33,589
10,478,787635,-6124,-14616,-1836,301,-103,579
10,479,787640,-6242,-14712,-1798,289,-148,579
10,480,787645,-6205,-14636,-1897,278,-184,571
10,481,787650,-6291,-14553,-2100,263,-197,562
10,482,787655,-6480,-14409,-2273,260,-189,547
10,483,787660,-6644,-14234,-2540,255,-169,537
10,484,787665,-6737,-14159,-2745,251,-136,528
10,485,787670,-6809,-14161,-2698,245,-102,518
10,486,787675,-6843,-14122,-2654,237,-78,501
10,487,787680,-6831,-14020,-2365,231,-53,487
10,488,787685,-6844,-13939,-2163,224,-45,475
10,489,787690,-6982,-13931,-2155,214,-43,459
10,490,787695,-7083,-13968,-2022,200,-44,443
10,491,787700,-6883,-14051,-2021,192,-48,424
10,492,787705,-6658,-14285,-1806,180,-49,415
10,493,787710,-6571,-14332,-1632,159,-57,395
10,494,787715,-6652,-14203,-1674,147,-72,379
10,495,787720,-6928,-14082,-1908,138,-75,362
10,496,787725,-7009,-14052,-2190,127,-47,341
10,497,787730,-7015,-14012,-2251,119,0,323
10,498,787735,-6957,-14057,-2248,112,37,308
10,499,787740,-7067,-14028,-2093,101,53,287
10,500,787745,-7055,-14088,-1896,88,39,270
10,501,787750,-7101,-14110,-1747,79,18,255
10,502,787755,-7215,-14145,-1709,67,-1,239
10,503,787760,-7430,-14104,-1747,52,-20,228
10,504,787765,-7482,-14082,-1693,38,-44,217
10,505,787770,-7350,-14125,-1767,30,-69,201
10,506,787775,-7119,-14286,-1955,22,-90,184
10,507,787780,-7157,-14433,-1836,9,-86,162
10,508,787785,-7116,-14588,-1842,-5,-82,147
10,509,787790,-6920,-14771,-2166,-9,-55,132
10,510,787795,-6792,-14910,-2559,-13,6,110
10,511,787800,-6932,-14956,-2559,-18,76,91
10,512,787805,-6976,-14877,-2666,-21,123,78
10,513,787810,-6881,-14839,-2892,-24,149,63
10,514,787815,-7004,-14867,-2851,-28,181,51
10,515,787820,-7080,-14895,-2536,-33,198,43
10,516,787825,-6927,-14918,-2431,-35,191,33
10,517,787830,-6816,-14855,-2384,-37,166,26
10,518,787835,-6810,-14849,-2247,-42,132,17
10,519,787840,-6804,-14891,-2295,-44,88,13
10,520,787845,-6898,-14999,-2394,-47,54,2
10,521,787850,-6950,-15110,-2445,-56,35,-5
10,522,787855,-6866,-15135,-2530,-59,23,-11
10,523,787860,-6762,-15133,-2616,-59,11,-20
10,524,787865,-6744,-15154,-2558,-64,3,-37
10,525,787870,-6756,-15239,-2448,-66,-5,-45
10,526,787875,-6818,-15344,-2460,-66,-19,-50
10,527,787880,-6807,-15392,-2591,-69,-31,-61
10,528,787885,-6822,-15500,-2706,-73,-34,-69
10,529,787890,-6883,-15444,-2734,-79,-33,-83
10,530,787895,-7094,-15384,-2731,-79,-27,-94
10,531,787900,-7114,-15268,-2932,-81,-13,-101
10,532,787905,-6962,-15228,-3252,-80,27,-113
10,533,787910,-6816,-15245,-3276,-75,86,-130
10,534,787915,-6755,-15313,-3151,-70,144,-144
10,535,787920,-6756,-15351,-3156,-71,181,-159
10,536,787925,-6888,-15373,-3113,-76,203,-178
10,537,787930,-6899,-15325,-3004,-77,213,-190
10,538,787935,-6825,-15315,-2833,-84,219,-207
10,539,787940,-6704,-15325,-2760,-90,217,-227
10,540,787945,-6592,-15394,-2661,-96,210,-242
10,541,787950,-6495,-15335,-2591,-104,204,-256
10,542,787955,-6471,-15230,-2628,-112,181,-279
10,543,787960,-6494,-15195,-2835,-121,165,-297
10,544,787965,-6525,-15234,-3204,-126,171,-313
10,545,787970,-6546,-15169,-3258,-132,207,-336
10,546,787975,-6361,-14965,-3029,-140,242,-354
10,547,787980,-6131,-14792,-2794,-143,245,-369
10,548,787985,-5947,-14639,-2656,-151,220,-390
10,549,787990,-5956,-14614,-2726,-163,193,-415
10,550,787995,-6095,-14551,-2932,-168,170,-436
10,551,788000,-5965,-14706,-2673,-201,146,-475
10,552,788005,-5770,-14938,-2462,-218,117,-501
10,553,788010,-5753,-15050,-2329,-235,69,-532
10,554,788015,-5863,-15073,-2560,-253,23,-558
10,555,788020,-6000,-15091,-2930,-270,-6,-586
10,556,788025,-5871,-15131,-3181,-278,-18,-610
10,557,788030,-5695,-15171,-3022,-288,-18,-633
10,558,788035,-5615,-15298,-2929,-301,-49,-661
10,559,788040,-5598,-15487,-2899,-314,-100,-684
10,560,788045,-5361,-15600,-3288,-330,-158,-701
10,561,788050,-5147,-15577,-3426,-345,-175,-727
10,562,788055,-5196,-15517,-3338,-362,-179,-751
10,563,788060,-5310,-15388,-3347,-374,-193,-777
10,564,788065,-5306,-15278,-3490,-383,-205,-803
10,565,788070,-4972,-15324,-3642,-391,-213,-823
10,566,788075,-4948,-15423,-3286,-404,-218,-850
10,567,788080,-5104,-15547,-2813,-417,-272,-872
10,568,788085,-5007,-15722,-3107,-432,-364,-882
10,569,788090,-4649,-15947,-3425,-446,-425,-893
10,570,788095,-4489,-16112,-3376,-464,-441,-916
10,571,788100,-4495,-16119,-3040,-482,-447,-942
10,572,788105,-4840,-16067,-3209,-495,-446,-965
10,573,788110,-5148,-16060,-3723,-498,-419,-986
10,574,788115,-5180,-16123,-4187,-504,-365,-1004
10,575,788120,-4864,-16183,-3793,-515,-298,-1025
10,576,788125,-4618,-16230,-3163,-532,-287,-1044
10,577,788130,-4418,-16255,-2831,-543,-320,-1062
10,578,788135,-4574,-16180,-3173,-554,-353,-1077
10,579,788140,-4996,-16197,-3790,-563,-337,-1097
10,580,788145,-5087,-16079,-4222,-570,-281,-1112
10,581,788150,-4602,-16022,-4058,-573,-205,-1121
10,582,788155,-4017,-16137,-3560,-576,-141,-1138
10,583,788160,-3693,-16061,-3095,-579,-116,-1160
10,584,788165,-3997,-16018,-2989,-584,-149,-1174
10,585,788170,-4467,-16007,-3096,-596,-214,-1184
10,586,788175,-4717,-15913,-3217,-613,-287,-1189
10,587,788180,-4648,-15885,-3570,-622,-346,-1191
10,588,788185,-4459,-16001,-4003,-631,-361,-1203
10,589,788190,-4655,-16075,-4192,-637,-333,-1216
10,590,788195,-4899,-16007,-4346,-635,-272,-1234
10,591,788200,-5279,-15910,-4702,-633,-189,-1251
10,592,788205,-5372,-15914,-4798,-632,-71,-1263
10,593,788210,-4616,-15816,-4346,-628,69,-1269
10,594,788215,-3530,-15720,-3521,-618,205,-1272
10,595,788220,-3121,-15708,-2539,-613,284,-1289
10,596,788225,-3542,-15423,-2289,-616,251,-1297
10,597,788230,-4123,-15177,-2378,-626,156,-1288
10,598,788235,-4225,-14977,-2734,-639,71,-1281
10,599,788240,444,-8266,-5174,-660,38,-1266
10,600,788245,-6104,1005,7768,-641,143,-1389
10,601,788250,-19248,-6352,4230,-676,219,-1182
10,602,788255,11584,-18024,-32768,-165,-2012,-113
10,603,788260,9814,-17324,-3084,-626,1394,-1046
10,604,788265,-5835,-11418,10274,-607,1492,-1548
10,605,788270,-11177,-15819,6771,-451,-231,-1007
10,606,788275,-6112,-14706,-18762,-493,-1687,-818
10,607,788280,-1904,-17333,-11511,-543,68,-882
10,608,788285,-2836,-15031,-8,-521,1034,-1011
10,609,788290,-574,-13977,2158,-482,625,-1069
10,610,788295,-2652,-14635,-3120,-471,-160,-964
10,611,788300,-4127,-15567,-6566,-484,-425,-905
10,612,788305,-4870,-15025,-6678,-503,-234,-910
10,613,788310,-3607,-14506,-4853,-487,181,-939
10,614,788315,-2204,-14378,-4069,-468,369,-941
10,615,788320,-2164,-14810,-3546,-434,287,-914
10,616,788325,-3031,-14879,-4659,-430,106,-916
10,617,788330,-3777,-15038,-5770,-430,75,-887
10,618,788335,-3437,-15197,-5112,-423,214,-867
10,619,788340,-2367,-15127,-4303,-409,320,-865
10,620,788345,-2466,-14962,-3833,-384,307,-853
10,621,788350,-2236,-15118,-4619,-379,152,-829
10,622,788355,-2236,-15100,-4930,-378,54,-799
10,623,788360,-2244,-15494,-5274,-367,57,-774
10,624,788365,-2657,-15158,-5123,-338,146,-759
10,625,788370,-2177,-15157,-5463,-316,146,-736
10,626,788375,-1815,-15260,-5769,-297,167,-715
10,627,788380,-1950,-15500,-5805,-281,206,-703
10,628,788385,-2374,-15359,-5257,-270,256,-691
10,629,788390,-2224,-15277,-5534,-253,268,-668
10,630,788395,-1906,-15220,-5678,-231,306,-653
10,631,788400,-1728,-15374,-5475,-214,345,-630
10,632,788405,-1657,-15355,-5032,-199,360,-612
10,633,788410,-1725,-15244,-4843,-182,339,-590
10,634,788415,-1859,-15151,-4971,-172,302,-571
10,635,788420,-1757,-15155,-5061,-161,277,-550
10,636,788425,-1397,-15166,-4954,-149,260,-528
10,637,788430,-1005,-15342,-5026,-129,248,-507
10,638,788435,-937,-15386,-4961,-117,245,-490
10,639,788440,-1159,-15304,-4891,-109,223,-476
10,640,788445,-1478,-15192,-5122,-99,177,-457
10,641,788450,-1545,-15185,-5583,-85,144,-435
10,642,788455,-1403,-15219,-5674,-72,155,-414
10,643,788460,-1259,-15292,-5574,-57,182,-394
10,644,788465,-1156,-15405,-5513,-38,202,-383
10,645,788470,-1138,-15432,-5773,-21,218,-368
10,646,788475,-1198,-15439,-5957,-9,243,-354
10,647,788480,-1252,-15368,-5793,0,278,-342
10,648,788485,-1028,-15328,-5671,10,301,-324
10,649,788490,-671,-15305,-5564,27,327,-307
10,650,788495,-507,-15268,-5316,41,348,-295
10,651,788500,-617,-15266,-4951,54,340,-280
10,652,788505,-748,-15222,-4820,60,291,-264
10,653,788510,-738,-15207,-5083,63,212,-243
10,654,788515,-681,-15152,-5034,69,161,-222
10,655,788520,-605,-15077,-4912,75,126,-210
10,656,788525,-563,-14996,-5002,81,102,-200
10,657,788530,-582,-14963,-5296,91,101,-189
10,658,788535,-783,-15017,-5413,97,114,-179
10,659,788540,-976,-15025,-5254,100,122,-170
10,660,788545,-1018,-15005,-5087,101,112,-163
10,661,788550,-746,-15024,-5068,106,101,-152
10,662,788555,-484,-15111,-5102,109,106,-146
10,663,788560,-563,-15232,-4995,110,111,-143
10,664,788565,-807,-15326,-5112,114,94,-133
10,665,788570,-802,-15336,-5344,115,74,-119
10,666,788575,-636,-15328,-5374,115,76,-109
10,667,788580,-527,-15393,-5177,113,91,-102
10,668,788585,-474,-15440,-5103,116,104,-96
10,669,788590,-343,-15521,-5177,118,106,-85
10,670,788595,-248,-15521,-5082,118,105,-74
10,671,788600,-283,-15522,-4933,116,95,-70
10,672,788605,-446,-15568,-4993,114,78,-65
10,673,788610,-534,-15627,-5263,110,66,-62
10,674,788615,-611,-15625,-5164,109,74,-57
10,675,788620,-667,-15648,-4978,99,77,-50
10,676,788625,-632,-15668,-4880,100,62,-46
10,677,788630,-497,-15688,-4993,96,45,-40
10,678,788635,-547,-15771,-5048,90,38,-36
10,679,788640,-605,-15825,-5100,86,37,-31
10,680,788645,-559,-15855,-5215,80,35,-25
10,681,788650,-533,-15892,-5248,76,33,-20
10,682,788655,-403,-15948,-5233,71,38,-15
10,683,788660,-288,-15975,-5343,70,49,-12
10,684,788665,-215,-16099,-5352,66,70,-9
10,685,788670,-210,-16036,-5224,57,84,-9
10,686,788675,-319,-15954,-5140,55,81,-3
10,687,788680,-384,-15876,-5078,50,72,2
10,688,788685,-315,-15876,-5089,47,56,5
10,689,788690,-280,-15897,-5136,44,44,12
10,690,788695,-257,-15919,-5179,37,33,16
10,691,788700,-234,-15852,-5229,29,18,18
10,692,788705,-223,-15817,-5259,26,7,22
10,693,788710,-172,-15756,-5384,19,2,29
10,694,788715,-160,-15653,-5418,16,7,33
10,695,788720,-249,-15544,-5262,13,12,37
10,696,788725,-335,-15488,-5208,8,-2,39
10,697,788730,-353,-15442,-5344,7,-17,42
10,698,788735,-442,-15417,-5470,-1,-13,44
10,699,788740,-508,-15448,-5409,-6,-7,43
10,700,788745,-555,-15415,-5354,-6,-10,47
10,701,788750,-624,-15417,-5411,-10,-7,48
10,702,788755,-627,-15391,-5468,-14,-1,46
10,703,788760,-648,-15349,-5485,-16,9,45
10,704,788765,-627,-15354,-5395,-16,15,47
10,705,788770,-524,-15418,-5316,-14,17,49
10,706,788775,-368,-15469,-5270,-17,20,49
10,707,788780,-335,-15525,-5304,-19,21,48
10,708,788785,-397,-15585,-5406,-22,14,47
10,709,788790,-410,-15538,-5414,-23,8,50
10,710,788795,-276,-15577,-5427,-27,11,54
10,711,788800,-147,-15573,-5396,-24,21,55
10,712,788805,-144,-15530,-5297,-24,28,55
10,713,788810,-296,-15476,-5210,-25,27,57
10,714,788815,-368,-15442,-5280,-27,18,58
10,715,788820,-302,-15435,-5261,-25,10,60
10,716,788825,-168,-15519,-5180,-25,10,61
10,717,788830,-25,-15610,-5101,-27,16,60
10,718,788835,-64,-15600,-5070,-29,13,60
10,719,788840,-187,-15569,-5076,-31,13,59
10,720,788845,-278,-15481,-5085,-30,15,58
10,721,788850,-290,-15516,-5154,-30,12,62
10,722,788855,-206,-15507,-5179,-32,17,64
10,723,788860,-104,-15533,-5164,-32,14,66
10,724,788865,-105,-15481,-5151,-29,7,67
10,725,788870,-15,-15491,-5222,-30,2,70
10,726,788875,87,-15535,-5262,-29,5,74
10,727,788880,98,-15598,-5189,-28,14,74
10,728,788885,175,-15614,-5028,-30,18,74
10,729,788890,117,-15618,-4939,-28,6,76
10,730,788895,31,-15563,-5053,-27,-8,75
10,731,788900,-30,-15547,-5179,-27,-12,79
10,732,788905,-58,-15592,-5238,-26,-7,79
10,733,788910,-112,-15652,-5260,-24,-2,78
10,734,788915,-65,-15662,-5221,-23,-2,78
10,735,788920,-49,-15658,-5087,-21,-8,79
10,736,788925,-105,-15612,-5113,-21,-18,80
10,737,788930,-213,-15578,-5277,-19,-27,79
10,738,788935,-281,-15571,-5257,-17,-31,80
10,739,788940,-272,-15527,-5251,-16,-31,79
10,740,788945,-281,-15472,-5335,-10,-28,78
10,741,788950,-245,-15491,-5429,-6,-17,75
10,742,788955,-183,-15528,-5461,-3,2,71
10,743,788960,-127,-15583,-5373,1,17,71
10,744,788965,-134,-15684,-5265,2,17,68
10,745,788970,-11,-15696,-5242,7,9,66
10,746,788975,-17,-15702,-5369,9,0,68
10,747,788980,-86,-15664,-5503,8,-1,62
10,748,788985,-181,-15652,-5531,10,10,62
10,749,788990,-107,-15711,-5537,16,22,65
10,750,788995,11,-15728,-5541,22,37,60
10,751,789000,55,-15748,-5435,25,49,54
10,752,789005,-6,-15740,-5305,29,48,53
10,753,789010,-103,-15718,-5309,30,41,53
10,754,789015,-123,-15703,-5378,35,37,50
10,755,789020,-113,-15657,-5377,36,39,51
10,756,789025,-20,-15601,-5327,37,41,49
10,757,789030,127,-15627,-5305,41,44,44
10,758,789035,174,-15591,-5237,42,48,42
10,759,789040,22,-15519,-5122,41,42,39
10,760,789045,-39,-15433,-5169,44,25,37
10,761,789050,6,-15418,-5251,46,16,36
10,762,789055,18,-15416,-5233,47,18,33
10,763,789060,-15,-15400,-5071,46,18,30
10,764,789065,-86,-15406,-5210,49,10,28
10,765,789070,-192,-15423,-5245,50,8,27
10,766,789075,-123,-15503,-5210,49,11,27
10,767,789080,9,-15525,-5170,48,15,23
10,768,789085,51,-15497,-5091,51,13,20
10,769,789090,-39,-15493,-5085,52,10,18
10,770,789095,-162,-15438,-5142,51,5,15
10,771,789100,-200,-15452,-5292,51,0,11
10,772,789105,28,-15552,-5225,51,9,12
10,773,789110,37,-15507,-5052,49,12,6
10,774,789115,-68,-15469,-5013,52,10,2
10,775,789120,-212,-15374,-5087,53,2,3
10,776,789125,-253,-15372,-5143,51,-1,2
10,777,789130,-162,-15470,-5101,49,-1,-1
10,778,789135,-74,-15452,-5061,48,-3,-2
10,779,789140,-98,-15480,-5074,45,-6,-4
10,780,789145,-173,-15484,-5178,44,-8,-6
10,781,789150,-125,-15495,-5288,46,-1,-5
10,782,789155,-30,-15535,-5165,47,12,-7
10,783,789160,-24,-15568,-5093,43,18,-9
10,784,789165,-68,-15584,-5070,44,9,-8
10,785,789170,-80,-15582,-5046,42,-3,-6
10,786,789175,-96,-15555,-5082,43,-11,-4
10,787,789180,-127,-15544,-5105,44,-15,-5
10,788,789185,-222,-15500,-5123,43,-20,-6
10,789,789190,-253,-15525,-5119,41,-26,-8
10,790,789195,-202,-15542,-5231,42,-25,-7
10,791,789200,-78,-15556,-5302,41,-14,-3
10,792,789205,-34,-15581,-5220,42,2,-3
10,793,789210,-41,-15589,-5030,42,7,-4
10,794,789215,-19,-15639,-4990,35,-6,-5
10,795,789220,5,-15627,-4996,35,-19,-1
10,796,789225,-55,-15625,-5049,31,-34,-1
10,797,789230,-157,-15537,-5113,30,-41,-2
10,798,789235,-201,-15545,-5289,33,-36,3
10,799,789240,-247,-15560,-5296,33,-19,0
10,800,789245,-312,-15552,-5199,29,-7,0
10,801,789250,-317,-15591,-5192,30,-5,3
10,802,789255,-330,-15574,-5186,31,-3,3
10,803,789260,-350,-15588,-5123,27,0,-1
10,804,789265,-383,-15583,-5138,27,0,-1
10,805,789270,-338,-15575,-5175,30,-3,1
10,806,789275,-394,-15614,-5166,29,-3,3
10,807,789280,-371,-15637,-5153,24,-3,1
10,808,789285,-342,-15623,-5181,25,1,3
10,809,789290,-338,-15658,-5131,25,7,0
10,810,789295,-380,-15652,-5153,23,9,-3
10,811,789300,-256,-15665,-5110,25,14,-1
10,812,789305,-174,-15713,-5115,24,15,0
10,813,789310,-192,-15682,-5062,19,13,0
10,814,789315,-211,-15647,-5017,20,5,1
10,815,789320,-246,-15692,-5111,18,-12,3
10,816,789325,-238,-15693,-5156,15,-18,4
10,817,789330,-156,-15688,-5096,15,-16,5
10,818,789335,-230,-15655,-5085,15,-15,6
10,819,789340,-204,-15694,-5170,16,-20,8
10,820,789345,-242,-15723,-5102,14,-23,5
10,821,789350,-328,-15743,-5183,14,-26,3
10,822,789355,-340,-15742,-5248,12,-26,2
10,823,789360,-322,-15693,-5190,11,-19,5
10,824,789365,-370,-15651,-5136,11,-12,3
10,825,789370,-470,-15618,-5202,12,-13,1
10,826,789375,-483,-15605,-5275,12,-11,1
10,827,789380,-492,-15613,-5306,10,5,-1
10,828,789385,-429,-15627,-5287,14,19,-5
10,829,789390,-412,-15623,-5224,14,26,-6
10,830,789395,-385,-15636,-5227,13,30,-6
10,831,789400,-361,-15666,-5273,13,35,-7
10,832,789405,-191,-15738,-5196,10,34,-10
10,833,789410,34,-15789,-5020,8,26,-4
10,834,789415,102,-15741,-4882,5,12,-1
10,835,789420,34,-15752,-4883,6,-9,-2
10,836,789425,-157,-15733,-4995,3,-31,-2
10,837,789430,-241,-15710,-5121,0,-48,-2
10,838,789435,-212,-15691,-5206,-3,-47,0
10,839,789440,-204,-15704,-5225,-2,-41,-1
10,840,789445,-234,-15670,-5178,-2,-30,-5
10,841,789450,-264,-15699,-5137,-5,-21,-7
10,842,789455,-319,-15703,-5063,-6,-19,-9
10,843,789460,-291,-15706,-5075,-5,-24,-7
10,844,789465,-488,-15600,-5136,-6,-34,-6
10,845,789470,-487,-15597,-5280,-7,-28,-9
10,846,789475,-397,-15606,-5347,-6,-12,-8
10,847,789480,-265,-15644,-5264,-9,11,-13
10,848,789485,-254,-15611,-5159,-8,23,-15
10,849,789490,-287,-15609,-5104,-7,22,-14
10,850,789495,-291,-15609,-5158,-11,17,-14
10,851,789500,-224,-15650,-5097,-12,15,-15
10,852,789505,-202,-15645,-4986,-14,8,-15
10,853,789510,-188,-15605,-4975,-14,-5,-17
10,854,789515,-198,-15629,-5049,-15,-16,-15
10,855,789520,-215,-15681,-5091,-17,-25,-13
10,856,789525,-253,-15682,-5141,-20,-30,-14
10,857,789530,-289,-15682,-5084,-21,-38,-15
10,858,789535,-314,-15654,-5064,-23,-44,-13
10,859,789540,-273,-15679,-5147,-23,-42,-11
10,860,789545,-196,-15688,-5172,-22,-35,-10
10,861,789550,-250,-15701,-5108,-23,-27,-12
10,862,789555,-305,-15639,-5113,-28,-25,-15
10,863,789560,-333,-15608,-5148,-26,-26,-16
10,864,789565,-428,-15622,-5296,-24,-18,-16
10,865,789570,-444,-15575,-5365,-23,2,-18
10,866,789575,-393,-15576,-5218,-20,22,-19
10,867,789580,-316,-15637,-5161,-19,31,-16
10,868,789585,-246,-15649,-5145,-20,32,-16
10,869,789590,-157,-15666,-5061,-22,27,-17
10,870,789595,-163,-15734,-5055,-20,15,-13
10,871,789600,-153,-15725,-5153,-25,11,-13
10,872,789605,-183,-15682,-5122,-26,10,-13
10,873,789610,-166,-15734,-5113,-23,5,-12
10,874,789615,-106,-15749,-5138,-24,-2,-10
10,875,789620,-157,-15755,-5144,-25,-8,-8
10,876,789625,-229,-15761,-5085,-23,-11,-9
10,877,789630,-272,-15806,-5143,-21,-19,-5
10,878,789635,-244,-15838,-5279,-21,-23,-5
10,879,789640,-198,-15808,-5347,-23,-16,-4
10,880,789645,-249,-15771,-5280,-20,-17,-4
10,881,789650,-344,-15730,-5318,-19,-23,-3
10,882,789655,-369,-15687,-5414,-16,-25,-2
10,883,789660,-408,-15709,-5477,-15,-21,-3
10,884,789665,-343,-15715,-5545,-13,-13,-5
10,885,789670,-344,-15759,-5537,-7,0,-4
10,886,789675,-423,-15742,-5412,-7,4,-4
10,887,789680,-462,-15739,-5418,-3,0,-3
10,888,789685,-425,-15809,-5527,-3,-2,-3
10,889,789690,-276,-15941,-5518,-3,8,-5
10,890,789695,-116,-16017,-5385,3,20,-1
10,891,789700,-86,-16014,-5321,6,22,-2
10,892,789705,-167,-16036,-5244,8,11,-2
10,893,789710,-203,-16018,-5308,7,-1,2
10,894,789715,-161,-16000,-5399,9,-13,4
10,895,789720,-122,-15943,-5399,11,-15,6
10,896,789725,-83,-15950,-5379,15,-16,6
10,897,789730,-41,-15908,-5356,16,-14,2
10,898,789735,-68,-15794,-5425,21,-12,6
10,899,789740,-130,-15690,-5464,22,-7,7
10,900,789745,-140,-15574,-5408,22,2,9
10,901,789750,-108,-15455,-5319,24,14,9
10,902,789755,-19,-15364,-5243,25,18,13
10,903,789760,26,-15288,-5199,26,20,13
10,904,789765,-12,-15221,-5177,29,17,14
10,905,789770,-96,-15071,-5116,30,11,16
10,906,789775,-186,-14950,-5053,29,3,18
10,907,789780,-150,-14842,-5053,27,1,16
10,908,789785,16,-14759,-5080,26,3,19
10,909,789790,-48,-14630,-4937,25,10,18
10,910,789795,-296,-14526,-4794,26,5,15
10,911,789800,-472,-14507,-4939,26,-14,17
10,912,789805,-544,-14498,-5067,22,-22,15
10,913,789810,-524,-14556,-5061,19,-22,17
10,914,789815,-454,-14604,-5021,17,-17,19
10,915,789820,-471,-14679,-4992,20,-11,15
10,916,789825,-524,-14827,-4978,19,-11,12
10,917,789830,-500,-15075,-5020,16,-9,7
10,918,789835,-466,-15243,-4960,16,1,6
10,919,789840,-339,-15374,-4776,12,9,5
10,920,789845,-279,-15439,-4675,10,5,4
10,921,789850,-361,-15497,-4718,10,-3,4
10,922,789855,-478,-15472,-4725,5,-13,4
10,923,789860,-482,-15507,-4731,1,-13,2
10,924,789865,-373,-15602,-4784,-1,-12,5
10,925,789870,-234,-15647,-4737,1,1,7
10,926,789875,-209,-15621,-4613,-3,6,4
10,927,789880,-274,-15639,-4581,-6,1,4
10,928,789885,-280,-15715,-4683,-6,-7,7
10,929,789890,-279,-15697,-4723,-11,-12,3
10,930,789895,-308,-15705,-4748,-14,-11,1
10,931,789900,-254,-15717,-4722,-18,-10,2
10,932,789905,-243,-15693,-4836,-17,-10,2
10,933,789910,-282,-15716,-4939,-18,-11,2
10,934,789915,-321,-15708,-4906,-17,-6,0
10,935,789920,-293,-15670,-4964,-18,-6,1
10,936,789925,-261,-15670,-4963,-20,-6,2
10,937,789930,-292,-15666,-4937,-22,-6,0
10,938,789935,-315,-15602,-4968,-19,-7,3
10,939,789940,-332,-15574,-4984,-18,-12,-3
10,940,789945,-317,-15549,-5066,-20,-13,-3
10,941,789950,-220,-15499,-5054,-23,-9,-3
10,942,789955,-216,-15457,-4998,-21,-12,-3
10,943,789960,-272,-15381,-4966,-21,-18,-6
10,944,789965,-371,-15353,-5102,-19,-19,-6
10,945,789970,-415,-15381,-5126,-19,-20,-8
10,946,789975,-312,-15396,-5105,-17,-19,-6
10,947,789980,-293,-15375,-5111,-15,-19,-9
10,948,789985,-365,-15363,-5119,-10,-17,-13
10,949,789990,-464,-15441,-5195,-11,-12,-12
10,950,789995,-416,-15500,-5221,-9,-6,-13
10,951,790000,-290,-15521,-5201,-8,2,-12
10,952,790005,-240,-15532,-5079,-8,5,-16
10,953,790010,-229,-15566,-5008,-6,0,-18
10,954,790015,-241,-15579,-5151,-6,-12,-16
10,955,790020,-240,-15589,-5182,-3,-13,-16
10,956,790025,-243,-15582,-5212,0,-10,-17
10,957,790030,-275,-15611,-5224,5,-8,-19
10,958,790035,-156,-15614,-5228,9,-10,-15
10,959,790040,-140,-15673,-5241,11,-11,-19
10,960,790045,-128,-15685,-5192,11,-13,-17
10,961,790050,-141,-15664,-5191,12,-13,-19
10,962,790055,-173,-15662,-5270,16,-13,-19
10,963,790060,-182,-15688,-5220,19,-2,-20
10,964,790065,-158,-15719,-5170,22,-3,-17
10,965,790070,-160,-15818,-5118,28,-10,-16
10,966,790075,-211,-15811,-5197,26,-24,-16
10,967,790080,-280,-15809,-5201,29,-30,-16
10,968,790085,-287,-15849,-5214,30,-31,-18
10,969,790090,-261,-15815,-5279,31,-24,-20
10,970,790095,-296,-15822,-5263,36,-11,-19
10,971,790100,-297,-15782,-5239,37,-11,-20
10,972,790105,-287,-15749,-5206,41,-7,-20
10,973,790110,-232,-15770,-5237,40,-5,-23
10,974,790115,-205,-15759,-5179,43,-2,-22
10,975,790120,-154,-15753,-5178,47,1,-21
10,976,790125,-170,-15757,-5172,52,9,-22
10,977,790130,-119,-15772,-5137,53,11,-23
10,978,790135,-160,-15783,-5098,49,8,-23
10,979,790140,-105,-15687,-5076,54,1,-22
10,980,790145,-86,-15640,-5061,52,-2,-24
10,981,790150,-137,-15611,-5056,51,1,-22
10,982,790155,-149,-15619,-5029,54,0,-18
10,983,790160,-118,-15615,-5072,54,-1,-17
10,984,790165,-133,-15576,-5090,53,0,-17
10,985,790170,-127,-15505,-5070,53,-1,-18
10,986,790175,-212,-15487,-5024,53,-2,-17
10,987,790180,-237,-15461,-5045,55,1,-20
10,988,790185,-221,-15476,-5093,55,6,-21
10,989,790190,-205,-15482,-5064,57,12,-19
10,990,790195,-195,-15519,-4995,58,11,-21
10,991,790200,-238,-15500,-5000,54,-11,-16
10,992,790205,-306,-15503,-5001,50,-20,-15
10,993,790210,-244,-15524,-5081,47,-23,-13
10,994,790215,-268,-15536,-5081,50,-20,-15
10,995,790220,-328,-15554,-5035,51,-13,-18
10,996,790225,-319,-15587,-5029,49,-12,-18
10,997,790230,-298,-15641,-5103,47,-6,-22
10,998,790235,-298,-15640,-5106,44,5,-21
10,999,790240,-276,-15677,-5029,47,14,-18
