event_id,seq,ts_ms,ax,ay,az,gx,gy,gz,putt_start_valid,impact_seq
1,0,25356,-3801,-15888,2365,16,-46,-12,1,359
1,1,25361,-3847,-15854,2323,15,-43,-10,1,359
1,2,25366,-3807,-15827,2294,13,-39,-12,1,359
1,3,25371,-3763,-15851,2342,14,-33,-10,1,359
1,4,25376,-3714,-15818,2327,15,-36,-13,1,359
1,5,25381,-3714,-15855,2317,16,-33,-15,1,359
1,6,25386,-3736,-15881,2257,13,-27,-16,1,359
1,7,25391,-3706,-15859,2276,11,-18,-12,1,359
1,8,25396,-3641,-15846,2311,11,-6,-12,1,359
1,9,25401,-3680,-15848,2289,13,7,-16,1,359
1,10,25406,-3774,-15888,2223,12,19,-19,1,359
1,11,25411,-3815,-15903,2192,11,33,-19,1,359
1,12,25416,-3782,-15903,2217,8,52,-20,1,359
1,13,25421,-3736,-15925,2329,10,66,-23,1,359
1,14,25426,-3782,-15901,2374,11,73,-21,1,359
1,15,25431,-3797,-15883,2404,9,70,-23,1,359
1,16,25436,-3768,-15872,2443,10,61,-22,1,359
1,17,25441,-3765,-15854,2524,8,43,-22,1,359
1,18,25446,-3759,-15854,2577,7,24,-20,1,359
1,19,25451,-3783,-15832,2496,9,10,-22,1,359
1,20,25456,-3823,-15825,2429,9,-3,-24,1,359
1,21,25461,-3805,-15786,2401,10,-14,-22,1,359
1,22,25466,-3778,-15784,2397,7,-23,-23,1,359
1,23,25471,-3809,-15782,2393,7,-29,-24,1,359
1,24,25476,-3813,-15794,2278,7,-27,-24,1,359
1,25,25481,-3821,-15794,2288,3,-15,-29,1,359
1,26,25486,-3865,-15770,2385,4,-3,-27,1,359
1,27,25491,-3831,-15707,2377,3,-4,-25,1,359
1,28,25496,-3798,-15690,2341,4,2,-27,1,359
1,29,25501,-3785,-15700,2349,1,8,-33,1,359
1,30,25506,-3771,-15717,2421,2,12,-30,1,359
1,31,25511,-3697,-15691,2473,2,8,-27,1,359
1,32,25516,-3628,-15688,2465,2,3,-28,1,359
1,33,25521,-3611,-15697,2431,4,-8,-29,1,359
1,34,25526,-3722,-15703,2340,3,-16,-29,1,359
1,35,25531,-3854,-15710,2322,0,-21,-28,1,359
1,36,25536,-3859,-15721,2360,0,-26,-25,1,359
1,37,25541,-3733,-15727,2374,5,-31,-24,1,359
1,38,25546,-3643,-15684,2402,2,-34,-23,1,359
1,39,25551,-3732,-15640,2408,3,-45,-26,1,359
1,40,25556,-3809,-15662,2375,1,-58,-23,1,359
1,41,25561,-3811,-15717,2266,3,-66,-20,1,359
1,42,25566,-3779,-15758,2167,1,-61,-19,1,359
1,43,25571,-3735,-15806,2137,7,-51,-18,1,359
1,44,25576,-3697,-15821,2210,6,-43,-15,1,359
1,45,25581,-3569,-15784,2330,9,-42,-11,1,359
1,46,25586,-3514,-15770,2367,8,-53,-11,1,359
1,47,25591,-3581,-15786,2319,10,-68,-8,1,359
1,48,25596,-3713,-15769,2155,8,-71,-3,1,359
1,49,25601,-3744,-15761,2072,9,-56,3,1,359
1,50,25606,-3741,-15790,1997,13,-29,5,1,359
1,51,25611,-3683,-15801,2122,15,-1,6,1,359
1,52,25616,-3678,-15824,2171,19,15,10,1,359
1,53,25621,-3647,-15823,2114,17,30,16,1,359
1,54,25626,-3770,-15820,2081,16,46,17,1,359
1,55,25631,-3880,-15796,2156,20,63,21,1,359
1,56,25636,-3896,-15771,2211,24,78,31,1,359
1,57,25641,-3854,-15783,2266,25,91,33,1,359
1,58,25646,-3922,-15774,2371,26,98,34,1,359
1,59,25651,-4100,-15745,2546,30,90,44,1,359
1,60,25656,-4115,-15701,2688,33,66,51,1,359
1,61,25661,-3993,-15648,2707,34,37,56,1,359
1,62,25666,-3877,-15545,2925,35,5,64,1,359
1,63,25671,-3990,-15493,3057,40,-33,70,1,359
1,64,25676,-4186,-15460,3057,40,-83,79,1,359
1,65,25681,-4270,-15438,2816,43,-119,87,1,359
1,66,25686,-4210,-15399,2668,45,-126,95,1,359
1,67,25691,-4202,-15365,2782,44,-111,100,1,359
1,68,25696,-4238,-15349,2924,46,-101,109,1,359
1,69,25701,-4183,-15310,2913,47,-95,115,1,359
1,70,25706,-4157,-15308,2713,46,-45,128,1,359
1,71,25711,-4321,-15304,2742,44,-14,132,1,359
1,72,25716,-4478,-15272,2709,44,9,137,1,359
1,73,25721,-4586,-15279,2547,46,33,145,1,359
1,74,25726,-4680,-15314,2511,45,62,145,1,359
1,75,25731,-4861,-15326,2775,48,86,149,1,359
1,76,25736,-4920,-15397,3061,49,80,160,1,359
1,77,25741,-4895,-15381,3165,52,56,165,1,359
1,78,25746,-4923,-15375,3250,58,23,172,1,359
1,79,25751,-4991,-15334,3315,60,-21,178,1,359
1,80,25756,-5164,-15417,3341,65,-78,187,1,359
1,81,25761,-5126,-15536,3315,71,-152,197,1,359
1,82,25766,-4508,-15532,2954,78,-228,216,1,359
1,83,25771,-4307,-15495,3094,80,-286,222,1,359
1,84,25776,-4627,-15497,3571,82,-361,226,1,359
1,85,25781,-4742,-15315,3089,89,-466,242,1,359
1,86,25786,-4639,-15380,2399,93,-514,251,1,359
1,87,25791,-4884,-15544,2708,99,-480,257,1,359
1,88,25796,-4592,-15535,2705,101,-448,270,1,359
1,89,25801,-4430,-15388,2337,105,-391,272,1,359
1,90,25806,-4580,-15328,2158,109,-307,268,1,359
1,91,25811,-4767,-15326,2275,112,-229,278,1,359
1,92,25816,-4568,-15303,2411,109,-167,288,1,359
1,93,25821,-4376,-15364,2458,110,-96,293,1,359
1,94,25826,-4448,-15491,2562,117,-22,294,1,359
1,95,25831,-4694,-15551,2699,123,20,301,1,359
1,96,25836,-4806,-15619,2952,129,24,318,1,359
1,97,25841,-4567,-15556,3223,135,-8,333,1,359
1,98,25846,-4247,-15543,3380,141,-61,346,1,359
1,99,25851,-4427,-15569,3475,150,-124,356,1,359
1,100,25856,-5044,-15698,3424,160,-200,367,1,359
1,101,25861,-5414,-15787,3013,170,-277,389,1,359
1,102,25866,-5058,-15683,2652,182,-317,404,1,359
1,103,25871,-4530,-15593,2693,191,-327,415,1,359
1,104,25876,-4288,-15432,2615,199,-364,423,1,359
1,105,25881,-5127,-15697,3727,203,-422,431,1,359
1,106,25886,-5691,-15610,3759,214,-534,447,1,359
1,107,25891,-4905,-15469,1936,231,-561,478,1,359
1,108,25896,-4805,-15520,1719,235,-378,473,1,359
1,109,25901,-5166,-15430,2751,239,-241,465,1,359
1,110,25906,-5335,-15455,3358,245,-250,489,1,359
1,111,25911,-5185,-15467,3038,254,-267,500,1,359
1,112,25916,-4845,-15408,2264,267,-209,510,1,359
1,113,25921,-4869,-15498,2397,270,-66,523,1,359
1,114,25926,-5130,-15390,3404,273,31,521,1,359
1,115,25931,-5435,-15325,3941,284,-7,539,1,359
1,116,25936,-5381,-15389,3753,297,-86,567,1,359
1,117,25941,-5118,-15300,3386,300,-94,582,1,359
1,118,25946,-5327,-15249,3631,306,-38,588,1,359
1,119,25951,-5923,-15252,4183,317,-18,596,1,359
1,120,25956,-5995,-15232,3851,330,-92,619,1,359
1,121,25961,-5569,-15244,3646,340,-143,643,1,359
1,122,25966,-5363,-15260,3855,343,-148,652,1,359
1,123,25971,-5561,-15225,4077,348,-171,662,1,359
1,124,25976,-6013,-15166,3847,357,-204,680,1,359
1,125,25981,-6106,-15151,3353,371,-221,695,1,359
1,126,25986,-5902,-15244,3299,381,-199,715,1,359
1,127,25991,-5636,-15245,3531,384,-158,726,1,359
1,128,25996,-5721,-15148,3772,390,-130,730,1,359
1,129,26001,-6105,-15097,3626,398,-123,745,1,359
1,130,26006,-6438,-15118,3413,405,-99,762,1,359
1,131,26011,-6448,-15191,3410,415,-59,780,1,359
1,132,26016,-6141,-15152,3730,421,-5,795,1,359
1,133,26021,-5907,-15085,4119,424,32,804,1,359
1,134,26026,-6100,-15004,4359,430,15,813,1,359
1,135,26031,-6561,-14943,4351,435,-40,828,1,359
1,136,26036,-6735,-14924,3979,437,-77,846,1,359
1,137,26041,-6704,-14956,3811,440,-55,860,1,359
1,138,26046,-6800,-15079,3964,447,-3,870,1,359
1,139,26051,-6955,-15145,4275,456,36,878,1,359
1,140,26056,-7030,-15008,4272,462,15,889,1,359
1,141,26061,-7023,-14991,4199,466,-12,905,1,359
1,142,26066,-7286,-15030,4581,464,-23,916,1,359
1,143,26071,-7162,-14986,4342,475,-80,947,1,359
1,144,26076,-7148,-14938,4233,478,-76,954,1,359
1,145,26081,-7380,-14885,4339,481,-71,962,1,359
1,146,26086,-7582,-14853,4346,484,-79,972,1,359
1,147,26091,-7501,-14767,4031,483,-70,983,1,359
1,148,26096,-7567,-14768,3857,484,-24,991,1,359
1,149,26101,-7745,-14808,4230,486,40,994,1,359
1,150,26106,-7568,-14628,4521,490,71,1004,1,359
1,151,26111,-7413,-14575,4397,489,82,1014,1,359
1,152,26116,-7602,-14507,4439,484,91,1018,1,359
1,153,26121,-8033,-14440,4694,483,83,1026,1,359
1,154,26126,-8258,-14418,4765,481,65,1039,1,359
1,155,26131,-8200,-14386,4555,485,63,1046,1,359
1,156,26136,-8149,-14364,4532,483,87,1052,1,359
1,157,26141,-8359,-14331,4856,480,101,1052,1,359
1,158,26146,-8677,-14230,5111,482,62,1055,1,359
1,159,26151,-8812,-14136,5053,479,0,1064,1,359
1,160,26156,-8793,-14057,4901,477,-33,1073,1,359
1,161,26161,-8925,-14079,4870,476,-33,1076,1,359
1,162,26166,-8990,-14058,5030,476,-34,1076,1,359
1,163,26171,-8818,-13954,5147,477,-56,1080,1,359
1,164,26176,-8606,-13907,4950,475,-91,1084,1,359
1,165,26181,-8757,-13855,4779,468,-109,1082,1,359
1,166,26186,-9101,-13711,4621,461,-101,1080,1,359
1,167,26191,-9282,-13663,4388,458,-72,1080,1,359
1,168,26196,-9202,-13693,4367,456,-12,1084,1,359
1,169,26201,-8888,-13683,4617,454,53,1081,1,359
1,170,26206,-8698,-13592,4846,449,95,1076,1,359
1,171,26211,-8972,-13470,5039,441,98,1072,1,359
1,172,26216,-9376,-13425,5049,434,73,1071,1,359
1,173,26221,-9484,-13318,4874,431,48,1075,1,359
1,174,26226,-9312,-13263,4713,431,56,1080,1,359
1,175,26231,-9086,-13216,5075,425,91,1074,1,359
1,176,26236,-9403,-13163,5606,417,71,1066,1,359
1,177,26241,-9746,-13119,5624,415,-30,1065,1,359
1,178,26246,-9737,-12975,5152,414,-124,1073,1,359
1,179,26251,-9361,-12834,5096,410,-139,1067,1,359
1,180,26256,-9376,-12769,5413,403,-134,1057,1,359
1,181,26261,-9675,-12653,5567,398,-165,1052,1,359
1,182,26266,-9794,-12558,5096,394,-213,1050,1,359
1,183,26271,-9814,-12532,4669,386,-217,1045,1,359
1,184,26276,-9680,-12513,4836,378,-176,1034,1,359
1,185,26281,-9555,-12399,5148,369,-128,1024,1,359
1,186,26286,-9615,-12276,5365,366,-103,1013,1,359
1,187,26291,-9829,-12195,5238,358,-111,1004,1,359
1,188,26296,-9808,-12144,5165,349,-125,1001,1,359
1,189,26301,-9545,-12079,5157,340,-123,996,1,359
1,190,26306,-9447,-12028,5099,333,-89,980,1,359
1,191,26311,-9839,-12054,5022,327,-48,965,1,359
1,192,26316,-10182,-12058,4940,317,-28,954,1,359
1,193,26321,-10043,-11903,4966,311,-21,949,1,359
1,194,26326,-9703,-11800,5193,302,-2,936,1,359
1,195,26331,-9635,-11727,5592,295,4,921,1,359
1,196,26336,-9877,-11642,5653,284,-26,906,1,359
1,197,26341,-10092,-11558,5514,277,-66,891,1,359
1,198,26346,-10129,-11464,5256,266,-83,882,1,359
1,199,26351,-10075,-11375,5202,255,-71,869,1,359
1,200,26356,-10133,-11332,5424,241,-45,849,1,359
1,201,26361,-10232,-11299,5498,230,-58,832,1,359
1,202,26366,-10228,-11220,5425,225,-94,818,1,359
1,203,26371,-10075,-11217,5276,214,-107,804,1,359
1,204,26376,-9973,-11241,5408,204,-94,787,1,359
1,205,26381,-10067,-11229,5326,192,-88,764,1,359
1,206,26386,-10201,-11357,5052,184,-97,750,1,359
1,207,26391,-10073,-11460,4942,171,-91,738,1,359
1,208,26396,-9714,-11393,4984,162,-79,722,1,359
1,209,26401,-9620,-11320,5227,146,-56,696,1,359
1,210,26406,-9995,-11368,5225,134,-49,669,1,359
1,211,26411,-10361,-11425,4926,128,-53,654,1,359
1,212,26416,-10203,-11407,4788,116,-37,641,1,359
1,213,26421,-9923,-11331,5109,103,-12,620,1,359
1,214,26426,-9908,-11232,5702,91,-12,592,1,359
1,215,26431,-10182,-11121,5649,80,-65,568,1,359
1,216,26436,-10377,-10827,5224,55,-120,531,1,359
1,217,26441,-10290,-10676,5643,38,-107,507,1,359
1,218,26446,-10229,-10546,5716,26,-108,479,1,359
1,219,26451,-10375,-10485,5437,15,-103,453,1,359
1,220,26456,-10638,-10489,4961,2,-98,425,1,359
1,221,26461,-10754,-10498,4948,-14,-71,402,1,359
1,222,26466,-10393,-10552,5256,-30,-54,383,1,359
1,223,26471,-9787,-10614,5659,-41,-57,362,1,359
1,224,26476,-9467,-10650,5647,-56,-81,337,1,359
1,225,26481,-9722,-10650,5306,-69,-118,309,1,359
1,226,26486,-10241,-10659,5049,-82,-141,284,1,359
1,227,26491,-10286,-10662,4716,-97,-143,266,1,359
1,228,26496,-9823,-10726,4509,-112,-101,243,1,359
1,229,26501,-9506,-10732,4753,-126,-22,208,1,359
1,230,26506,-9726,-10737,5165,-135,31,173,1,359
1,231,26511,-10030,-10743,5052,-150,26,146,1,359
1,232,26516,-9961,-10698,4769,-163,17,125,1,359
1,233,26521,-9752,-10599,5017,-178,42,101,1,359
1,234,26526,-9630,-10421,5460,-193,62,68,1,359
1,235,26531,-9825,-10230,5730,-211,60,34,1,359
1,236,26536,-10146,-10117,5364,-222,38,2,1,359
1,237,26541,-10500,-10080,4824,-238,36,-25,1,359
1,238,26546,-10630,-10172,4656,-253,77,-51,1,359
1,239,26551,-10297,-10390,4870,-264,109,-81,1,359
1,240,26556,-9788,-10557,5219,-274,107,-109,1,359
1,241,26561,-9533,-10641,5481,-288,57,-140,1,359
1,242,26566,-9522,-10616,5665,-301,-21,-165,1,359
1,243,26571,-9544,-10551,5554,-316,-97,-187,1,359
1,244,26576,-9449,-10516,5124,-331,-139,-214,1,359
1,245,26581,-9506,-10603,4702,-346,-129,-240,1,359
1,246,26586,-9567,-10738,4317,-358,-96,-270,1,359
1,247,26591,-9595,-10866,4038,-371,-42,-301,1,359
1,248,26596,-9642,-10959,4061,-385,33,-343,1,359
1,249,26601,-9740,-10902,4401,-398,102,-378,1,359
1,250,26606,-9692,-10719,4652,-412,153,-415,1,359
1,251,26611,-9622,-10571,4965,-427,194,-449,1,359
1,252,26616,-9742,-10470,5088,-442,215,-484,1,359
1,253,26621,-10228,-10460,4837,-459,235,-520,1,359
1,254,26626,-10583,-10605,4432,-471,257,-551,1,359
1,255,26631,-10395,-10871,4231,-480,265,-579,1,359
1,256,26636,-9698,-11142,4856,-491,263,-604,1,359
1,257,26641,-9077,-11213,5718,-498,193,-636,1,359
1,258,26646,-9059,-11241,5805,-504,62,-667,1,359
1,259,26651,-9616,-11246,5371,-514,-68,-698,1,359
1,260,26656,-9982,-11274,4849,-526,-179,-720,1,359
1,261,26661,-9770,-11406,4377,-543,-242,-740,1,359
1,262,26666,-9345,-11551,4338,-556,-238,-769,1,359
1,263,26671,-9153,-11733,4069,-565,-225,-805,1,359
1,264,26676,-9353,-11883,3571,-575,-191,-845,1,359
1,265,26681,-9609,-11900,3425,-588,-114,-882,1,359
1,266,26686,-9636,-11874,3631,-602,-24,-913,1,359
1,267,26691,-9286,-11884,3778,-614,60,-945,1,359
1,268,26696,-9133,-12037,3814,-625,141,-977,1,359
1,269,26701,-9267,-12255,3896,-631,199,-1011,1,359
1,270,26706,-9358,-12396,4061,-638,212,-1041,1,359
1,271,26711,-9013,-12485,4282,-649,180,-1062,1,359
1,272,26716,-8653,-12529,4660,-655,134,-1086,1,359
1,273,26721,-8559,-12631,4905,-659,81,-1111,1,359
1,274,26726,-8736,-12702,4720,-664,8,-1135,1,359
1,275,26731,-8867,-12736,4405,-671,-64,-1159,1,359
1,276,26736,-8809,-12810,4171,-679,-125,-1177,1,359
1,277,26741,-8532,-12878,4002,-687,-169,-1195,1,359
1,278,26746,-8383,-12978,3853,-694,-181,-1221,1,359
1,279,26751,-8504,-12939,3848,-705,-171,-1248,1,359
1,280,26756,-8605,-12874,3711,-715,-162,-1273,1,359
1,281,26761,-8574,-12937,3609,-723,-136,-1291,1,359
1,282,26766,-8235,-13038,3602,-732,-92,-1311,1,359
1,283,26771,-8053,-13076,3590,-742,-45,-1338,1,359
1,284,26776,-8201,-13280,3476,-746,2,-1361,1,359
1,285,26781,-8264,-13463,3443,-751,51,-1378,1,359
1,286,26786,-7834,-13531,3456,-755,89,-1395,1,359
1,287,26791,-7334,-13555,3641,-763,115,-1414,1,359
1,288,26796,-7234,-13571,3942,-771,124,-1436,1,359
1,289,26801,-7779,-13825,3422,-777,81,-1466,1,359
1,290,26806,-7590,-13989,3066,-779,103,-1476,1,359
1,291,26811,-7304,-14174,3125,-785,158,-1491,1,359
1,292,26816,-7301,-14316,3469,-787,191,-1512,1,359
1,293,26821,-7314,-14418,3590,-785,165,-1528,1,359
1,294,26826,-7075,-14440,3415,-785,110,-1535,1,359
1,295,26831,-6818,-14447,3377,-791,68,-1542,1,359
1,296,26836,-6707,-14486,3593,-794,46,-1555,1,359
1,297,26841,-6743,-14567,3415,-801,30,-1568,1,359
1,298,26846,-6681,-14613,2742,-801,29,-1578,1,359
1,299,26851,-6578,-14686,2422,-803,83,-1589,1,359
1,300,26856,-6595,-14760,2328,-813,158,-1608,1,359
1,301,26861,-6595,-14800,2202,-818,243,-1622,1,359
1,302,26866,-6724,-14931,1886,-820,347,-1638,1,359
1,303,26871,-6794,-15183,1599,-816,471,-1652,1,359
1,304,26876,-6519,-15369,1840,-811,593,-1664,1,359
1,305,26881,-6166,-15497,2521,-809,661,-1676,1,359
1,306,26886,-6166,-15689,2964,-802,626,-1683,1,359
1,307,26891,-5936,-15863,3063,-790,526,-1682,1,359
1,308,26896,-5348,-15866,3198,-782,409,-1676,1,359
1,309,26901,-4978,-15769,3422,-778,268,-1678,1,359
1,310,26906,-5328,-15708,3598,-776,98,-1680,1,359
1,311,26911,-5801,-15715,2812,-773,-81,-1673,1,359
1,312,26916,-5813,-15791,1805,-769,-166,-1669,1,359
1,313,26921,-5497,-15834,1277,-770,-135,-1669,1,359
1,314,26926,-5231,-15855,1438,-772,-54,-1675,1,359
1,315,26931,-5295,-15878,1336,-775,0,-1687,1,359
1,316,26936,-5357,-15866,870,-777,67,-1699,1,359
1,317,26941,-5371,-15854,564,-785,202,-1708,1,359
1,318,26946,-5358,-15837,872,-791,415,-1724,1,359
1,319,26951,-5312,-15905,1207,-790,634,-1743,1,359
1,320,26956,-5401,-15959,1426,-790,842,-1759,1,359
1,321,26961,-5502,-16099,1200,-789,987,-1772,1,359
1,322,26966,-5854,-16259,970,-784,1104,-1783,1,359
1,323,26971,-6006,-16647,987,-768,1166,-1787,1,359
1,324,26976,-5400,-16897,1743,-752,1156,-1787,1,359
1,325,26981,-4118,-17032,2768,-735,1046,-1783,1,359
1,326,26986,-3506,-16935,3910,-721,820,-1787,1,359
1,327,26991,-3921,-16862,4151,-709,487,-1780,1,359
1,328,26996,-4677,-16862,3277,-695,113,-1756,1,359
1,329,27001,-4695,-17177,1802,-686,-179,-1725,1,359
1,330,27006,-3789,-16831,1171,-690,-310,-1732,1,359
1,331,27011,-3349,-16883,1571,-690,-357,-1715,1,359
1,332,27016,-3707,-17279,1160,-682,-453,-1704,1,359
1,333,27021,-3855,-16811,-74,-685,-526,-1726,1,359
1,334,27026,-3665,-16867,-956,-690,-449,-1697,1,359
1,335,27031,-3021,-16972,-734,-693,-239,-1689,1,359
1,336,27036,-2390,-16895,-198,-698,-17,-1707,1,359
1,337,27041,-2188,-17004,-262,-692,139,-1707,1,359
1,338,27046,-2390,-17031,-670,-696,280,-1712,1,359
1,339,27051,-2870,-17061,-443,-698,453,-1710,1,359
1,340,27056,-3026,-17261,-487,-695,614,-1698,1,359
1,341,27061,-2404,-17430,-226,-680,777,-1687,1,359
1,342,27066,-1425,-17646,676,-664,896,-1679,1,359
1,343,27071,-1227,-17541,1651,-652,869,-1679,1,359
1,344,27076,-1580,-17389,2332,-635,682,-1667,1,359
1,345,27081,-2455,-17691,1551,-631,419,-1616,1,359
1,346,27086,-1602,-17797,1006,-604,250,-1595,1,359
1,347,27091,-812,-17368,1268,-599,181,-1581,1,359
1,348,27096,-617,-17853,1636,-594,44,-1532,1,359
1,349,27101,-1357,-17500,1208,-585,-115,-1540,1,359
1,350,27106,-1818,-17215,-61,-577,-239,-1521,1,359
1,351,27111,-1529,-17523,-1383,-572,-245,-1470,1,359
1,352,27116,-1130,-17466,-932,-579,-51,-1469,1,359
1,353,27121,-911,-17416,-699,-574,105,-1466,1,359
1,354,27126,-1153,-16703,-1227,-556,245,-1449,1,359
1,355,27131,-1387,-17845,-190,-554,407,-1434,1,359
1,356,27136,-1214,-17336,-1298,-560,351,-1434,1,359
1,357,27141,-1142,-15425,-270,-551,525,-1433,1,359
1,358,27146,-13186,-9308,-16334,-544,679,-1320,1,359
1,359,27151,-22745,-21080,-32768,-493,817,-1584,1,359
1,360,27156,-27930,-5683,-1316,-477,10120,-1761,1,359
1,361,27161,-17054,-20491,22886,464,22642,-437,1,359
1,362,27166,30769,-18562,30537,256,11339,-1253,1,359
1,363,27171,-14925,-12755,32011,721,3940,-834,1,359
1,364,27176,-32768,-11386,29951,716,-8059,198,1,359
1,365,27181,-21380,-9025,-2547,734,-14083,1135,1,359
1,366,27186,14349,-29737,-32768,204,-10596,1896,1,359
1,367,27191,31788,-26334,-25557,266,1395,-16,1,359
1,368,27196,-3687,-10565,14456,128,7396,-1488,1,359
1,369,27201,-32768,-13233,32767,228,3228,-273,1,359
1,370,27206,-18737,-9060,12466,775,-8179,888,1,359
1,371,27211,13674,-22632,-23073,1047,-10651,1935,1,359
1,372,27216,16075,-27790,-30391,365,-6357,947,1,359
1,373,27221,-7054,-20048,5119,364,-1093,-222,1,359
1,374,27226,-26228,-14366,22325,245,-1675,-158,1,359
1,375,27231,-10686,-14067,-12095,562,-5336,691,1,359
1,376,27236,9606,-21894,-30131,604,-4486,997,1,359
1,377,27241,9327,-19917,-18402,337,-754,161,1,359
1,378,27246,-4170,-17112,8402,426,1768,-176,1,359
1,379,27251,-10660,-16250,6294,404,983,80,1,359
1,380,27256,-1402,-15991,-11940,370,57,315,1,359
1,381,27261,7727,-18538,-13487,347,1236,337,1,359
1,382,27266,6619,-17232,3902,279,2856,6,1,359
1,383,27271,-402,-16068,16328,301,2670,-42,1,359
1,384,27276,-3130,-16028,6404,430,1004,234,1,359
1,385,27281,711,-16877,-7030,402,126,425,1,359
1,386,27286,2808,-16689,-3076,289,751,320,1,359
1,387,27291,1850,-16250,8017,244,1096,205,1,359
1,388,27296,-191,-16123,10593,314,372,262,1,359
1,389,27301,-952,-16797,223,401,-647,395,1,359
1,390,27306,-566,-16784,-6013,361,-771,409,1,359
1,391,27311,-503,-16493,-764,282,-272,349,1,359
1,392,27316,-223,-16383,5372,266,-137,313,1,359
1,393,27321,369,-16678,3102,311,-471,343,1,359
1,394,27326,196,-17266,-3662,331,-599,362,1,359
1,395,27331,-1436,-16800,-3193,284,-257,315,1,359
1,396,27336,-1685,-16243,1065,238,-55,304,1,359
1,397,27341,-596,-16256,3052,243,-79,314,1,359
1,398,27346,1075,-16849,-164,266,-144,320,1,359
1,399,27351,157,-17057,-1775,256,82,293,1,359
1,400,27356,-1142,-16651,260,223,254,270,1,359
1,401,27361,-1521,-16194,2795,201,178,272,1,359
1,402,27366,-43,-16409,1240,205,-51,306,1,359
1,403,27371,1004,-16839,-674,207,23,307,1,359
1,404,27376,101,-16665,176,193,280,267,1,359
1,405,27381,-1101,-16149,1891,175,309,251,1,359
1,406,27386,-1108,-16025,1518,168,80,276,1,359
1,407,27391,116,-16272,-300,168,-47,294,1,359
1,408,27396,469,-16330,-272,156,116,276,1,359
1,409,27401,-248,-16139,1275,143,269,249,1,359
1,410,27406,-1004,-15885,1680,138,191,249,1,359
1,411,27411,-781,-15860,580,138,36,265,1,359
1,412,27416,-38,-16020,111,125,31,269,1,359
1,413,27421,53,-16015,1013,110,120,250,1,359
1,414,27426,-213,-16036,1410,112,116,244,1,359
1,415,27431,-551,-16024,994,109,59,246,1,359
1,416,27436,-393,-16040,198,99,15,244,1,359
1,417,27441,-203,-16078,445,85,47,240,1,359
1,418,27446,-311,-16128,1060,79,92,232,1,359
1,419,27451,-530,-16131,962,75,103,228,1,359
1,420,27456,-575,-16118,492,71,114,225,1,359
1,421,27461,-459,-16104,415,63,126,222,1,359
1,422,27466,-402,-16159,910,51,139,220,1,359
1,423,27471,-518,-16163,1064,44,136,210,1,359
1,424,27476,-683,-16225,627,41,134,204,1,359
1,425,27481,-777,-16226,298,36,170,205,1,359
1,426,27486,-777,-16215,638,24,215,196,1,359
1,427,27491,-761,-16193,1211,20,211,192,1,359
1,428,27496,-693,-16174,1261,16,164,187,1,359
1,429,27501,-754,-16279,903,13,131,185,1,359
1,430,27506,-825,-16345,877,7,123,180,1,359
1,431,27511,-975,-16299,1124,2,104,176,1,359
1,432,27516,-1050,-16340,1178,-1,59,167,1,359
1,433,27521,-1017,-16352,964,-4,19,166,1,359
1,434,27526,-1052,-16386,799,-8,4,161,1,359
1,435,27531,-1112,-16313,984,-19,-16,145,1,359
1,436,27536,-1076,-16318,870,-22,-31,142,1,359
1,437,27541,-1021,-16328,725,-21,-27,137,1,359
1,438,27546,-1052,-16340,753,-27,-8,127,1,359
1,439,27551,-1078,-16234,866,-28,-1,122,1,359
1,440,27556,-1044,-16155,936,-33,1,116,1,359
1,441,27561,-1008,-16174,902,-37,-3,113,1,359
1,442,27566,-913,-16206,881,-42,5,106,1,359
1,443,27571,-975,-16208,1003,-45,17,96,1,359
1,444,27576,-1162,-16217,1015,-49,23,89,1,359
1,445,27581,-1167,-16203,921,-53,26,87,1,359
1,446,27586,-1031,-16196,859,-56,39,79,1,359
1,447,27591,-1018,-16253,1045,-60,53,70,1,359
1,448,27596,-1175,-16285,1183,-62,49,64,1,359
1,449,27601,-1180,-16279,1029,-63,36,62,1,359
1,450,27606,-1090,-16300,1023,-63,27,53,1,359
1,451,27611,-977,-16320,1120,-65,15,49,1,359
1,452,27616,-926,-16320,1237,-67,-8,44,1,359
1,453,27621,-964,-16299,1227,-68,-44,39,1,359
1,454,27626,-1091,-16342,1117,-67,-78,36,1,359
1,455,27631,-1128,-16294,959,-69,-101,33,1,359
1,456,27636,-1066,-16237,843,-69,-112,29,1,359
1,457,27641,-1027,-16260,832,-68,-113,25,1,359
1,458,27646,-976,-16310,778,-72,-110,19,1,359
1,459,27651,-879,-16299,711,-68,-106,12,1,359
1,460,27656,-807,-16285,736,-69,-95,8,1,359
1,461,27661,-732,-16287,632,-69,-78,7,1,359
1,462,27666,-641,-16315,622,-71,-58,1,1,359
1,463,27671,-574,-16303,552,-70,-33,-3,1,359
1,464,27676,-553,-16271,572,-71,-1,-9,1,359
1,465,27681,-564,-16323,652,-71,29,-11,1,359
1,466,27686,-625,-16334,618,-69,49,-16,1,359
1,467,27691,-674,-16419,657,-67,65,-20,1,359
1,468,27696,-692,-16475,690,-68,77,-22,1,359
1,469,27701,-746,-16502,731,-62,83,-26,1,359
1,470,27706,-834,-16552,791,-55,72,-26,1,359
1,471,27711,-807,-16533,854,-58,58,-29,1,359
1,472,27716,-831,-16518,956,-57,36,-33,1,359
1,473,27721,-858,-16541,959,-53,8,-31,1,359
1,474,27726,-951,-16545,887,-49,-18,-33,1,359
1,475,27731,-1064,-16575,796,-44,-38,-38,1,359
1,476,27736,-1030,-16540,798,-41,-49,-40,1,359
1,477,27741,-1027,-16509,979,-45,-57,-45,1,359
1,478,27746,-960,-16468,1108,-43,-66,-46,1,359
1,479,27751,-960,-16489,931,-40,-66,-49,1,359
1,480,27756,-1069,-16513,722,-37,-55,-54,1,359
1,481,27761,-1149,-16419,692,-37,-34,-58,1,359
1,482,27766,-1163,-16391,801,-37,-13,-62,1,359
1,483,27771,-1098,-16393,818,-37,4,-64,1,359
1,484,27776,-1045,-16421,731,-35,20,-69,1,359
1,485,27781,-1071,-16486,707,-33,44,-75,1,359
1,486,27786,-1060,-16506,782,-30,64,-77,1,359
1,487,27791,-1045,-16499,865,-29,67,-81,1,359
1,488,27796,-1015,-16532,856,-28,62,-84,1,359
1,489,27801,-933,-16534,880,-23,54,-84,1,359
1,490,27806,-842,-16535,956,-21,43,-84,1,359
1,491,27811,-880,-16530,1038,-19,19,-85,1,359
1,492,27816,-951,-16499,1057,-15,-13,-84,1,359
1,493,27821,-911,-16499,1010,-13,-42,-85,1,359
1,494,27826,-857,-16479,963,-10,-63,-83,1,359
1,495,27831,-821,-16473,914,-6,-73,-84,1,359
1,496,27836,-871,-16458,888,-4,-79,-86,1,359
1,497,27841,-865,-16450,688,-1,-82,-87,1,359
1,498,27846,-851,-16434,636,3,-75,-84,1,359
1,499,27851,-882,-16439,635,2,-56,-89,1,359
1,500,27856,-905,-16385,691,-1,-25,-92,1,359
1,501,27861,-918,-16398,667,5,2,-94,1,359
1,502,27866,-935,-16378,689,6,30,-95,1,359
1,503,27871,-859,-16358,803,11,57,-97,1,359
1,504,27876,-760,-16337,983,9,67,-100,1,359
1,505,27881,-660,-16300,1075,9,61,-99,1,359
1,506,27886,-636,-16343,1134,14,44,-99,1,359
1,507,27891,-697,-16352,969,13,26,-97,1,359
1,508,27896,-712,-16356,846,18,13,-95,1,359
1,509,27901,-704,-16334,880,20,15,-92,1,359
1,510,27906,-683,-16365,872,22,15,-92,1,359
1,511,27911,-672,-16387,854,24,21,-90,1,359
1,512,27916,-761,-16346,875,23,23,-91,1,359
1,513,27921,-827,-16372,883,26,21,-94,1,359
1,514,27926,-797,-16368,913,30,17,-92,1,359
1,515,27931,-707,-16321,978,31,9,-88,1,359
1,516,27936,-681,-16284,962,29,-2,-90,1,359
1,517,27941,-769,-16272,970,32,-5,-86,1,359
1,518,27946,-829,-16322,941,32,-7,-87,1,359
1,519,27951,-869,-16317,915,32,-14,-87,1,359
1,520,27956,-794,-16346,932,34,-8,-84,1,359
1,521,27961,-774,-16393,917,32,4,-87,1,359
1,522,27966,-770,-16467,916,33,20,-88,1,359
1,523,27971,-769,-16492,940,33,33,-86,1,359
1,524,27976,-826,-16439,945,31,38,-87,1,359
1,525,27981,-855,-16434,923,34,40,-85,1,359
1,526,27986,-821,-16438,893,36,39,-86,1,359
1,527,27991,-797,-16428,863,37,35,-86,1,359
1,528,27996,-820,-16422,943,34,25,-85,1,359
1,529,28001,-815,-16442,855,37,6,-86,1,359
1,530,28006,-832,-16413,1011,41,4,-84,1,359
1,531,28011,-816,-16466,747,38,-20,-80,1,359
1,532,28016,-732,-16340,794,40,-18,-85,1,359
1,533,28021,-766,-16371,669,38,-19,-80,1,359
1,534,28026,-784,-16433,787,41,-8,-82,1,359
1,535,28031,-744,-16327,775,41,1,-84,1,359
1,536,28036,-701,-16418,806,41,16,-81,1,359
1,537,28041,-679,-16440,847,41,38,-82,1,359
1,538,28046,-670,-16394,852,39,51,-81,1,359
1,539,28051,-674,-16444,885,41,63,-80,1,359
1,540,28056,-687,-16412,886,38,60,-81,1,359
1,541,28061,-672,-16394,942,36,54,-79,1,359
1,542,28066,-662,-16449,871,35,48,-76,1,359
1,543,28071,-700,-16480,818,38,42,-75,1,359
1,544,28076,-716,-16470,836,42,42,-74,1,359
1,545,28081,-738,-16494,870,41,37,-71,1,359
1,546,28086,-708,-16504,861,38,28,-71,1,359
1,547,28091,-661,-16506,850,36,20,-70,1,359
1,548,28096,-687,-16543,836,34,17,-68,1,359
1,549,28101,-725,-16566,861,35,15,-66,1,359
1,550,28106,-666,-16511,874,36,15,-67,1,359
1,551,28111,-627,-16558,830,36,17,-63,1,359
1,552,28116,-664,-16546,779,35,19,-66,1,359
1,553,28121,-672,-16545,769,35,21,-63,1,359
1,554,28126,-666,-16524,810,30,28,-63,1,359
1,555,28131,-606,-16553,824,29,34,-61,1,359
1,556,28136,-531,-16551,807,31,47,-60,1,359
1,557,28141,-582,-16566,780,31,63,-58,1,359
1,558,28146,-680,-16525,873,30,74,-57,1,359
1,559,28151,-718,-16476,937,29,77,-56,1,359
1,560,28156,-647,-16460,968,25,72,-55,1,359
1,561,28161,-651,-16453,1135,22,65,-51,1,359
1,562,28166,-574,-16442,1087,24,47,-50,1,359
1,563,28171,-564,-16375,1085,24,32,-51,1,359
1,564,28176,-610,-16427,896,20,15,-50,1,359
1,565,28181,-648,-16387,989,18,26,-49,1,359
1,566,28186,-630,-16403,922,14,29,-46,1,359
1,567,28191,-535,-16380,917,16,36,-45,1,359
1,568,28196,-532,-16445,902,19,31,-47,1,359
1,569,28201,-518,-16434,894,17,21,-46,1,359
1,570,28206,-530,-16363,926,14,1,-41,1,359
1,571,28211,-540,-16360,945,13,-19,-35,1,359
1,572,28216,-479,-16372,876,12,-31,-35,1,359
1,573,28221,-466,-16416,732,8,-30,-35,1,359
1,574,28226,-530,-16423,696,9,-15,-30,1,359
1,575,28231,-610,-16383,727,8,-4,-33,1,359
1,576,28236,-614,-16389,701,9,-3,-30,1,359
1,577,28241,-553,-16438,717,9,2,-28,1,359
1,578,28246,-464,-16391,758,5,15,-30,1,359
1,579,28251,-427,-16419,813,7,30,-30,1,359
1,580,28256,-495,-16383,862,7,36,-28,1,359
1,581,28261,-487,-16367,911,3,31,-27,1,359
1,582,28266,-424,-16364,938,4,12,-22,1,359
1,583,28271,-376,-16333,936,4,6,-20,1,359
1,584,28276,-393,-16313,920,2,-2,-19,1,359
1,585,28281,-491,-16320,939,0,-4,-18,1,359
1,586,28286,-518,-16342,892,-2,-5,-16,1,359
1,587,28291,-497,-16374,892,-2,-5,-12,1,359
1,588,28296,-526,-16384,834,-3,-1,-14,1,359
1,589,28301,-607,-16397,860,-5,13,-15,1,359
1,590,28306,-555,-16407,917,-3,16,-15,1,359
1,591,28311,-572,-16388,963,-6,19,-12,1,359
1,592,28316,-588,-16420,933,-9,21,-10,1,359
1,593,28321,-623,-16443,830,-9,24,-10,1,359
1,594,28326,-627,-16434,880,-10,29,-10,1,359
1,595,28331,-639,-16467,874,-8,27,-11,1,359
1,596,28336,-661,-16501,901,-10,27,-12,1,359
1,597,28341,-656,-16538,934,-12,24,-12,1,359
1,598,28346,-690,-16536,902,-15,19,-11,1,359
1,599,28351,-676,-16543,886,-14,15,-9,1,359
1,600,28356,-707,-16521,854,-16,12,-10,1,359
1,601,28361,-707,-16549,872,-13,6,-8,1,359
1,602,28366,-693,-16541,919,-13,0,-6,1,359
1,603,28371,-723,-16474,961,-12,-3,-5,1,359
1,604,28376,-698,-16453,975,-16,-6,-10,1,359
1,605,28381,-701,-16457,1013,-16,-10,-6,1,359
1,606,28386,-677,-16486,1039,-15,-18,-6,1,359
1,607,28391,-668,-16488,943,-17,-27,-9,1,359
1,608,28396,-662,-16489,890,-19,-33,-7,1,359
1,609,28401,-701,-16435,829,-18,-29,-9,1,359
1,610,28406,-695,-16469,905,-17,-30,-8,1,359
1,611,28411,-646,-16509,873,-17,-32,-6,1,359
1,612,28416,-618,-16501,883,-17,-26,-8,1,359
1,613,28421,-603,-16487,800,-19,-20,-6,1,359
1,614,28426,-584,-16504,794,-20,-12,-7,1,359
1,615,28431,-566,-16532,845,-22,-1,-11,1,359
1,616,28436,-510,-16509,1043,-20,2,-8,1,359
1,617,28441,-468,-16477,924,-20,-11,-7,1,359
1,618,28446,-516,-16459,982,-19,-5,-6,1,359
1,619,28451,-501,-16475,845,-20,-10,-6,1,359
1,620,28456,-545,-16470,889,-21,2,-9,1,359
1,621,28461,-557,-16514,894,-18,-1,-5,1,359
1,622,28466,-585,-16513,967,-20,-6,-5,1,359
1,623,28471,-560,-16478,1013,-18,-10,-8,1,359
1,624,28476,-527,-16464,1051,-17,-25,-4,1,359
1,625,28481,-546,-16453,997,-18,-37,-4,1,359
1,626,28486,-587,-16462,901,-19,-46,-2,1,359
1,627,28491,-584,-16399,840,-19,-52,1,1,359
1,628,28496,-568,-16390,835,-18,-45,1,1,359
1,629,28501,-556,-16428,840,-19,-36,-1,1,359
1,630,28506,-531,-16374,839,-18,-24,-4,1,359
1,631,28511,-520,-16346,770,-17,-15,-2,1,359
1,632,28516,-456,-16379,861,-18,-9,0,1,359
1,633,28521,-426,-16345,938,-17,1,-4,1,359
1,634,28526,-404,-16337,929,-18,3,0,1,359
1,635,28531,-420,-16385,813,-17,11,0,1,359
1,636,28536,-382,-16424,819,-17,25,-1,1,359
1,637,28541,-393,-16448,878,-18,33,-1,1,359
1,638,28546,-379,-16520,886,-18,44,1,1,359
1,639,28551,-343,-16519,986,-16,47,3,1,359
1,640,28556,-308,-16539,947,-17,43,2,1,359
1,641,28561,-307,-16572,909,-16,39,1,1,359
1,642,28566,-406,-16601,898,-13,31,2,1,359
1,643,28571,-538,-16646,877,-13,20,4,1,359
1,644,28576,-534,-16622,884,-11,13,5,1,359
1,645,28581,-499,-16608,855,-12,9,6,1,359
1,646,28586,-510,-16620,867,-15,10,8,1,359
1,647,28591,-635,-16591,857,-11,6,8,1,359
1,648,28596,-690,-16585,838,-9,-1,8,1,359
1,649,28601,-619,-16531,875,-9,-1,5,1,359
1,650,28606,-627,-16517,915,-11,3,6,1,359
1,651,28611,-595,-16550,982,-11,9,7,1,359
1,652,28616,-634,-16541,968,-8,13,9,1,359
1,653,28621,-644,-16518,895,-10,13,4,1,359
1,654,28626,-636,-16545,885,-10,17,4,1,359
1,655,28631,-636,-16533,1009,-7,19,4,1,359
1,656,28636,-625,-16505,951,-5,18,3,1,359
1,657,28641,-605,-16484,936,-6,16,3,1,359
1,658,28646,-651,-16490,892,-6,13,4,1,359
1,659,28651,-634,-16489,862,-4,12,4,1,359
1,660,28656,-539,-16504,831,-6,9,2,1,359
1,661,28661,-558,-16518,840,-4,9,1,1,359
1,662,28666,-608,-16535,848,-2,12,2,1,359
1,663,28671,-634,-16459,818,0,12,2,1,359
1,664,28676,-578,-16470,973,0,7,3,1,359
1,665,28681,-602,-16448,1066,0,-3,1,1,359
1,666,28686,-645,-16441,1032,1,-17,-1,1,359
1,667,28691,-680,-16432,928,3,-31,2,1,359
1,668,28696,-699,-16409,944,3,-37,1,1,359
1,669,28701,-660,-16387,969,4,-43,3,1,359
1,670,28706,-546,-16362,967,5,-46,-1,1,359
1,671,28711,-508,-16386,944,6,-49,-1,1,359
1,672,28716,-542,-16351,950,6,-49,-2,1,359
1,673,28721,-525,-16353,907,6,-47,-2,1,359
1,674,28726,-481,-16340,849,6,-40,0,1,359
1,675,28731,-493,-16306,797,7,-30,-1,1,359
1,676,28736,-512,-16350,786,7,-15,-1,1,359
1,677,28741,-497,-16404,844,7,-3,-1,1,359
1,678,28746,-445,-16404,833,7,4,1,1,359
1,679,28751,-424,-16416,786,8,13,0,1,359
1,680,28756,-456,-16474,773,6,16,-2,1,359
1,681,28761,-479,-16476,695,8,24,-1,1,359
1,682,28766,-450,-16533,812,10,31,-4,1,359
1,683,28771,-478,-16566,907,12,29,-3,1,359
1,684,28776,-450,-16494,911,10,15,-1,1,359
1,685,28781,-473,-16466,935,12,3,-3,1,359
1,686,28786,-441,-16462,925,14,-10,0,1,359
1,687,28791,-503,-16513,850,15,-22,2,1,359
1,688,28796,-552,-16531,865,18,-32,1,1,359
1,689,28801,-528,-16555,803,16,-31,0,1,359
1,690,28806,-587,-16529,756,18,-20,0,1,359
1,691,28811,-637,-16490,746,19,-9,1,1,359
1,692,28816,-551,-16477,901,19,0,-1,1,359
1,693,28821,-572,-16498,1018,18,-2,-1,1,359
1,694,28826,-572,-16508,969,17,-9,-3,1,359
1,695,28831,-593,-16479,978,20,-16,-3,1,359
1,696,28836,-635,-16464,956,22,-20,-4,1,359
1,697,28841,-642,-16449,946,21,-29,-3,1,359
1,698,28846,-684,-16462,879,18,-33,-1,1,359
1,699,28851,-677,-16441,793,18,-29,-3,1,359
1,700,28856,-688,-16503,758,19,-15,-7,1,359
1,701,28861,-671,-16489,742,18,-2,-6,1,359
1,702,28866,-686,-16535,714,17,9,-6,1,359
1,703,28871,-671,-16598,729,21,17,-8,1,359
1,704,28876,-585,-16519,877,21,20,-9,1,359
1,705,28881,-519,-16477,1026,21,15,-8,1,359
1,706,28886,-552,-16496,1123,21,0,-9,1,359
1,707,28891,-527,-16506,1057,21,-28,-7,1,359
1,708,28896,-480,-16480,885,22,-55,-7,1,359
1,709,28901,-456,-16489,859,23,-68,-5,1,359
1,710,28906,-498,-16524,801,23,-69,-4,1,359
1,711,28911,-479,-16495,712,24,-58,-4,1,359
1,712,28916,-458,-16477,631,22,-41,-4,1,359
1,713,28921,-477,-16442,673,20,-21,-7,1,359
1,714,28926,-413,-16455,846,22,-5,-8,1,359
1,715,28931,-418,-16460,878,23,5,-8,1,359
1,716,28936,-467,-16486,831,22,12,-8,1,359
1,717,28941,-515,-16483,798,19,19,-8,1,359
1,718,28946,-511,-16456,782,18,26,-10,1,359
1,719,28951,-471,-16478,953,19,25,-9,1,359
1,720,28956,-483,-16474,1109,21,17,-4,1,359
1,721,28961,-411,-16439,1059,18,-1,-4,1,359
1,722,28966,-439,-16418,1007,22,-8,-5,1,359
1,723,28971,-534,-16428,984,18,-9,-4,1,359
1,724,28976,-558,-16425,929,16,-8,-6,1,359
1,725,28981,-574,-16421,992,14,-11,-5,1,359
1,726,28986,-486,-16396,909,17,-10,-6,1,359
1,727,28991,-499,-16364,899,12,1,-7,1,359
1,728,28996,-621,-16458,844,11,19,-9,1,359
1,729,29001,-594,-16486,767,11,22,-6,1,359
1,730,29006,-452,-16487,838,12,27,-7,1,359
1,731,29011,-437,-16461,998,10,23,-5,1,359
1,732,29016,-452,-16455,1123,8,5,-5,1,359
1,733,29021,-454,-16414,1015,10,-15,-3,1,359
1,734,29026,-496,-16404,852,10,-29,-2,1,359
1,735,29031,-502,-16485,840,12,-30,-2,1,359
1,736,29036,-494,-16480,877,10,-33,-2,1,359
1,737,29041,-444,-16428,898,9,-31,-2,1,359
1,738,29046,-461,-16440,851,9,-26,-2,1,359
1,739,29051,-468,-16418,850,5,-16,-2,1,359
1,740,29056,-400,-16406,880,6,-11,-3,1,359
1,741,29061,-457,-16413,841,6,-10,-1,1,359
1,742,29066,-434,-16434,827,3,-2,-1,1,359
1,743,29071,-418,-16465,729,3,11,-1,1,359
1,744,29076,-491,-16438,766,2,22,0,1,359
1,745,29081,-531,-16460,800,3,30,1,1,359
1,746,29086,-511,-16491,834,1,36,-1,1,359
1,747,29091,-496,-16458,836,-1,40,2,1,359
1,748,29096,-512,-16459,852,-1,42,0,1,359
1,749,29101,-542,-16428,940,-1,38,-1,1,359
1,750,29106,-536,-16429,961,-2,28,4,1,359
1,751,29111,-558,-16448,862,-1,20,3,1,359
1,752,29116,-601,-16481,833,-1,18,1,1,359
1,753,29121,-595,-16443,858,-2,17,1,1,359
1,754,29126,-610,-16404,963,-3,13,1,1,359
1,755,29131,-538,-16396,1019,-2,0,0,1,359
1,756,29136,-489,-16381,969,-3,-17,4,1,359
1,757,29141,-523,-16424,940,-5,-24,7,1,359
1,758,29146,-593,-16451,845,-4,-31,4,1,359
1,759,29151,-636,-16455,773,-3,-29,3,1,359
1,760,19156,-2098,-16178,-1989,2,-8,-2,1,359
1,761,19161,-2091,-16189,-1956,2,-8,-5,1,359
1,762,19166,-2078,-16149,-1961,2,-9,-4,1,359
1,763,19171,-2108,-16204,-2019,4,-7,-4,1,359
1,764,19176,-2095,-16168,-2003,2,-6,-4,1,359
1,765,19181,-2086,-16167,-1991,0,-8,-5,1,359
1,766,19186,-2115,-16186,-2013,4,-9,-2,1,359
1,767,19191,-2105,-16207,-1996,5,-9,-4,1,359
1,768,19196,-2088,-16180,-2005,3,-8,-6,1,359
1,769,19201,-2119,-16180,-2003,4,-7,-4,1,359
1,770,19206,-2116,-16186,-1985,2,-8,-4,1,359
1,771,19211,-2123,-16172,-2007,4,-8,-7,1,359
1,772,19216,-2066,-16197,-1995,2,-10,-3,1,359
1,773,19221,-2091,-16179,-1964,2,-10,-3,1,359
1,774,19226,-2057,-16174,-2003,1,-6,-5,1,359
1,775,19231,-2049,-16169,-2027,3,-7,-4,1,359
1,776,19236,-2086,-16151,-2001,3,-9,-5,1,359
1,777,19241,-2064,-16185,-1966,3,-8,-5,1,359
1,778,19246,-2048,-16171,-2032,2,-7,-4,1,359
1,779,19251,-2110,-16178,-2004,3,-9,-2,1,359
1,780,19256,-2100,-16186,-1980,1,-10,-5,1,359
1,781,19261,-2052,-16174,-1998,3,-8,-4,1,359
1,782,19266,-2056,-16194,-2007,1,-6,-4,1,359
1,783,19271,-2116,-16183,-2004,1,-9,-3,1,359
1,784,19276,-2108,-16160,-2038,4,-6,-3,1,359
1,785,19281,-2097,-16197,-2024,3,-6,-4,1,359
1,786,19286,-2085,-16162,-1999,1,-9,-4,1,359
1,787,19291,-2089,-16161,-1986,3,-8,-3,1,359
1,788,19296,-2077,-16185,-2004,3,-8,-6,1,359
1,789,19301,-2086,-16177,-1957,-2,-7,-5,1,359
1,790,19306,-2081,-16193,-1953,3,-5,-6,1,359
1,791,19311,-2100,-16187,-1953,3,-8,-5,1,359
1,792,19316,-2076,-16159,-2000,3,-10,-6,1,359
1,793,19321,-2101,-16169,-2053,0,-9,-3,1,359
1,794,19326,-2102,-16187,-1959,2,-7,-5,1,359
1,795,19331,-2068,-16175,-1976,2,-7,-5,1,359
1,796,19336,-2073,-16175,-1991,3,-8,-4,1,359
1,797,19341,-2109,-16189,-2041,2,-8,-4,1,359
1,798,19346,-2067,-16147,-2045,2,-8,-4,1,359
1,799,19351,-2095,-16175,-1999,1,-6,-3,1,359
1,800,19356,-2116,-16175,-2009,2,-7,-3,1,359
1,801,19361,-2116,-16153,-2023,4,-8,-7,1,359
1,802,19366,-2067,-16181,-2013,4,-8,-4,1,359
1,803,19371,-2081,-16197,-2025,3,-6,-1,1,359
1,804,19376,-2106,-16179,-2003,2,-7,-4,1,359
1,805,19381,-2071,-16133,-1973,3,-7,-5,1,359
1,806,19386,-2078,-16176,-2017,2,-10,-7,1,359
1,807,19391,-2086,-16180,-2016,3,-11,-3,1,359
1,808,19396,-2078,-16149,-1960,0,-10,-3,1,359
1,809,19401,-2059,-16190,-1976,0,-7,-5,1,359
1,810,19406,-2066,-16191,-2004,0,-8,-2,1,359
1,811,19411,-2091,-16193,-1981,4,-8,-4,1,359
1,812,19416,-2090,-16184,-1982,5,-8,-4,1,359
1,813,19421,-2077,-16155,-2014,2,-7,-4,1,359
1,814,19426,-2079,-16163,-1983,2,-9,-2,1,359
1,815,19431,-2067,-16172,-1985,1,-8,-1,1,359
1,816,19436,-2048,-16141,-1976,3,-8,-3,1,359
1,817,19441,-2060,-16146,-1995,3,-7,-2,1,359
1,818,19446,-2092,-16148,-2010,4,-8,-5,1,359
1,819,19451,-2097,-16129,-1986,3,-8,-3,1,359
1,820,19456,-2080,-16170,-1988,2,-7,-3,1,359
1,821,19461,-2073,-16173,-1993,1,-7,-2,1,359
1,822,19466,-2073,-16158,-2019,3,-7,-3,1,359
1,823,19471,-2097,-16144,-1993,2,-7,-4,1,359
1,824,19476,-2064,-16169,-1976,2,-8,-4,1,359
1,825,19481,-2079,-16163,-2018,0,-9,-6,1,359
1,826,19486,-2101,-16173,-2011,2,-8,-7,1,359
1,827,19491,-2057,-16162,-2016,1,-5,-4,1,359
1,828,19496,-2050,-16161,-1999,3,-6,-2,1,359
1,829,19501,-2117,-16205,-2018,4,-6,-4,1,359
1,830,19506,-2114,-16193,-2009,4,-6,-4,1,359
1,831,19511,-2082,-16207,-1980,5,-8,-3,1,359
1,832,19516,-2098,-16178,-1955,1,-4,-5,1,359
1,833,19521,-2077,-16186,-1952,0,-8,-5,1,359
1,834,19526,-2053,-16204,-2003,2,-8,-5,1,359
1,835,19531,-2106,-16219,-1992,0,-7,-7,1,359
1,836,19536,-2101,-16190,-1993,3,-7,-6,1,359
1,837,19541,-2126,-16160,-2006,4,-7,-4,1,359
1,838,19546,-2110,-16155,-1978,1,-8,-3,1,359
1,839,19551,-2105,-16199,-1969,1,-8,-5,1,359
1,840,19556,-2072,-16158,-2017,2,-8,-6,1,359
1,841,19561,-2068,-16194,-2003,3,-7,-4,1,359
1,842,19566,-2054,-16180,-1988,3,-8,-3,1,359
1,843,19571,-2058,-16185,-2025,3,-9,-4,1,359
1,844,19576,-2085,-16177,-2005,2,-8,-4,1,359
1,845,19581,-2091,-16184,-2013,3,-9,-3,1,359
1,846,19586,-2085,-16187,-1978,1,-7,-3,1,359
1,847,19591,-2094,-16146,-2008,0,-7,-4,1,359
1,848,19596,-2125,-16168,-2064,2,-8,-4,1,359
1,849,19601,-2092,-16190,-2005,2,-9,-4,1,359
1,850,19606,-2073,-16159,-1993,1,-8,-3,1,359
1,851,19611,-2088,-16163,-2001,2,-10,-4,1,359
1,852,19616,-2053,-16215,-1988,2,-7,-4,1,359
1,853,19621,-2069,-16212,-1991,2,-6,-3,1,359
1,854,19626,-2049,-16162,-1985,2,-8,-6,1,359
1,855,19631,-2075,-16153,-2023,2,-7,-7,1,359
1,856,19636,-2093,-16164,-2013,3,-7,-3,1,359
1,857,19641,-2070,-16099,-2011,4,-8,-4,1,359
1,858,19646,-2163,-16308,-2023,2,-8,4,1,359
1,859,19651,-2114,-16090,-2136,2,-10,-12,1,359
1,860,19656,-2077,-16100,-1953,0,6,-6,1,359
1,861,19661,-1987,-16290,-1929,1,-2,4,1,359
1,862,19666,-1993,-16113,-1997,2,-9,-7,1,359
1,863,19671,-2161,-16132,-2028,4,-10,-5,1,359
1,864,19676,-2158,-16207,-2127,3,-11,-2,1,359
1,865,19681,-2055,-16190,-2125,2,-3,-6,1,359
1,866,19686,-2009,-16155,-1941,0,3,-7,1,359
1,867,19691,-2021,-16121,-1877,3,1,-4,1,359
1,868,19696,-2127,-16196,-1961,4,-10,-1,1,359
1,869,19701,-2099,-16170,-2073,1,-16,-5,1,359
1,870,19706,-2092,-16168,-2132,3,-9,-7,1,359
1,871,19711,-2074,-16183,-2009,0,-2,-6,1,359
1,872,19716,-2063,-16141,-1874,0,1,-6,1,359
1,873,19721,-2095,-16182,-1907,4,-5,-4,1,359
1,874,19726,-2117,-16182,-2034,3,-12,-4,1,359
1,875,19731,-2097,-16182,-2080,2,-10,-3,1,359
1,876,19736,-2072,-16202,-2028,1,-8,-3,1,359
1,877,19741,-2090,-16142,-1972,1,-7,-3,1,359
1,878,19746,-2085,-16155,-1940,1,-3,-7,1,359
1,879,19751,-2069,-16175,-1965,1,-6,-6,1,359
1,880,19756,-2079,-16175,-2032,2,-10,-4,1,359
1,881,19761,-2073,-16212,-2064,3,-5,-3,1,359
1,882,19766,-2050,-16199,-1979,1,-4,-5,1,359
1,883,19771,-2049,-16191,-1938,3,-9,-1,1,359
1,884,19776,-2080,-16159,-1923,2,-14,-2,1,359
1,885,19781,-2116,-16189,-2031,1,-12,-6,1,359
1,886,19786,-2071,-16177,-2011,0,-6,-6,1,359
1,887,19791,-2071,-16165,-1991,3,-6,-7,1,359
1,888,19796,-2064,-16157,-1951,4,-4,-4,1,359
1,889,19801,-2077,-16199,-1959,3,-6,-3,1,359
1,890,19806,-2064,-16185,-1968,2,-10,-3,1,359
1,891,19811,-2092,-16189,-1971,3,-12,-4,1,359
1,892,19816,-2106,-16195,-1972,1,-10,-1,1,359
1,893,19821,-2052,-16154,-2030,2,-7,-2,1,359
1,894,19826,-2079,-16131,-1994,4,-6,-2,1,359
1,895,19831,-2060,-16184,-2000,4,-7,-1,1,359
1,896,19836,-2090,-16155,-2003,1,-9,-3,1,359
1,897,19841,-2096,-16179,-1985,3,-10,-6,1,359
1,898,19846,-2089,-16178,-1995,3,-9,-6,1,359
1,899,19851,-2075,-16182,-1995,3,-8,-2,1,359
1,900,19856,-2054,-16185,-1984,2,-9,-1,1,359
1,901,19861,-2065,-16185,-2005,2,-10,-4,1,359
1,902,19866,-2077,-16188,-2041,3,-11,-3,1,359
1,903,19871,-2114,-16209,-2004,2,-9,-3,1,359
1,904,19876,-2105,-16188,-2021,2,-7,-3,1,359
1,905,19881,-2064,-16160,-1980,1,-8,-3,1,359
1,906,19886,-2051,-16205,-2020,0,-9,-4,1,359
1,907,19891,-2081,-16200,-2029,3,-10,-4,1,359
1,908,19896,-2081,-16180,-2007,4,-7,-4,1,359
1,909,19901,-2070,-16188,-1990,2,-8,-5,1,359
1,910,19906,-2073,-16176,-1954,2,-9,-6,1,359
1,911,19911,-2095,-16177,-1956,3,-7,0,1,359
1,912,19916,-2061,-16173,-2009,3,-7,-4,1,359
1,913,19921,-2060,-16171,-2003,2,-8,-5,1,359
1,914,19926,-2038,-16185,-1996,1,-9,-3,1,359
1,915,19931,-2010,-16167,-2021,2,-8,-2,1,359
1,916,19936,-2047,-16218,-2016,1,-11,0,1,359
1,917,19941,-2112,-16168,-1959,1,-8,-3,1,359
1,918,19946,-2102,-16183,-2026,2,-11,-4,1,359
1,919,19951,-2099,-16174,-2037,0,-10,-6,1,359
1,920,19956,-2077,-16158,-1995,1,-3,-5,1,359
1,921,19961,-2087,-16169,-1987,4,-9,-2,1,359
1,922,19966,-2103,-16154,-1975,3,-12,-2,1,359
1,923,19971,-2090,-16142,-2031,2,-12,-5,1,359
1,924,19976,-2073,-16166,-2031,3,-10,-3,1,359
1,925,19981,-2082,-16192,-2019,2,-8,-3,1,359
1,926,19986,-2094,-16192,-1983,1,-5,-6,1,359
1,927,19991,-2086,-16186,-1996,1,-7,-4,1,359
1,928,19996,-2092,-16193,-2041,2,-11,-2,1,359
1,929,20001,-2134,-16190,-1974,2,-9,0,1,359
1,930,20006,-2135,-16210,-2032,2,-8,-3,1,359
1,931,20011,-2035,-16173,-2062,4,-10,-4,1,359
1,932,20016,-1989,-16171,-1974,4,-3,-3,1,359
1,933,20021,-2080,-16206,-1911,3,-7,-5,1,359
1,934,20026,-2194,-16135,-1936,2,-16,-6,1,359
1,935,20031,-2148,-16214,-1955,3,-19,-2,1,359
1,936,20036,-2010,-16209,-2122,1,-13,-4,1,359
1,937,20041,-2041,-16147,-2038,2,-1,-6,1,359
1,938,20046,-2132,-16230,-1941,4,2,-1,1,359
1,939,20051,-2087,-16214,-1917,3,-7,-5,1,359
1,940,20056,-2070,-16117,-1954,1,-13,-6,1,359
1,941,20061,-2080,-16177,-2018,5,-15,0,1,359
1,942,20066,-2049,-16185,-1993,2,-9,-3,1,359
1,943,20071,-2111,-16179,-1997,3,-4,-6,1,359
1,944,20076,-2114,-16192,-1991,4,-4,-5,1,359
1,945,20081,-2038,-16173,-2056,1,-8,-8,1,359
1,946,20086,-2026,-16174,-1970,2,-8,-5,1,359
1,947,20091,-2102,-16200,-1941,3,-11,0,1,359
1,948,20096,-2063,-16174,-1977,1,-10,-3,1,359
1,949,20101,-2052,-16178,-2005,0,-11,-3,1,359
1,950,20106,-2073,-16209,-2069,3,-6,-4,1,359
1,951,20111,-2061,-16153,-2081,4,-3,-4,1,359
1,952,20116,-2056,-16176,-2004,5,-3,-2,1,359
1,953,20121,-2068,-16198,-1978,3,-12,-1,1,359
1,954,20126,-2080,-16161,-1994,3,-14,-1,1,359
1,955,20131,-2075,-16188,-2022,2,-11,-2,1,359
1,956,20136,-2129,-16205,-1955,0,-6,-3,1,359
1,957,20141,-2123,-16160,-1987,5,-5,-2,1,359
1,958,20146,-2033,-16181,-1969,4,-5,-1,1,359
1,959,20151,-2064,-16173,-2035,3,-9,1,1,359
1,960,20156,-2080,-16162,-2000,4,-10,-1,1,359
1,961,20161,-2116,-16156,-1985,5,-12,-3,1,359
1,962,20166,-2110,-16196,-1998,2,-9,-2,1,359
1,963,20171,-2459,-16159,-1742,1,-9,-2,1,359
1,964,20176,-2669,-16205,-1528,0,-15,-10,1,359
1,965,20181,-2043,-16160,-1955,-3,-22,-10,1,359
1,966,20186,-1235,-16180,-2731,0,8,2,1,359
1,967,20191,-1553,-16283,-2325,4,64,-6,1,359
1,968,20196,-2626,-16151,-1541,2,27,-14,1,359
1,969,20201,-2616,-16152,-1941,-1,-77,3,1,359
1,970,20206,-1827,-16203,-2344,4,-88,4,1,359
1,971,20211,-1638,-16114,-2222,1,-4,-10,1,359
1,972,20216,-2146,-16120,-1816,4,55,-9,1,359
1,973,20221,-2319,-16194,-1843,9,29,-8,1,359
1,974,20226,-1840,-16171,-2508,5,-42,-3,1,359
1,975,20231,-1998,-16189,-2261,6,-31,-2,1,359
1,976,20236,-2356,-16179,-2027,8,-19,-6,1,359
1,977,20241,-2545,-16145,-2128,12,-13,-9,1,359
1,978,20246,-2517,-16253,-2752,17,-13,-7,1,359
1,979,20251,-2654,-16249,-3672,19,1,-8,1,359
1,980,20256,-2809,-16534,-4784,28,1,-6,1,359
1,981,20261,-2840,-16493,-3885,33,31,-22,1,359
1,982,20266,-2340,-16326,-3329,26,-32,-14,1,359
1,983,20271,-2212,-16170,-2649,33,-56,-13,1,359
1,984,20276,-2262,-16148,-2298,48,-55,-24,1,359
1,985,20281,-2195,-16237,-2236,52,-42,-18,1,359
1,986,20286,-2271,-16182,-1904,50,-15,-16,1,359
1,987,20291,-2173,-16120,-1676,48,-28,-15,1,359
1,988,20296,-2364,-16114,-1673,54,-45,-22,1,359
1,989,20301,-2480,-16257,-2112,60,-71,-24,1,359
1,990,20306,-2645,-16335,-2528,58,-85,-21,1,359
1,991,20311,-2894,-16266,-2580,54,-84,-22,1,359
1,992,20316,-2860,-16274,-2675,60,-100,-23,1,359
1,993,20321,-2743,-16287,-2854,69,-105,-28,1,359
1,994,20326,-2818,-16357,-2958,68,-106,-33,1,359
1,995,20331,-2850,-16356,-3035,74,-125,-30,1,359
1,996,20336,-2770,-16315,-2924,78,-146,-33,1,359
1,997,20341,-2783,-16303,-2733,80,-172,-32,1,359
1,998,20346,-2587,-16264,-2653,87,-196,-33,1,359
1,999,20351,-2278,-16242,-2616,93,-206,-32,1,359
