event_id,seq,ts_ms,ax,ay,az,gx,gy,gz
2,0,109377,-2285,-15768,-4140,-1,-18,-2
2,1,109382,-2325,-15792,-4018,-1,-2,-4
2,2,109387,-2374,-15801,-3921,-1,3,-4
2,3,109392,-2205,-15778,-3776,0,10,-1
2,4,109397,-2068,-15817,-3707,4,14,-2
2,5,109402,-2195,-15822,-3692,4,6,-3
2,6,109407,-2283,-15774,-3823,3,-17,-3
2,7,109412,-2233,-15795,-3929,2,-30,-1
2,8,109417,-2168,-15776,-3983,1,-25,-1
2,9,109422,-2073,-15840,-4013,0,-10,1
2,10,109427,-1969,-15811,-4009,1,7,0
2,11,109432,-1965,-15825,-4060,4,3,-5
2,12,109437,-2044,-15796,-4076,2,-14,-3
2,13,109442,-2067,-15770,-4146,-1,-33,-3
2,14,109447,-2142,-15760,-4258,3,-34,-2
2,15,109452,-2124,-15752,-4272,3,-23,-1
2,16,109457,-2086,-15777,-4251,3,-14,-2
2,17,109462,-2022,-15802,-4143,5,-4,-3
2,18,109467,-2023,-15818,-3924,4,6,-2
2,19,109472,-2061,-15816,-3728,4,7,-5
2,20,109477,-2015,-15811,-3633,5,-5,-6
2,21,109482,-1939,-15818,-3837,5,-21,-2
2,22,109487,-1981,-15866,-4009,2,-22,-4
2,23,109492,-2020,-15853,-4007,3,-15,-7
2,24,109497,-2038,-15839,-3807,3,-2,-5
2,25,109502,-2040,-15740,-3648,3,-4,-6
2,26,109507,-2133,-15756,-3702,6,-17,-7
2,27,109512,-2313,-15811,-3841,4,-30,-6
2,28,109517,-2207,-15725,-4075,2,-30,-5
2,29,109522,-2080,-15727,-4053,5,-22,-5
2,30,109527,-2121,-15743,-3885,4,-21,-6
2,31,109532,-2107,-15736,-3876,0,-33,-5
2,32,109537,-1938,-15710,-3938,4,-33,-4
2,33,109542,-1818,-15768,-3907,3,-18,-4
2,34,109547,-1919,-15789,-3875,3,0,-6
2,35,109552,-2028,-15787,-3929,3,-1,-7
2,36,109557,-2035,-15808,-3977,1,-9,-2
2,37,109562,-1999,-15830,-3867,0,-9,0
2,38,109567,-1922,-15848,-3796,-2,0,-5
2,39,109572,-1895,-15826,-3773,-2,6,-5
2,40,109577,-1917,-15795,-3734,2,4,-6
2,41,109582,-1935,-15755,-3795,3,-9,-5
2,42,109587,-1982,-15762,-3898,3,-21,-4
2,43,109592,-1987,-15737,-4002,2,-20,-3
2,44,109597,-2025,-15775,-3899,1,-10,-1
2,45,109602,-2007,-15768,-3781,1,-3,-3
2,46,109607,-1958,-15853,-3819,1,-12,-2
2,47,109612,-1876,-15831,-3947,0,-21,-1
2,48,109617,-1948,-15854,-3888,1,-23,-4
2,49,109622,-2003,-15846,-3681,-3,-24,-2
2,50,109627,-2088,-15831,-3544,-3,-21,0
2,51,109632,-2086,-15785,-3647,2,-18,-3
2,52,109637,-1923,-15734,-3777,1,-8,-1
2,53,109642,-1933,-15739,-3762,1,1,-1
2,54,109647,-2045,-15752,-3717,-2,-2,-5
2,55,109652,-2049,-15728,-3748,-3,-10,-5
2,56,109657,-2103,-15725,-3814,-2,-14,-4
2,57,109662,-2087,-15768,-3905,-5,-9,-5
2,58,109667,-2083,-15779,-3988,-4,-2,-1
2,59,109672,-2001,-15834,-4074,-4,-4,2
2,60,109677,-1930,-15874,-4087,-6,-4,1
2,61,109682,-1910,-15855,-4012,-7,-4,0
2,62,109687,-2004,-15897,-3896,-4,-6,1
2,63,109692,-2118,-15869,-3980,-3,-9,3
2,64,109697,-2160,-15816,-4096,-4,-13,2
2,65,109702,-2167,-15823,-4174,-5,-11,-1
2,66,109707,-2094,-15791,-4106,-6,-6,1
2,67,109712,-2129,-15816,-3986,-6,2,-2
2,68,109717,-2137,-15821,-3958,0,-3,-4
2,69,109722,-2202,-15830,-4013,2,-3,-6
2,70,109727,-2241,-15760,-3958,-3,-6,-5
2,71,109732,-2144,-15741,-3889,-1,-19,-5
2,72,109737,-2089,-15724,-3938,1,-12,-7
2,73,109742,-2058,-15745,-4028,0,3,-8
2,74,109747,-2029,-15782,-4047,0,7,-7
2,75,109752,-2093,-15785,-4052,-2,0,-9
2,76,109757,-2164,-15789,-3975,-2,-4,-7
2,77,109762,-2146,-15807,-3914,-3,-5,-3
2,78,109767,-2023,-15846,-3949,0,-2,1
2,79,109772,-1928,-15876,-3866,1,1,-2
2,80,109777,-1975,-15869,-3813,-2,-4,-5
2,81,109782,-2005,-15811,-3847,-5,-15,-7
2,82,109787,-2056,-15769,-4000,-1,-21,-4
2,83,109792,-2033,-15801,-4115,0,-12,-5
2,84,109797,-2084,-15804,-4098,-1,0,-7
2,85,109802,-2094,-15799,-4122,-2,1,-7
2,86,109807,-2178,-15766,-4025,-2,-7,-9
2,87,109812,-2241,-15775,-3999,-3,-12,-13
2,88,109817,-2259,-15793,-4017,-1,-12,-10
2,89,109822,-2146,-15746,-4044,0,-6,-9
2,90,109827,-2046,-15784,-4003,1,0,-8
2,91,109832,-1948,-15766,-3859,0,-3,-9
2,92,109837,-1949,-15766,-3720,1,-8,-10
2,93,109842,-1962,-15778,-3776,4,-5,-9
2,94,109847,-1900,-15760,-3799,4,5,-7
2,95,109852,-1826,-15804,-3786,1,13,-10
2,96,109857,-1817,-15794,-3802,-2,9,-8
2,97,109862,-1847,-15816,-3858,0,-5,-7
2,98,109867,-1944,-15796,-3892,-1,-17,-6
2,99,109872,-1977,-15776,-3991,-3,-22,-8
2,100,109877,-1972,-15820,-3945,-2,-7,-6
2,101,109882,-1895,-15776,-3886,0,4,-6
2,102,109887,-1892,-15834,-3883,-3,6,-7
2,103,109892,-1987,-15831,-3890,-5,0,-7
2,104,109897,-2084,-15756,-3881,-6,-4,-8
2,105,109902,-2165,-15845,-3826,-6,-4,-7
2,106,109907,-2128,-15852,-3896,-3,-7,-5
2,107,109912,-2102,-15830,-3978,-4,-4,-7
2,108,109917,-2103,-15823,-3907,-4,3,-4
2,109,109922,-2080,-15754,-3776,-1,3,-1
2,110,109927,-2010,-15803,-3768,-3,4,-5
2,111,109932,-1996,-15816,-3914,-1,9,-3
2,112,109937,-2007,-15795,-4002,1,18,-1
2,113,109942,-2033,-15798,-3837,-4,26,-4
2,114,109947,-2053,-15795,-3693,-4,22,-4
2,115,109952,-2030,-15802,-3839,-3,13,-5
2,116,109957,-1968,-15702,-3930,-5,7,-6
2,117,109962,-1967,-15716,-3848,-6,0,-5
2,118,109967,-1919,-15721,-3818,-2,-15,-5
2,119,109972,-1794,-15762,-3958,-4,-26,-5
2,120,109977,-1845,-15782,-4069,-3,-14,-4
2,121,109982,-1911,-15773,-4017,-6,1,-9
2,122,109987,-1945,-15770,-3854,-5,3,-8
2,123,109992,-1805,-15782,-3911,-4,-12,-5
2,124,109997,-1713,-15802,-4191,-1,-29,-3
2,125,110002,-1787,-15798,-4335,0,-32,-4
2,126,110007,-1926,-15811,-4337,-2,-20,-5
2,127,110012,-1990,-15797,-4257,-3,-13,-5
2,128,110017,-1966,-15810,-4106,-5,-16,-2
2,129,110022,-1902,-15797,-4063,-7,-16,1
2,130,110027,-1945,-15787,-4028,-5,-10,1
2,131,110032,-2086,-15762,-3936,1,-3,0
2,132,110037,-2118,-15788,-3967,-1,1,0
2,133,110042,-2050,-15797,-4010,-1,-2,3
2,134,110047,-1959,-15830,-3953,0,-5,3
2,135,110052,-1982,-15808,-3859,2,0,0
2,136,110057,-2054,-15774,-3836,1,5,1
2,137,110062,-2030,-15819,-3948,3,3,2
2,138,110067,-2047,-15792,-3977,3,6,-1
2,139,110072,-1967,-15821,-3935,2,0,2
2,140,110077,-1951,-15838,-3859,-1,-5,3
2,141,110082,-1970,-15800,-3799,3,-12,3
2,142,110087,-1963,-15777,-3964,0,-18,-2
2,143,110092,-2026,-15853,-4083,1,-13,0
2,144,110097,-2156,-15778,-3999,-4,-21,0
2,145,110102,-2047,-15727,-3990,-2,-29,0
2,146,110107,-2015,-15699,-4063,-1,-25,1
2,147,110112,-2007,-15805,-4117,1,-12,1
2,148,110117,-2050,-15777,-4042,2,5,1
2,149,110122,-2131,-15754,-3948,1,12,-4
2,150,110127,-2151,-15810,-3888,1,8,-3
2,151,110132,-2152,-15802,-3823,-2,6,-1
2,152,110137,-2091,-15798,-3956,2,6,-1
2,153,110142,-2126,-15807,-3968,2,10,-2
2,154,110147,-2205,-15813,-3956,0,5,-1
2,155,110152,-2190,-15791,-3940,1,-5,2
2,156,110157,-2041,-15780,-3905,-1,-10,0
2,157,110162,-1946,-15839,-3998,-1,-7,1
2,158,110167,-1903,-15823,-4063,-1,9,-2
2,159,110172,-1941,-15785,-3981,4,13,-2
2,160,110177,-1967,-15777,-3926,1,2,-1
2,161,110182,-1958,-15767,-4019,0,-13,-2
2,162,110187,-1916,-15808,-4088,0,-14,-1
2,163,110192,-1931,-15770,-3930,-1,-6,-1
2,164,110197,-1977,-15771,-3754,0,-10,-4
2,165,110202,-2051,-15741,-3751,3,-19,-3
2,166,110207,-2073,-15743,-3903,4,-28,-2
2,167,110212,-2095,-15790,-4070,3,-21,-2
2,168,110217,-2066,-15822,-4031,2,-11,-2
2,169,110222,-2161,-15791,-3886,0,-7,-1
2,170,110227,-2119,-15845,-3865,1,-17,0
2,171,110232,-2079,-15790,-3944,0,-25,0
2,172,110237,-2060,-15853,-3916,-1,-29,-2
2,173,110242,-2052,-15812,-3921,1,-26,-2
2,174,110247,-2058,-15797,-3971,0,-32,-4
2,175,110252,-2044,-15768,-4018,1,-41,-5
2,176,110257,-2059,-15784,-4137,-1,-41,1
2,177,110262,-1998,-15770,-4126,0,-33,0
2,178,110267,-1956,-15771,-4012,2,-18,-1
2,179,110272,-2014,-15800,-4007,0,-4,0
2,180,110277,-2069,-15797,-4068,1,14,-2
2,181,110282,-1964,-15787,-4081,1,29,-2
2,182,110287,-1997,-15788,-3904,-2,37,-4
2,183,110292,-2049,-15761,-3693,0,32,-6
2,184,110297,-2141,-15708,-3594,2,20,-6
2,185,110302,-2250,-15743,-3813,3,13,-5
2,186,110307,-2146,-15746,-3919,2,16,-4
2,187,110312,-2075,-15756,-3770,2,15,-4
2,188,110317,-1982,-15786,-3791,2,1,-4
2,189,110322,-1981,-15789,-3873,0,-11,-6
2,190,110327,-2082,-15860,-3993,-1,-10,-6
2,191,110332,-2127,-15789,-4009,4,-5,-4
2,192,110337,-2033,-15755,-4044,2,-3,-4
2,193,110342,-2023,-15844,-4048,-3,-11,-4
2,194,110347,-2049,-15854,-4236,-4,-26,-2
2,195,110352,-2010,-15842,-4156,-5,-23,-2
2,196,110357,-2012,-15886,-4052,-6,-15,-3
2,197,110362,-1936,-15916,-4026,0,-6,0
2,198,110367,-1890,-15896,-4092,1,5,2
2,199,110372,-1972,-15771,-4014,0,16,-5
2,200,110377,-2101,-15703,-3772,0,17,-6
2,201,110382,-2158,-15687,-3714,-1,2,-2
2,202,110387,-2055,-15731,-3803,1,-5,-1
2,203,110392,-1937,-15815,-3868,5,-6,1
2,204,110397,-1995,-15829,-3795,5,-8,-5
2,205,110402,-2067,-15815,-3701,1,-16,-9
2,206,110407,-2098,-15781,-3792,2,-23,-8
2,207,110412,-2020,-15768,-3990,3,-19,-7
2,208,110417,-2032,-15702,-4023,2,-5,-7
2,209,110422,-2139,-15682,-3913,0,1,-11
2,210,110427,-2164,-15717,-3980,2,-15,-6
2,211,110432,-2140,-15749,-4072,-1,-22,-6
2,212,110437,-2060,-15760,-4037,0,-19,-4
2,213,110442,-1999,-15783,-4089,1,-10,-2
2,214,110447,-1882,-15807,-4171,1,-6,0
2,215,110452,-1919,-15806,-4101,0,-4,-3
2,216,110457,-2048,-15795,-4037,-3,-6,-8
2,217,110462,-2150,-15766,-4047,-2,-6,-6
2,218,110467,-2100,-15783,-4235,1,20,-5
2,219,110472,-2038,-15766,-4191,1,32,-6
2,220,110477,-2031,-15780,-4051,-1,36,-9
2,221,110482,-2051,-15797,-3907,0,39,-9
2,222,110487,-2085,-15813,-3963,5,50,-9
2,223,110492,-2084,-15785,-3940,6,74,-10
2,224,110497,-2032,-15775,-3704,2,81,-11
2,225,110502,-2040,-15694,-3563,1,65,-11
2,226,110507,-2031,-15712,-3723,3,45,-8
2,227,110512,-1919,-15737,-3879,3,36,-4
2,228,110517,-1876,-15753,-3753,1,39,-5
2,229,110522,-1954,-15838,-3672,1,27,-3
2,230,110527,-1952,-15907,-3765,1,0,-3
2,231,110532,-1783,-15872,-3889,-3,-20,-2
2,232,110537,-1760,-16010,-3986,-1,-27,-1
2,233,110542,-1802,-16087,-3858,-3,-30,-3
2,234,110547,-1811,-16036,-3778,-3,-42,-3
2,235,110552,-1852,-15943,-4047,-3,-55,-8
2,236,110557,-1939,-15953,-4390,0,-53,-8
2,237,110562,-2028,-15931,-4237,-3,-40,-8
2,238,110567,-2079,-15822,-4047,1,-38,-9
2,239,110572,-2150,-15797,-4129,1,-36,-10
2,240,110577,-2136,-15750,-4203,4,-18,-11
2,241,110582,-2071,-15648,-3986,5,12,-8
2,242,110587,-2058,-15664,-3678,5,27,-11
2,243,110592,-2126,-15676,-3587,8,10,-11
2,244,110597,-2108,-15678,-3727,8,-4,-9
2,245,110602,-2035,-15713,-3843,8,-4,-7
2,246,110607,-1930,-15742,-3617,4,-3,-11
2,247,110612,-2020,-15714,-3489,6,-8,-12
2,248,110617,-2128,-15706,-3936,9,-21,-12
2,249,110622,-2097,-15706,-4366,11,-9,-7
2,250,110627,-1988,-15775,-4121,6,14,-9
2,251,110632,-1997,-15815,-3777,2,7,-12
2,252,110637,-2007,-15816,-3895,6,-11,-14
2,253,110642,-2158,-15712,-4296,7,-17,-13
2,254,110647,-2166,-15610,-4308,4,-14,-11
2,255,110652,-2110,-15567,-4005,4,-21,-10
2,256,110657,-2019,-15592,-3894,2,-52,-8
2,257,110662,-2017,-15619,-4145,7,-75,-6
2,258,110667,-2118,-15633,-4339,6,-58,-5
2,259,110672,-2240,-15593,-4293,2,-35,-2
2,260,110677,-2233,-15615,-4100,-3,-26,2
2,261,110682,-2140,-15646,-3893,-5,-26,5
2,262,110687,-1993,-15765,-3852,-4,-21,2
2,263,110692,-1994,-15781,-3903,-1,11,-4
2,264,110697,-1974,-15770,-3820,3,40,-5
2,265,110702,-1947,-15849,-3745,3,41,-4
2,266,110707,-1937,-15847,-3771,4,10,-7
2,267,110712,-1955,-15813,-3977,2,-21,-9
2,268,110717,-1980,-15838,-4216,1,-28,-9
2,269,110722,-2067,-15798,-4093,-1,-17,-9
2,270,110727,-2137,-15775,-3834,2,-14,-12
2,271,110732,-2198,-15726,-3861,5,-29,-9
2,272,110737,-2175,-15659,-4089,4,-30,-9
2,273,110742,-2058,-15698,-4081,3,-18,-5
2,274,110747,-1947,-15767,-3911,2,-8,-4
2,275,110752,-1893,-15825,-3765,-2,-22,-6
2,276,110757,-1864,-15834,-3968,-2,-41,-7
2,277,110762,-1816,-15863,-4255,2,-33,-4
2,278,110767,-1936,-15957,-4145,1,-13,-5
2,279,110772,-2079,-15959,-3867,-3,-6,-7
2,280,110777,-2157,-15873,-3813,-1,-12,-7
2,281,110782,-2210,-15824,-3974,-1,-8,-6
2,282,110787,-2130,-15819,-4111,2,0,-5
2,283,110792,-2054,-15866,-4004,-1,10,-4
2,284,110797,-1909,-15860,-3769,-1,8,-4
2,285,110802,-1965,-15831,-3715,-1,3,-7
2,286,110807,-2014,-15798,-3877,-2,6,-5
2,287,110812,-2000,-15765,-3911,1,21,-6
2,288,110817,-1933,-15765,-3645,1,21,-8
2,289,110822,-1881,-15755,-3533,-2,-2,-6
2,290,110827,-1925,-15723,-3772,-2,-29,-8
2,291,110832,-1894,-15799,-4213,1,-20,-10
2,292,110837,-1981,-15817,-4046,-1,-4,-13
2,293,110842,-2031,-15758,-3883,-4,-8,-14
2,294,110847,-2183,-15731,-3825,-4,-16,-13
2,295,110852,-2196,-15772,-3992,-1,-20,-8
2,296,110857,-2069,-15839,-4148,-1,-9,-6
2,297,110862,-2015,-15866,-4163,-1,-6,-8
2,298,110867,-2011,-15868,-4090,-1,-21,-6
2,299,110872,-1962,-15840,-4240,-4,-39,-4
2,300,110877,-1977,-15860,-4302,-2,-39,-3
2,301,110882,-1984,-15885,-4204,-1,-26,-5
2,302,110887,-1921,-15831,-4049,-4,-16,-5
2,303,110892,-1940,-15721,-3941,0,-17,-5
2,304,110897,-2009,-15691,-3971,1,-20,-7
2,305,110902,-2092,-15676,-4012,3,-14,-10
2,306,110907,-2032,-15726,-4076,4,-5,-9
2,307,110912,-2001,-15744,-3985,2,3,-9
2,308,110917,-2039,-15767,-3802,1,2,-8
2,309,110922,-2090,-15739,-3728,3,3,-11
2,310,110927,-2069,-15724,-3878,3,5,-11
2,311,110932,-2064,-15832,-4123,3,4,-8
2,312,110937,-2072,-15886,-4109,3,-2,-8
2,313,110942,-2020,-15827,-4002,-1,-14,-9
2,314,110947,-2082,-15813,-4034,-2,-25,-7
2,315,110952,-2100,-15807,-4125,4,-24,-4
2,316,110957,-1992,-15814,-4210,3,-10,-3
2,317,110962,-1923,-15843,-4206,0,8,-5
2,318,110967,-1890,-15823,-4020,0,3,-4
2,319,110972,-1970,-15818,-3870,0,-7,-8
2,320,110977,-1962,-15772,-3793,1,-12,-8
2,321,110982,-2031,-15728,-3770,3,-7,-6
2,322,110987,-2074,-15762,-3717,2,-10,-11
2,323,110992,-2063,-15782,-3748,0,-24,-12
2,324,110997,-2029,-15755,-3721,2,-38,-12
2,325,111002,-2078,-15743,-3792,-2,-40,-10
2,326,111007,-2067,-15775,-3994,3,-24,-9
2,327,111012,-2017,-15852,-4072,7,4,-7
2,328,111017,-1982,-15855,-3985,5,25,-9
2,329,111022,-2059,-15808,-3892,3,20,-8
2,330,111027,-2095,-15811,-3933,1,-1,-7
2,331,111032,-2074,-15820,-4059,2,-17,-6
2,332,111037,-2043,-15910,-4020,2,-25,-4
2,333,111042,-2121,-15914,-3990,1,-35,-4
2,334,111047,-2178,-15880,-4152,2,-45,-5
2,335,111052,-2173,-15836,-4393,2,-45,-5
2,336,111057,-2138,-15848,-4417,1,-38,-2
2,337,111062,-2083,-15942,-4323,-1,-28,-3
2,338,111067,-2089,-15897,-4355,1,-16,-4
2,339,111072,-2240,-15779,-4376,3,15,-6
2,340,111077,-2370,-15745,-4256,2,58,-9
2,341,111082,-2402,-15741,-3852,3,93,-9
2,342,111087,-2285,-15804,-3439,4,103,-8
2,343,111092,-2150,-15803,-3304,6,93,-10
2,344,111097,-2129,-15756,-3362,8,67,-9
2,345,111102,-2332,-15748,-3377,8,32,-6
2,346,111107,-2505,-15776,-3327,6,-14,1
2,347,111112,-2434,-15856,-3296,7,-51,5
2,348,111117,-2398,-15930,-3366,9,-62,7
2,349,111122,-2438,-15929,-3487,13,-59,10
2,350,111127,-2436,-15954,-3625,10,-63,14
2,351,111132,-2436,-15960,-3843,11,-88,19
2,352,111137,-2438,-15873,-4120,9,-120,23
2,353,111142,-2498,-15714,-4244,13,-133,25
2,354,111147,-2619,-15770,-4185,17,-111,32
2,355,111152,-2775,-15875,-4203,21,-74,33
2,356,111157,-2855,-15767,-4218,24,-34,31
2,357,111162,-2860,-15549,-4147,25,0,34
2,358,111167,-2907,-15553,-3981,25,11,37
2,359,111172,-2859,-15573,-3734,27,9,44
2,360,111177,-2799,-15593,-3670,32,8,48
2,361,111182,-2886,-15600,-3802,39,12,50
2,362,111187,-2958,-15494,-3880,41,25,54
2,363,111192,-3021,-15454,-3617,40,31,56
2,364,111197,-3117,-15459,-3408,44,-14,64
2,365,111202,-3227,-15438,-3636,47,-26,70
2,366,111207,-3169,-15395,-3779,48,-29,74
2,367,111212,-2970,-15423,-3631,45,-45,84
2,368,111217,-2883,-15511,-3313,44,-91,89
2,369,111222,-2989,-15685,-3314,44,-149,94
2,370,111227,-3016,-15826,-3625,48,-170,99
2,371,111232,-2984,-15845,-3712,50,-131,100
2,372,111237,-2972,-15746,-3606,52,-70,103
2,373,111242,-3086,-15578,-3668,54,-33,105
2,374,111247,-3257,-15538,-3919,56,-26,110
2,375,111252,-3292,-15553,-4050,56,-28,117
2,376,111257,-3222,-15635,-3804,51,-17,121
2,377,111262,-3227,-15706,-3485,54,-11,122
2,378,111267,-3349,-15753,-3548,61,-18,128
2,379,111272,-3269,-15784,-3801,61,-13,131
2,380,111277,-3327,-15745,-4049,63,-1,137
2,381,111282,-3559,-15689,-4037,67,5,143
2,382,111287,-3476,-15682,-4151,64,1,148
2,383,111292,-3249,-15700,-4485,64,-1,155
2,384,111297,-3247,-15756,-4468,67,13,156
2,385,111302,-3403,-15780,-4006,64,31,156
2,386,111307,-3547,-15644,-3915,67,49,160
2,387,111312,-3491,-15557,-4056,70,94,163
2,388,111317,-3470,-15524,-3617,69,163,164
2,389,111322,-3561,-15664,-3128,66,198,170
2,390,111327,-3358,-15746,-3061,65,180,174
2,391,111332,-3189,-15631,-2949,59,132,177
2,392,111337,-3340,-15574,-2663,52,69,186
2,393,111342,-3455,-15602,-2804,52,8,198
2,394,111347,-3488,-15710,-3074,51,-19,206
2,395,111352,-3464,-15677,-3284,52,-12,214
2,396,111357,-3419,-15692,-3444,48,13,224
2,397,111362,-3309,-15821,-3513,46,37,230
2,398,111367,-3241,-15920,-3396,41,46,234
2,399,111372,-3249,-15912,-3500,37,36,238
2,400,111377,-3426,-15771,-3642,35,17,245
2,401,111382,-3525,-15722,-3716,32,-5,252
2,402,111387,-3486,-15725,-3822,32,-29,260
2,403,111392,-3481,-15789,-3952,33,-42,262
2,404,111397,-3504,-15774,-4001,33,-38,266
2,405,111402,-3544,-15709,-4042,34,-19,271
2,406,111407,-3685,-15716,-4057,35,5,273
2,407,111412,-3814,-15719,-3946,36,20,276
2,408,111417,-3649,-15629,-3891,34,26,283
2,409,111422,-3574,-15628,-3763,34,24,283
2,410,111427,-3666,-15726,-3629,34,10,287
2,411,111432,-3734,-15691,-3594,36,-18,294
2,412,111437,-3732,-15556,-3731,38,-34,299
2,413,111442,-3728,-15520,-3893,39,-18,300
2,414,111447,-3733,-15580,-3886,39,21,299
2,415,111452,-3669,-15672,-3883,40,64,303
2,416,111457,-3591,-15640,-3815,40,91,304
2,417,111462,-3471,-15637,-3648,39,81,307
2,418,111467,-3468,-15637,-3511,37,46,309
2,419,111472,-3598,-15640,-3487,37,7,312
2,420,111477,-3783,-15628,-3620,43,-16,314
2,421,111482,-3866,-15579,-3822,45,-13,317
2,422,111487,-3860,-15665,-3968,46,6,321
2,423,111492,-3691,-15727,-4008,48,15,325
2,424,111497,-3503,-15780,-4066,45,1,325
2,425,111502,-3573,-15836,-4010,45,-19,324
2,426,111507,-3638,-15799,-3924,49,-34,325
2,427,111512,-3724,-15763,-3926,48,-31,325
2,428,111517,-3720,-15718,-3967,51,-11,324
2,429,111522,-3582,-15690,-3863,54,11,325
2,430,111527,-3561,-15796,-3675,53,28,324
2,431,111532,-3568,-15910,-3658,57,31,325
2,432,111537,-3578,-15916,-3737,56,42,327
2,433,111542,-3676,-15876,-3519,51,59,327
2,434,111547,-3806,-15827,-3235,52,56,327
2,435,111552,-3864,-15733,-3255,53,33,330
2,436,111557,-3697,-15738,-3440,50,3,331
2,437,111562,-3662,-15863,-3371,49,-37,333
2,438,111567,-3715,-15842,-3418,52,-46,331
2,439,111572,-3812,-15776,-3722,54,-37,332
2,440,111577,-3752,-15749,-3958,52,-13,333
2,441,111582,-3593,-15857,-3830,48,9,334
2,442,111587,-3518,-15920,-3782,47,14,329
2,443,111592,-3587,-15859,-3773,46,2,327
2,444,111597,-3608,-15730,-3641,46,-5,330
2,445,111602,-3729,-15639,-3481,49,1,330
2,446,111607,-3835,-15674,-3560,51,10,327
2,447,111612,-3763,-15601,-3550,51,17,331
2,448,111617,-3573,-15601,-3352,52,7,341
2,449,111622,-3471,-15701,-3260,50,-19,337
2,450,111627,-3486,-15802,-3367,52,-49,336
2,451,111632,-3529,-15716,-3499,50,-62,333
2,452,111637,-3603,-15626,-3497,52,-59,337
2,453,111642,-3643,-15690,-3410,52,-50,331
2,454,111647,-3606,-15723,-3348,51,-44,332
2,455,111652,-3556,-15758,-3297,46,-44,335
2,456,111657,-3536,-15840,-3473,49,-45,339
2,457,111662,-3565,-15844,-3763,49,-31,334
2,458,111667,-3661,-15764,-3731,46,-5,328
2,459,111672,-3721,-15810,-3663,44,8,331
2,460,111677,-3644,-15917,-3644,43,14,331
2,461,111682,-3626,-15907,-3535,44,24,328
2,462,111687,-3712,-15812,-3313,46,31,324
2,463,111692,-3870,-15773,-3299,45,25,323
2,464,111697,-3787,-15712,-3474,47,17,326
2,465,111702,-3536,-15626,-3432,48,9,323
2,466,111707,-3498,-15633,-3355,46,-5,319
2,467,111712,-3635,-15686,-3374,45,-29,322
2,468,111717,-3709,-15627,-3425,45,-55,321
2,469,111722,-3660,-15571,-3410,46,-65,320
2,470,111727,-3633,-15589,-3300,48,-56,318
2,471,111732,-3557,-15632,-3330,47,-49,319
2,472,111737,-3468,-15653,-3428,50,-55,317
2,473,111742,-3414,-15663,-3532,47,-65,312
2,474,111747,-3426,-15665,-3597,43,-82,310
2,475,111752,-3471,-15630,-3480,44,-90,307
2,476,111757,-3645,-15646,-3575,47,-92,306
2,477,111762,-3681,-15700,-4007,49,-74,302
2,478,111767,-3585,-15672,-4116,48,-28,298
2,479,111772,-3585,-15663,-3821,46,8,291
2,480,111777,-3641,-15634,-3576,43,19,286
2,481,111782,-3669,-15593,-3371,42,14,283
2,482,111787,-3662,-15638,-3284,47,17,278
2,483,111792,-3528,-15617,-3489,49,30,270
2,484,111797,-3488,-15530,-3378,48,27,269
2,485,111802,-3478,-15497,-3087,45,-17,265
2,486,111807,-3434,-15524,-3156,43,-75,263
2,487,111812,-3464,-15617,-3507,41,-90,263
2,488,111817,-3459,-15624,-3636,41,-59,254
2,489,111822,-3403,-15569,-3528,42,-21,245
2,490,111827,-3377,-15480,-3364,39,-16,240
2,491,111832,-3359,-15428,-3350,35,-42,235
2,492,111837,-3368,-15487,-3449,35,-65,228
2,493,111842,-3361,-15477,-3634,37,-52,220
2,494,111847,-3314,-15482,-3752,38,-21,215
2,495,111852,-3304,-15500,-3585,36,-8,207
2,496,111857,-3205,-15517,-3513,33,-36,200
2,497,111862,-3220,-15567,-3581,34,-75,198
2,498,111867,-3287,-15575,-3747,34,-92,192
2,499,111872,-3222,-15529,-3781,34,-77,182
2,500,111877,-3036,-15481,-3794,34,-43,175
2,501,111882,-2984,-15546,-3749,37,-17,167
2,502,111887,-3025,-15614,-3649,35,-6,158
2,503,111892,-3066,-15672,-3610,33,-5,148
2,504,111897,-2956,-15691,-3681,32,-3,139
2,505,111902,-2901,-15678,-3584,32,8,132
2,506,111907,-2981,-15655,-3376,31,-1,120
2,507,111912,-2939,-15678,-3635,34,-28,113
2,508,111917,-2895,-15661,-3968,33,-38,106
2,509,111922,-2775,-15527,-3929,32,-21,96
2,510,111927,-2780,-15545,-3710,31,0,85
2,511,111932,-2917,-15626,-3657,32,3,63
2,512,111937,-2569,-15478,-3776,32,2,52
2,513,111942,-2459,-15333,-3668,33,3,44
2,514,111947,-2672,-15370,-3350,31,-15,29
2,515,111952,-2642,-15295,-3429,30,-73,23
2,516,111957,-2540,-15284,-3862,30,-114,18
2,517,111962,-2620,-15355,-4197,33,-112,9
2,518,111967,-2636,-15302,-4207,33,-77,-5
2,519,111972,-2613,-15246,-3970,30,-35,-21
2,520,111977,-2633,-15283,-3853,28,-14,-35
2,521,111982,-2619,-15367,-3883,30,-5,-47
2,522,111987,-2500,-15362,-3811,29,12,-61
2,523,111992,-2558,-15367,-3693,30,22,-76
2,524,111997,-2582,-15355,-3593,28,5,-90
2,525,112002,-2535,-15376,-3684,27,-27,-99
2,526,112007,-2531,-15420,-3868,22,-55,-110
2,527,112012,-2528,-15458,-4017,20,-61,-123
2,528,112017,-2396,-15491,-3959,21,-48,-135
2,529,112022,-2227,-15499,-3766,18,-37,-150
2,530,112027,-2180,-15604,-3778,19,-33,-167
2,531,112032,-2168,-15614,-3734,14,-31,-184
2,532,112037,-2194,-15584,-3628,7,-42,-196
2,533,112042,-2244,-15526,-3599,5,-65,-208
2,534,112047,-2277,-15502,-3864,1,-86,-222
2,535,112052,-2228,-15510,-4077,0,-86,-233
2,536,112057,-2175,-15568,-4013,-6,-62,-249
2,537,112062,-2172,-15575,-3919,-7,-43,-262
2,538,112067,-2283,-15520,-4025,-8,-30,-276
2,539,112072,-2288,-15536,-4140,-12,-18,-289
2,540,112077,-2085,-15558,-4059,-20,-10,-300
2,541,112082,-1855,-15609,-3734,-26,-23,-314
2,542,112087,-1841,-15682,-3586,-30,-54,-327
2,543,112092,-1911,-15753,-3943,-31,-78,-342
2,544,112097,-1874,-15660,-4400,-36,-69,-353
2,545,112102,-1842,-15689,-4345,-41,-34,-368
2,546,112107,-1835,-15833,-3906,-47,-20,-381
2,547,112112,-1711,-15814,-3651,-51,-40,-392
2,548,112117,-1616,-15902,-3968,-55,-58,-405
2,549,112122,-1662,-15993,-4305,-57,-47,-418
2,550,112127,-1656,-16040,-4167,-62,-32,-435
2,551,112132,-1613,-16109,-3780,-68,-51,-447
2,552,112137,-1620,-16127,-3736,-77,-98,-457
2,553,112142,-1640,-16053,-4029,-79,-124,-467
2,554,112147,-1608,-16058,-4254,-82,-108,-479
2,555,112152,-1591,-16164,-4423,-82,-86,-490
2,556,112157,-1628,-16213,-4481,-86,-83,-504
2,557,112162,-1743,-16155,-4419,-95,-104,-517
2,558,112167,-1766,-16150,-4422,-102,-131,-526
2,559,112172,-1609,-16228,-4492,-102,-134,-538
2,560,112177,-1429,-16322,-4432,-103,-109,-553
2,561,112182,-1371,-16307,-4197,-109,-87,-566
2,562,112187,-1350,-16242,-4082,-114,-90,-580
2,563,112192,-1344,-16215,-4098,-121,-91,-595
2,564,112197,-1404,-16360,-4197,-127,-74,-607
2,565,112202,-1425,-16462,-4183,-132,-39,-617
2,566,112207,-1352,-16378,-3906,-138,6,-630
2,567,112212,-1292,-16389,-3536,-141,29,-645
2,568,112217,-1261,-16509,-3468,-143,11,-657
2,569,112222,-1200,-16598,-3627,-146,-17,-668
2,570,112227,-1260,-16470,-3589,-153,-51,-677
2,571,112232,-1321,-16607,-3639,-157,-101,-682
2,572,112237,-1252,-16370,-3701,-161,-146,-703
2,573,112242,-1342,-16685,-4170,-163,-176,-697
2,574,112247,-1396,-16821,-4815,-169,-170,-717
2,575,112252,-1505,-16689,-4820,-175,-112,-739
2,576,112257,-1521,-16666,-4772,-179,-64,-747
2,577,112262,-1497,-16837,-4501,-181,-36,-758
2,578,112267,-1584,-17003,-4363,-179,-29,-771
2,579,112272,-1421,-17144,-4432,-176,-23,-782
2,580,112277,-1457,-17194,-4545,-175,1,-798
2,581,112282,-1689,-17206,-4485,-174,31,-815
2,582,112287,-1780,-17214,-4263,-175,50,-822
2,583,112292,-1766,-17272,-4074,-178,52,-831
2,584,112297,-1664,-17221,-3276,-181,25,-851
2,585,112302,-1630,-17094,-3135,-182,-22,-865
2,586,112307,-1635,-16995,-3372,-181,-84,-870
2,587,112312,-1733,-17032,-3554,-188,-153,-873
2,588,112317,-1787,-17109,-3648,-193,-212,-882
2,589,112322,-1813,-17146,-3938,-194,-238,-890
2,590,112327,-1879,-17072,-4235,-197,-215,-901
2,591,112332,-1908,-17043,-4345,-195,-152,-913
2,592,112337,-2005,-17054,-4303,-198,-81,-928
2,593,112342,-2226,-17117,-4105,-201,-26,-938
2,594,112347,-2402,-17154,-4026,-206,-1,-944
2,595,112352,-2278,-17149,-3779,-209,19,-950
2,596,112357,-2060,-17018,-3395,-210,35,-957
2,597,112362,-2172,-17010,-3069,-206,26,-964
2,598,112367,-2357,-16907,-3107,-208,-21,-968
2,599,112372,1923,-3755,-6650,-208,-74,-918
2,600,112377,-19543,933,10377,-246,569,-1154
2,601,112382,10176,-14964,-11593,-82,-152,-220
2,602,112387,901,-14669,840,-148,896,-619
2,603,112392,461,-21043,3427,-160,345,-804
2,604,112397,-751,-16695,361,-140,-1074,-692
2,605,112402,-1335,-16463,-10298,-146,-1456,-659
2,606,112407,-4953,-17622,-11250,-151,-378,-740
2,607,112412,-4286,-16985,-3849,-219,635,-762
2,608,112417,-2980,-15049,-938,-214,709,-782
2,609,112422,-1559,-16417,-3156,-154,312,-736
2,610,112427,-1475,-16833,-4621,-161,157,-752
2,611,112432,-1967,-16551,-2316,-173,266,-759
2,612,112437,-2426,-16407,-772,-160,178,-753
2,613,112442,-2358,-16613,-2940,-152,-115,-740
2,614,112447,-2260,-16370,-5114,-159,-245,-743
2,615,112452,-2788,-16117,-5150,-166,-121,-754
2,616,112457,-3171,-15870,-4118,-164,50,-764
2,617,112462,-2845,-15814,-3976,-151,126,-759
2,618,112467,-2282,-15792,-4237,-143,168,-755
2,619,112472,-1937,-15848,-3655,-141,210,-754
2,620,112477,-1968,-15996,-2892,-143,187,-751
2,621,112482,-2002,-16067,-2932,-138,89,-743
2,622,112487,-1977,-16084,-3337,-131,8,-737
2,623,112492,-1997,-16037,-3533,-125,-17,-726
2,624,112497,-2082,-16012,-3382,-123,-28,-720
2,625,112502,-2116,-15986,-3419,-119,-63,-710
2,626,112507,-2004,-15939,-3820,-117,-90,-701
2,627,112512,-2003,-15976,-4037,-115,-94,-691
2,628,112517,-1992,-16010,-3725,-115,-98,-679
2,629,112522,-1915,-15954,-3509,-108,-115,-668
2,630,112527,-1970,-15955,-3643,-106,-135,-656
2,631,112532,-2045,-15919,-3727,-100,-144,-647
2,632,112537,-2012,-15806,-3638,-95,-138,-634
2,633,112542,-2106,-15816,-3639,-91,-128,-621
2,634,112547,-2049,-15908,-3682,-88,-127,-607
2,635,112552,-1805,-15798,-3822,-85,-130,-597
2,636,112557,-1696,-15809,-4015,-81,-115,-583
2,637,112562,-1674,-15846,-4137,-80,-85,-570
2,638,112567,-1599,-15816,-3994,-81,-57,-559
2,639,112572,-1528,-15715,-3964,-78,-45,-550
2,640,112577,-1464,-15773,-3834,-74,-46,-531
2,641,112582,-1449,-15726,-3743,-74,-51,-518
2,642,112587,-1416,-15682,-3609,-71,-62,-503
2,643,112592,-1464,-15613,-3587,-67,-88,-492
2,644,112597,-1487,-15610,-3806,-61,-109,-476
2,645,112602,-1419,-15562,-3989,-62,-111,-462
2,646,112607,-1241,-15575,-4014,-61,-107,-448
2,647,112612,-1113,-15606,-3848,-58,-108,-430
2,648,112617,-1079,-15504,-3814,-60,-121,-421
2,649,112622,-1080,-15443,-3867,-53,-129,-405
2,650,112627,-1009,-15441,-4010,-46,-119,-390
2,651,112632,-893,-15431,-4052,-45,-100,-379
2,652,112637,-848,-15500,-4070,-44,-95,-366
2,653,112642,-755,-15418,-4157,-43,-98,-360
2,654,112647,-731,-15498,-4211,-41,-83,-344
2,655,112652,-699,-15606,-4482,-35,-61,-325
2,656,112657,-514,-15715,-4601,-37,-35,-315
2,657,112662,-590,-15718,-3985,-38,-39,-305
2,658,112667,-732,-15726,-4103,-34,-70,-292
2,659,112672,-760,-15646,-4233,-25,-68,-280
2,660,112677,-662,-15683,-4325,-21,-49,-270
2,661,112682,-397,-15721,-4387,-20,-40,-258
2,662,112687,-361,-15774,-4167,-19,-48,-249
2,663,112692,-385,-15666,-4109,-22,-73,-246
2,664,112697,-474,-15653,-4229,-20,-78,-238
2,665,112702,-434,-15731,-4560,-16,-51,-229
2,666,112707,-249,-15706,-4213,-15,-4,-224
2,667,112712,-31,-15569,-3908,-14,-26,-222
2,668,112717,74,-15677,-4299,-11,-86,-208
2,669,112722,288,-15678,-4798,-6,-82,-197
2,670,112727,313,-15627,-4609,-9,-15,-197
2,671,112732,229,-15740,-4338,-13,3,-193
2,672,112737,280,-15755,-4201,-13,-28,-186
2,673,112742,229,-15722,-4123,-14,-58,-177
2,674,112747,160,-15833,-4404,-8,-47,-173
2,675,112752,343,-15782,-4245,-4,-3,-168
2,676,112757,358,-15712,-4193,-8,4,-169
2,677,112762,443,-15750,-4381,-2,-24,-163
2,678,112767,675,-15642,-4376,-4,-31,-157
2,679,112772,689,-15647,-4443,-3,-23,-155
2,680,112777,532,-15734,-4599,-1,-15,-152
2,681,112782,569,-15722,-4793,2,-5,-147
2,682,112787,540,-15627,-4656,-1,14,-144
2,683,112792,723,-15527,-4542,0,15,-142
2,684,112797,900,-15543,-4579,3,5,-136
2,685,112802,999,-15614,-4462,5,5,-133
2,686,112807,1080,-15598,-4222,7,-10,-129
2,687,112812,998,-15554,-4453,10,-40,-127
2,688,112817,834,-15457,-4663,11,-54,-126
2,689,112822,852,-15321,-4747,9,-52,-127
2,690,112827,1012,-15349,-4525,10,-45,-121
2,691,112832,1217,-15476,-4470,10,-39,-115
2,692,112837,1333,-15600,-4623,12,-30,-119
2,693,112842,1319,-15655,-4490,11,-23,-122
2,694,112847,1133,-15560,-4416,7,-36,-122
2,695,112852,1038,-15457,-4401,8,-45,-120
2,696,112857,1086,-15449,-4593,5,-40,-116
2,697,112862,1168,-15438,-4530,4,-14,-114
2,698,112867,1396,-15464,-4348,7,0,-110
2,699,112872,1585,-15564,-4491,7,-6,-99
2,700,112877,1460,-15767,-4389,6,-9,-102
2,701,112882,1270,-15795,-4313,5,-12,-105
2,702,112887,1336,-15691,-4331,5,-2,-108
2,703,112892,1222,-15598,-4658,8,11,-104
2,704,112897,1500,-15662,-4867,4,19,-102
2,705,112902,1565,-15515,-4479,-2,10,-101
2,706,112907,1438,-15493,-4212,-7,-29,-101
2,707,112912,1398,-15412,-4373,-5,-63,-94
2,708,112917,1656,-15412,-4567,-2,-61,-85
2,709,112922,1711,-15407,-4642,-2,-28,-87
2,710,112927,1490,-15310,-4597,-2,-9,-88
2,711,112932,1357,-15340,-4542,-8,-21,-81
2,712,112937,1459,-15437,-4601,-10,-38,-75
2,713,112942,1764,-15576,-4499,-13,-31,-75
2,714,112947,2039,-15595,-4298,-12,-9,-75
2,715,112952,2086,-15480,-4346,-9,5,-76
2,716,112957,1886,-15334,-4567,-11,2,-77
2,717,112962,1452,-15145,-4719,-18,-3,-79
2,718,112967,1133,-14973,-4839,-21,-2,-75
2,719,112972,1202,-15027,-4681,-25,12,-65
2,720,112977,1413,-15224,-4356,-26,24,-59
2,721,112982,1598,-15440,-4066,-23,18,-56
2,722,112987,1720,-15483,-4223,-24,-2,-54
2,723,112992,1731,-15519,-4538,-25,-7,-54
2,724,112997,1614,-15453,-4428,-28,3,-54
2,725,113002,1416,-15442,-4288,-35,13,-50
2,726,113007,1348,-15437,-4286,-36,20,-49
2,727,113012,1541,-15484,-4323,-38,38,-48
2,728,113017,1708,-15558,-4165,-38,60,-45
2,729,113022,1682,-15601,-3884,-38,66,-44
2,730,113027,1709,-15619,-3961,-41,35,-41
2,731,113032,1665,-15715,-4671,-44,4,-38
2,732,113037,1577,-15668,-4671,-47,21,-35
2,733,113042,1437,-15664,-4532,-48,33,-35
2,734,113047,1455,-15663,-4558,-45,28,-31
2,735,113052,1551,-15657,-4664,-45,22,-29
2,736,113057,1667,-15616,-4639,-46,25,-28
2,737,113062,1627,-15593,-4533,-44,22,-27
2,738,113067,1620,-15588,-4524,-41,1,-23
2,739,113072,1630,-15498,-4620,-40,-7,-20
2,740,113077,1653,-15483,-4871,-40,10,-22
2,741,113082,1615,-15468,-4756,-37,44,-20
2,742,113087,1666,-15545,-4362,-38,63,-20
2,743,113092,1739,-15590,-4141,-36,52,-17
2,744,113097,1739,-15525,-4299,-34,24,-18
2,745,113102,1788,-15540,-4335,-34,9,-16
2,746,113107,1788,-15615,-4300,-30,1,-16
2,747,113112,1766,-15661,-4365,-29,-10,-13
2,748,113117,1757,-15730,-4461,-27,-12,-12
2,749,113122,1813,-15761,-4632,-26,-5,-13
2,750,113127,1872,-15798,-4802,-25,15,-10
2,751,113132,1900,-15810,-4686,-26,29,-11
2,752,113137,1829,-15817,-4461,-27,15,-9
2,753,113142,1923,-15779,-4503,-21,-15,-10
2,754,113147,2204,-15606,-4824,-18,-21,-11
2,755,113152,1988,-15593,-4914,-17,10,-11
2,756,113157,1610,-15509,-4583,-13,31,-11
2,757,113162,1757,-15432,-4516,-13,19,-9
2,758,113167,1865,-15482,-4480,-8,0,-8
2,759,113172,2054,-15572,-4530,-10,-2,-7
2,760,113177,2155,-15583,-4484,-8,10,-9
2,761,113182,2047,-15589,-4386,-6,20,-14
2,762,113187,1886,-15457,-4363,-4,13,-10
2,763,113192,1863,-15343,-4330,-3,5,-9
2,764,113197,1965,-15369,-4356,-5,10,-11
2,765,113202,2081,-15421,-4292,-3,17,-12
2,766,113207,2003,-15458,-4196,0,11,-14
2,767,113212,1937,-15449,-4227,2,-12,-15
2,768,113217,1878,-15441,-4537,1,-36,-13
2,769,113222,1937,-15451,-4810,2,-31,-13
2,770,113227,2032,-15460,-4959,2,-10,-17
2,771,113232,2006,-15531,-4961,1,3,-21
2,772,113237,1959,-15617,-4790,4,3,-21
2,773,113242,1910,-15552,-4664,7,-5,-22
2,774,113247,1784,-15502,-4691,7,5,-24
2,775,113252,1697,-15564,-4781,12,42,-25
2,776,113257,1862,-15553,-4624,17,81,-27
2,777,113262,1989,-15610,-4364,12,92,-30
2,778,113267,1960,-15693,-4174,12,63,-30
2,779,113272,2049,-15778,-4203,12,20,-29
2,780,113277,2074,-15800,-4363,12,0,-29
2,781,113282,1971,-15751,-4550,15,13,-29
2,782,113287,2029,-15697,-4499,12,28,-30
2,783,113292,2117,-15647,-4351,10,33,-27
2,784,113297,2132,-15675,-4464,9,26,-28
2,785,113302,2199,-15741,-4522,11,22,-30
2,786,113307,2275,-15755,-4395,10,26,-31
2,787,113312,2186,-15740,-4396,9,22,-31
2,788,113317,2065,-15617,-4407,9,0,-35
2,789,113322,1901,-15509,-4491,9,-18,-29
2,790,113327,1888,-15531,-4720,14,-28,-23
2,791,113332,2160,-15622,-4797,14,-19,-21
2,792,113337,2241,-15657,-4682,12,-3,-23
2,793,113342,2048,-15743,-4680,12,-3,-27
2,794,113347,1971,-15661,-4734,10,-7,-26
2,795,113352,1946,-15573,-4692,8,-2,-22
2,796,113357,1941,-15590,-4599,9,17,-23
2,797,113362,2073,-15617,-4604,13,34,-22
2,798,113367,2090,-15654,-4496,14,38,-21
2,799,113372,2091,-15682,-4489,13,28,-22
2,800,113377,2216,-15687,-4566,12,20,-21
2,801,113382,2229,-15654,-4401,8,21,-21
2,802,113387,2181,-15598,-4363,8,17,-20
2,803,113392,2134,-15530,-4336,9,8,-16
2,804,113397,2263,-15495,-4600,10,-3,-13
2,805,113402,2256,-15501,-4602,12,-1,-13
2,806,113407,2229,-15563,-4537,7,-7,-12
2,807,113412,2210,-15490,-4564,9,-12,-12
2,808,113417,2141,-15482,-4744,10,-11,-12
2,809,113422,2092,-15508,-4919,15,-3,-11
2,810,113427,2069,-15491,-4907,15,4,-10
2,811,113432,1909,-15456,-4896,14,7,-14
2,812,113437,1889,-15511,-4996,13,5,-13
2,813,113442,1993,-15588,-5005,14,11,-9
2,814,113447,2051,-15676,-4886,15,30,-16
2,815,113452,1984,-15719,-4756,18,51,-20
2,816,113457,1997,-15739,-4607,21,54,-18
2,817,113462,2027,-15757,-4356,19,53,-17
2,818,113467,2050,-15802,-4264,18,44,-15
2,819,113472,2116,-15837,-4380,18,37,-16
2,820,113477,2186,-15777,-4491,21,33,-17
2,821,113482,2096,-15823,-4430,19,14,-17
2,822,113487,2098,-15795,-4376,15,-9,-18
2,823,113492,2215,-15707,-4501,16,-22,-17
2,824,113497,2148,-15656,-4790,17,-11,-20
2,825,113502,2131,-15548,-4824,20,8,-19
2,826,113507,2135,-15511,-4633,17,10,-23
2,827,113512,2102,-15531,-4640,17,-14,-21
2,828,113517,2083,-15517,-4769,18,-27,-19
2,829,113522,2042,-15553,-4818,17,-17,-23
2,830,113527,1941,-15622,-4736,16,2,-21
2,831,113532,1911,-15626,-4580,16,1,-21
2,832,113537,1959,-15584,-4639,17,-11,-23
2,833,113542,2012,-15629,-4711,15,-14,-23
2,834,113547,1971,-15648,-4668,16,-2,-24
2,835,113552,1967,-15673,-4573,16,9,-23
2,836,113557,2003,-15739,-4589,15,1,-27
2,837,113562,2009,-15826,-4579,15,-5,-26
2,838,113567,2020,-15800,-4510,16,-1,-28
2,839,113572,2108,-15741,-4484,14,7,-28
2,840,113577,2173,-15710,-4494,13,13,-27
2,841,113582,2207,-15669,-4466,12,7,-26
2,842,113587,2145,-15609,-4372,8,-6,-29
2,843,113592,2111,-15506,-4499,7,-16,-28
2,844,113597,2085,-15420,-4605,6,-14,-27
2,845,113602,2089,-15435,-4550,7,-6,-26
2,846,113607,2145,-15410,-4427,6,-12,-28
2,847,113612,2130,-15429,-4565,7,-25,-27
2,848,113617,2118,-15485,-4808,7,-25,-25
2,849,113622,2061,-15487,-4805,5,2,-26
2,850,113627,1905,-15528,-4616,4,27,-32
2,851,113632,1895,-15518,-4610,5,30,-31
2,852,113637,2081,-15669,-4719,6,20,-27
2,853,113642,2113,-15745,-4512,3,14,-27
2,854,113647,2079,-15769,-4263,1,5,-25
2,855,113652,2095,-15785,-4331,3,-6,-25
2,856,113657,2174,-15809,-4542,3,-5,-27
2,857,113662,2170,-15847,-4440,-1,1,-30
2,858,113667,2114,-15830,-4361,1,-4,-24
2,859,113672,2129,-15844,-4483,2,-11,-21
2,860,113677,2280,-15766,-4591,-1,-7,-25
2,861,113682,2220,-15685,-4517,0,8,-27
2,862,113687,2039,-15655,-4392,1,10,-28
2,863,113692,2129,-15528,-4532,4,-4,-24
2,864,113697,2201,-15488,-4796,1,-13,-22
2,865,113702,2144,-15545,-4724,0,-10,-20
2,866,113707,2120,-15547,-4628,-2,-16,-21
2,867,113712,2115,-15507,-4702,-1,-30,-24
2,868,113717,2044,-15523,-4861,2,-31,-22
2,869,113722,2022,-15514,-4938,2,-13,-21
2,870,113727,2024,-15541,-4818,3,7,-21
2,871,113732,2063,-15546,-4617,4,20,-22
2,872,113737,2168,-15599,-4449,3,18,-21
2,873,113742,2229,-15652,-4523,5,17,-19
2,874,113747,2140,-15668,-4387,4,29,-22
2,875,113752,2085,-15662,-4205,8,35,-20
2,876,113757,2185,-15688,-4218,9,26,-17
2,877,113762,2157,-15665,-4237,5,-4,-12
2,878,113767,2017,-15694,-4251,5,-16,-13
2,879,113772,2091,-15670,-4435,4,-20,-12
2,880,113777,2159,-15611,-4598,4,-6,-10
2,881,113782,2110,-15652,-4596,2,16,-10
2,882,113787,2025,-15593,-4469,2,26,-11
2,883,113792,2064,-15577,-4497,2,24,-10
2,884,113797,2085,-15619,-4458,0,20,-10
2,885,113802,2129,-15650,-4328,-2,15,-12
2,886,113807,2065,-15613,-4194,2,-2,-9
2,887,113812,2092,-15606,-4351,5,-29,-6
2,888,113817,2063,-15628,-4749,8,-40,-4
2,889,113822,2010,-15638,-5011,8,-19,-2
2,890,113827,1967,-15622,-4830,3,18,-6
2,891,113832,2047,-15638,-4479,4,38,-8
2,892,113837,2118,-15636,-4336,7,39,-7
2,893,113842,2127,-15680,-4350,8,32,-5
2,894,113847,2018,-15643,-4346,7,23,-7
2,895,113852,1965,-15627,-4244,6,19,-3
2,896,113857,2072,-15627,-4308,7,6,2
2,897,113862,2344,-15717,-4476,8,0,4
2,898,113867,2463,-15765,-4506,8,6,6
2,899,113872,2348,-15710,-4364,5,8,2
2,900,113877,2165,-15606,-4333,5,1,2
2,901,113882,2013,-15620,-4466,8,-2,4
2,902,113887,2038,-15648,-4360,5,6,7
2,903,113892,2196,-15639,-4136,4,15,9
2,904,113897,2254,-15661,-4145,5,10,8
2,905,113902,2235,-15643,-4343,10,-11,9
2,906,113907,2135,-15650,-4553,6,-21,7
2,907,113912,2040,-15546,-4651,5,-17,6
2,908,113917,1958,-15569,-4800,6,0,6
2,909,113922,1973,-15626,-4749,7,23,7
2,910,113927,2073,-15657,-4583,6,41,4
2,911,113932,2101,-15638,-4354,8,44,2
2,912,113937,2051,-15603,-4370,9,38,3
2,913,113942,2029,-15609,-4495,10,33,2
2,914,113947,2037,-15634,-4532,11,32,6
2,915,113952,2094,-15692,-4447,10,28,5
2,916,113957,2221,-15739,-4313,11,25,1
2,917,113962,2245,-15744,-4335,12,25,-1
2,918,113967,2168,-15686,-4346,11,36,-5
2,919,113972,2163,-15614,-4398,11,44,-3
2,920,113977,2275,-15602,-4290,10,38,-3
2,921,113982,2321,-15685,-4204,3,16,-7
2,922,113987,2304,-15659,-4179,6,-15,-4
2,923,113992,2286,-15599,-4464,8,-37,-2
2,924,113997,2179,-15613,-4638,12,-34,-3
2,925,114002,2157,-15621,-4633,11,-16,1
2,926,114007,2240,-15642,-4462,9,-6,1
2,927,114012,2261,-15709,-4423,13,-3,-1
2,928,114017,2203,-15641,-4583,12,4,-4
2,929,114022,2062,-15669,-4594,10,17,-7
2,930,114027,2065,-15661,-4423,12,12,-5
2,931,114032,2136,-15751,-4356,15,-12,-3
2,932,114037,2206,-15861,-4496,13,-36,-2
2,933,114042,2265,-15845,-4762,16,-38,-3
2,934,114047,2252,-15851,-4797,17,-14,-5
2,935,114052,2171,-15836,-4780,17,12,-6
2,936,114057,2182,-15792,-4739,14,27,-8
2,937,114062,2184,-15739,-4645,15,34,-10
2,938,114067,2195,-15653,-4465,14,36,-11
2,939,114072,2246,-15635,-4277,18,29,-9
2,940,114077,2372,-15642,-4257,16,7,-4
2,941,114082,2510,-15616,-4216,16,-17,-3
2,942,114087,2398,-15657,-4384,16,-41,-3
2,943,114092,2324,-15588,-4661,13,-52,-2
2,944,114097,2253,-15531,-4773,15,-39,2
2,945,114102,2208,-15552,-4673,15,-15,2
2,946,114107,2189,-15575,-4548,11,1,0
2,947,114112,2274,-15599,-4492,14,3,-2
2,948,114117,2298,-15688,-4590,16,6,-5
2,949,114122,2242,-15753,-4799,17,11,-8
2,950,114127,2090,-15543,-4392,14,13,-6
2,951,114132,2166,-15543,-4354,13,2,-5
2,952,114137,2288,-15620,-4514,15,4,-1
2,953,114142,2411,-15671,-4432,12,20,-3
2,954,114147,2437,-15719,-4265,13,23,-4
2,955,114152,2376,-15764,-4291,10,3,-6
2,956,114157,2252,-15796,-4400,10,-13,-5
2,957,114162,2178,-15672,-4459,10,-11,-6
2,958,114167,2197,-15600,-4529,8,0,-6
2,959,114172,2258,-15580,-4622,11,-2,0
2,960,114177,2291,-15616,-4666,9,-11,3
2,961,114182,2317,-15669,-4742,8,-19,3
2,962,114187,2305,-15748,-4760,7,-15,2
2,963,114192,2249,-15737,-4679,5,4,-1
2,964,114197,2105,-15715,-4509,9,20,-4
2,965,114202,2103,-15634,-4423,10,20,-2
2,966,114207,2159,-15693,-4446,12,7,-2
2,967,114212,2187,-15751,-4408,8,-2,-4
2,968,114217,2253,-15785,-4322,4,-6,-5
2,969,114222,2405,-15735,-4241,3,-2,-3
2,970,114227,2317,-15664,-4246,3,4,-7
2,971,114232,2078,-15579,-4274,1,3,-9
2,972,114237,1990,-15501,-4403,2,-6,-3
2,973,114242,2013,-15500,-4517,1,-11,-1
2,974,114247,2171,-15516,-4614,-2,-10,-1
2,975,114252,2339,-15617,-4604,-2,-12,2
2,976,114257,2391,-15683,-4554,-4,-18,1
2,977,114262,2357,-15637,-4674,-4,-24,-2
2,978,114267,2246,-15582,-4846,-3,-11,-6
2,979,114272,2128,-15489,-4904,-4,8,-7
2,980,114277,2084,-15472,-4743,-7,29,-7
2,981,114282,2155,-15469,-4587,-7,26,-6
2,982,114287,2324,-15613,-4501,-5,7,-3
2,983,114292,2405,-15731,-4491,-5,-5,-4
2,984,114297,2393,-15713,-4481,-2,-7,-4
2,985,114302,2297,-15770,-4519,-2,3,-3
2,986,114307,2177,-15769,-4563,-5,8,-5
2,987,114312,2196,-15670,-4580,-4,5,-2
2,988,114317,2266,-15652,-4567,-3,6,-2
2,989,114322,2320,-15745,-4457,-4,7,-1
2,990,114327,2317,-15767,-4336,-1,7,-3
2,991,114332,2307,-15758,-4397,-5,6,-2
2,992,114337,2299,-15660,-4585,-7,9,-2
2,993,114342,2248,-15597,-4611,-4,14,-1
2,994,114347,2304,-15565,-4536,-9,18,-2
2,995,114352,2394,-15579,-4543,-7,10,0
2,996,114357,2448,-15574,-4584,-8,4,-1
2,997,114362,2381,-15525,-4490,-6,4,-3
2,998,114367,2211,-15506,-4459,-7,-2,0
2,999,114372,2200,-15502,-4544,-8,-9,-2
