event_id,seq,ts_ms,ax,ay,az,gx,gy,gz
9,0,533103,656,-16283,3173,-9,-218,-7
9,1,533108,560,-16314,2984,-7,-232,-9
9,2,533113,418,-16294,2735,-9,-231,-8
9,3,533118,468,-16309,2519,-7,-213,-8
9,4,533123,499,-16327,2530,-7,-172,-13
9,5,533128,422,-16338,2414,-5,-126,-18
9,6,533133,328,-16414,2344,-5,-70,-24
9,7,533138,403,-16490,2376,-1,-17,-25
9,8,533143,563,-16463,2474,2,27,-28
9,9,533148,547,-16378,2631,3,50,-37
9,10,533153,492,-16376,2830,3,57,-38
9,11,533158,493,-16353,2885,3,57,-37
9,12,533163,506,-16358,3068,5,61,-37
9,13,533168,497,-16328,3306,4,58,-37
9,14,533173,481,-16278,3545,6,44,-39
9,15,533178,470,-16223,3519,8,12,-41
9,16,533183,447,-16272,3449,12,-34,-37
9,17,533188,529,-16300,3540,10,-76,-35
9,18,533193,593,-16357,3499,9,-118,-32
9,19,533198,539,-16357,3393,12,-148,-34
9,20,533203,349,-16354,3115,14,-175,-34
9,21,533208,294,-16385,3045,12,-181,-36
9,22,533213,366,-16443,2860,13,-182,-37
9,23,533218,599,-16405,2792,19,-171,-34
9,24,533223,735,-16413,2618,22,-153,-37
9,25,533228,621,-16419,2676,21,-132,-44
9,26,533233,393,-16429,2606,25,-113,-41
9,27,533238,427,-16474,2557,30,-93,-43
9,28,533243,500,-16474,2440,33,-59,-45
9,29,533248,523,-16471,2606,36,-12,-51
9,30,533253,521,-16380,2857,42,18,-55
9,31,533258,564,-16331,3114,42,29,-54
9,32,533263,555,-16335,3243,48,28,-58
9,33,533268,434,-16353,3372,53,18,-62
9,34,533273,293,-16447,3418,60,-1,-65
9,35,533278,313,-16468,3412,67,-44,-62
9,36,533283,465,-16345,3469,68,-102,-64
9,37,533288,511,-16320,3767,73,-179,-61
9,38,533293,344,-16408,3782,82,-261,-59
9,39,533298,330,-16494,3375,100,-330,-54
9,40,533303,461,-16503,3048,103,-355,-60
9,41,533308,668,-16428,3249,107,-361,-61
9,42,533313,845,-16294,3442,114,-378,-65
9,43,533318,933,-16291,3159,123,-410,-62
9,44,533323,938,-16255,2646,131,-407,-62
9,45,533328,948,-16208,2538,138,-354,-70
9,46,533333,902,-16122,2778,145,-285,-72
9,47,533338,954,-16105,2855,158,-228,-77
9,48,533343,971,-16216,2692,171,-176,-82
9,49,533348,882,-16318,2629,183,-117,-88
9,50,533353,846,-16323,2871,196,-60,-96
9,51,533358,1035,-16194,3050,206,-20,-95
9,52,533363,1218,-16056,3202,218,13,-98
9,53,533368,1054,-16105,3445,229,33,-105
9,54,533373,734,-16217,3578,246,27,-106
9,55,533378,732,-16254,3450,265,10,-109
9,56,533383,1014,-16154,3466,277,0,-109
9,57,533388,1188,-15994,3865,287,-15,-114
9,58,533393,1179,-15933,4230,303,-59,-115
9,59,533398,1058,-15919,4120,323,-120,-110
9,60,533403,953,-15964,3831,336,-159,-109
9,61,533408,894,-15916,3792,351,-158,-111
9,62,533413,967,-15916,3954,363,-138,-115
9,63,533418,1159,-15948,4012,376,-124,-121
9,64,533423,1299,-16020,3986,391,-113,-121
9,65,533428,1249,-16121,3966,409,-95,-122
9,66,533433,1113,-16181,3867,424,-68,-120
9,67,533438,992,-16311,3877,439,-27,-125
9,68,533443,854,-16376,4084,452,24,-134
9,69,533448,914,-16430,4352,469,61,-135
9,70,533453,1142,-16306,4856,497,72,-140
9,71,533458,1206,-16176,5048,513,43,-140
9,72,533463,1086,-16176,5252,528,-4,-139
9,73,533468,1026,-16238,5293,543,-59,-138
9,74,533473,999,-16277,5264,557,-100,-133
9,75,533478,954,-16340,5216,572,-127,-135
9,76,533483,863,-16378,5250,590,-147,-139
9,77,533488,900,-16509,5142,605,-170,-139
9,78,533493,1116,-16506,5002,622,-185,-138
9,79,533498,1417,-16477,4772,637,-184,-135
9,80,533503,1564,-16381,4690,648,-159,-138
9,81,533508,1499,-16351,4765,662,-127,-140
9,82,533513,1356,-16346,4648,678,-91,-142
9,83,533518,1327,-16361,4521,688,-40,-145
9,84,533523,1411,-16269,4466,707,32,-147
9,85,533528,1413,-16172,4790,721,114,-154
9,86,533533,1233,-16125,5301,736,173,-154
9,87,533538,1126,-15926,5551,746,193,-157
9,88,533543,1184,-15883,5588,761,199,-156
9,89,533548,1139,-15826,5811,771,207,-158
9,90,533553,1090,-15857,6344,782,196,-157
9,91,533558,822,-15983,6772,799,151,-155
9,92,533563,670,-15902,6690,814,76,-156
9,93,533568,709,-15881,6495,826,0,-155
9,94,533573,895,-15788,6642,834,-60,-157
9,95,533578,1007,-15772,6916,849,-132,-153
9,96,533583,1095,-15775,6703,862,-213,-153
9,97,533588,1274,-15808,6168,874,-268,-148
9,98,533593,1217,-15911,5961,885,-266,-148
9,99,533598,1196,-15776,5878,891,-230,-158
9,100,533603,1228,-15790,6044,899,-174,-159
9,101,533608,1190,-15822,5960,909,-118,-169
9,102,533613,1132,-15773,5866,921,-63,-180
9,103,533618,1150,-15811,6008,929,1,-181
9,104,533623,1105,-15719,6484,935,45,-187
9,105,533628,1158,-15625,7154,941,58,-192
9,106,533633,1140,-15686,7361,955,29,-190
9,107,533638,1124,-15616,7289,967,-14,-192
9,108,533643,1111,-15582,7482,977,-63,-195
9,109,533648,1143,-15551,7941,984,-144,-196
9,110,533653,1209,-15537,8089,998,-255,-187
9,111,533658,1418,-15516,7682,1009,-364,-184
9,112,533663,1503,-15508,7230,1020,-418,-184
9,113,533668,1494,-15350,7210,1021,-433,-193
9,114,533673,1598,-15136,7308,1025,-446,-199
9,115,533678,1737,-15120,7195,1032,-447,-196
9,116,533683,1776,-15179,6773,1043,-421,-206
9,117,533688,1675,-15036,6550,1050,-349,-219
9,118,533693,1815,-14843,6658,1055,-260,-225
9,119,533698,1853,-14820,7048,1055,-180,-229
9,120,533703,1855,-14856,6985,1062,-133,-239
9,121,533708,1921,-14943,7224,1075,-80,-228
9,122,533713,1964,-14946,7113,1082,-45,-256
9,123,533718,1818,-14794,7540,1083,11,-276
9,124,533723,1773,-14737,7930,1091,19,-262
9,125,533728,2076,-14454,8248,1094,-7,-265
9,126,533733,2281,-14459,8389,1103,-36,-254
9,127,533738,2125,-14388,8341,1109,-69,-259
9,128,533743,1911,-14238,8457,1110,-101,-260
9,129,533748,1800,-14157,8606,1115,-133,-258
9,130,533753,2172,-14028,8565,1114,-167,-258
9,131,533758,2468,-14084,8552,1115,-178,-262
9,132,533763,2272,-14046,8708,1115,-171,-277
9,133,533768,1929,-14024,8845,1117,-180,-283
9,134,533773,1756,-14019,8772,1116,-189,-279
9,135,533778,2085,-14087,8523,1113,-187,-273
9,136,533783,2287,-14185,8675,1111,-153,-281
9,137,533788,2203,-14282,8954,1107,-126,-292
9,138,533793,2104,-14321,8873,1106,-130,-296
9,139,533798,1904,-14281,8841,1104,-130,-297
9,140,533803,1697,-14451,8607,1097,-138,-294
9,141,533808,1715,-14680,8937,1093,-84,-310
9,142,533813,1718,-14634,9013,1096,-58,-320
9,143,533818,2344,-14586,8916,1101,-107,-312
9,144,533823,2451,-14357,9187,1081,-172,-324
9,145,533828,2246,-14330,9007,1084,-178,-314
9,146,533833,2239,-14335,8588,1083,-158,-315
9,147,533838,2323,-14273,8564,1074,-95,-326
9,148,533843,2449,-14067,9018,1062,-23,-338
9,149,533848,2752,-13848,9274,1052,5,-340
9,150,533853,3076,-13700,9148,1052,20,-330
9,151,533858,3094,-13661,9053,1041,56,-326
9,152,533863,2483,-13656,9408,1028,110,-336
9,153,533868,2064,-13732,9626,1027,129,-333
9,154,533873,2361,-13624,9306,1025,129,-322
9,155,533878,2841,-13548,9306,1015,164,-323
9,156,533883,2724,-13392,10078,1001,193,-333
9,157,533888,2328,-13338,10527,987,142,-329
9,158,533893,2108,-13353,10084,981,65,-311
9,159,533898,2058,-13527,9861,972,44,-301
9,160,533903,2145,-13489,10159,959,46,-309
9,161,533908,2343,-13526,10492,948,34,-310
9,162,533913,2487,-13448,10596,934,-8,-310
9,163,533918,2496,-13381,10406,921,-69,-299
9,164,533923,2323,-13486,10376,905,-105,-291
9,165,533928,1869,-13473,10397,896,-122,-293
9,166,533933,1834,-13614,10309,883,-125,-289
9,167,533938,2362,-13508,10019,877,-108,-286
9,168,533943,2881,-13409,10130,864,-87,-287
9,169,533948,2997,-13154,10554,843,-110,-288
9,170,533953,2506,-13059,10605,823,-144,-278
9,171,533958,2364,-13010,9968,816,-167,-266
9,172,533963,2657,-13015,9499,811,-102,-257
9,173,533968,3001,-12877,9748,790,5,-272
9,174,533973,3011,-12668,10558,771,54,-275
9,175,533978,2817,-12577,10701,765,24,-260
9,176,533983,2791,-12463,9995,758,-5,-244
9,177,533988,2858,-12363,9796,737,57,-242
9,178,533993,2601,-12234,10729,720,148,-246
9,179,533998,2581,-12148,11332,711,132,-238
9,180,534003,2788,-11984,11092,700,62,-226
9,181,534008,2941,-11884,10680,688,17,-217
9,182,534013,2836,-11703,10882,665,14,-215
9,183,534018,2655,-11572,11297,647,5,-211
9,184,534023,2659,-11636,11042,638,-42,-195
9,185,534028,2630,-11690,10496,627,-58,-180
9,186,534033,2612,-11714,10389,608,-29,-180
9,187,534038,2678,-11603,10671,591,5,-178
9,188,534043,2862,-11431,10686,576,27,-171
9,189,534048,2880,-11392,10581,561,54,-167
9,190,534053,2704,-11390,10627,542,87,-167
9,191,534058,2376,-11461,10825,529,110,-162
9,192,534063,2564,-11446,10765,524,112,-151
9,193,534068,2990,-11441,10752,511,116,-142
9,194,534073,3222,-11214,10933,494,118,-141
9,195,534078,3004,-11032,11142,474,93,-132
9,196,534083,2710,-11030,10838,461,60,-117
9,197,534088,2528,-11149,10422,449,65,-107
9,198,534093,2542,-11269,10512,434,126,-104
9,199,534098,2606,-11248,11000,418,185,-105
9,200,534103,2837,-11020,11367,405,189,-100
9,201,534108,2790,-10878,11458,391,148,-93
9,202,534113,2634,-10839,11456,372,94,-81
9,203,534118,2564,-10739,11495,350,51,-72
9,204,534123,2639,-10679,11394,336,25,-64
9,205,534128,2757,-10670,11195,322,16,-60
9,206,534133,2797,-10721,11108,306,17,-58
9,207,534138,2621,-10662,11085,288,22,-49
9,208,534143,2573,-10626,11023,272,34,-41
9,209,534148,2367,-10692,10953,257,70,-39
9,210,534153,2372,-10753,10962,240,120,-38
9,211,534158,2407,-10780,11212,221,152,-38
9,212,534163,2478,-10731,11614,200,150,-39
9,213,534168,2457,-10709,11894,185,117,-33
9,214,534173,2521,-10704,11838,170,74,-23
9,215,534178,2691,-10717,11585,156,39,-12
9,216,534183,2746,-10722,11592,136,10,-6
9,217,534188,2456,-10793,11594,101,-81,10
9,218,534193,2710,-10835,11036,86,-94,19
9,219,534198,2974,-10846,10890,64,-42,17
9,220,534203,2789,-10732,11372,42,16,10
9,221,534208,2477,-10566,11692,26,16,13
9,222,534213,2287,-10482,11535,7,-6,24
9,223,534218,2258,-10542,11513,-14,9,26
9,224,534223,2516,-10581,11748,-31,45,28
9,225,534228,2863,-10579,11957,-44,42,29
9,226,534233,2776,-10620,12030,-62,-5,36
9,227,534238,2457,-10680,11778,-77,-80,45
9,228,534243,2395,-10769,11424,-94,-116,57
9,229,534248,2506,-10827,11187,-115,-95,57
9,230,534253,2819,-10771,11316,-132,-51,51
9,231,534258,2861,-10655,11511,-148,-37,54
9,232,534263,2795,-10622,11449,-166,-56,61
9,233,534268,2738,-10547,11144,-184,-59,68
9,234,534273,2743,-10542,11161,-208,-16,69
9,235,534278,2812,-10587,11463,-228,35,66
9,236,534283,3049,-10514,11716,-242,48,65
9,237,534288,3020,-10462,11885,-263,28,69
9,238,534293,2567,-10533,12044,-281,-5,75
9,239,534298,2209,-10695,11980,-292,-43,86
9,240,534303,2381,-10864,11687,-307,-65,91
9,241,534308,2719,-10823,11608,-324,-64,89
9,242,534313,2800,-10719,11931,-346,-84,88
9,243,534318,2597,-10624,12089,-363,-156,93
9,244,534323,2443,-10673,11633,-377,-229,109
9,245,534328,2625,-10832,11185,-397,-233,116
9,246,534333,2890,-10917,11341,-425,-191,111
9,247,534338,3046,-10973,11688,-443,-175,111
9,248,534343,3150,-10959,11642,-456,-204,118
9,249,534348,3274,-10934,11154,-473,-238,130
9,250,534353,3413,-10893,10863,-493,-219,136
9,251,534358,3304,-10863,10990,-521,-166,142
9,252,534363,2939,-10977,11181,-542,-122,143
9,253,534368,2683,-11206,10989,-558,-100,143
9,254,534373,2435,-11584,10814,-572,-62,150
9,255,534378,2373,-11900,10927,-586,-12,147
9,256,534383,2679,-12036,11136,-600,4,148
9,257,534388,2826,-12026,11197,-618,-23,150
9,258,534393,2589,-11935,11326,-634,-86,154
9,259,534398,2337,-11929,11234,-651,-166,166
9,260,534403,2320,-11933,10919,-667,-216,175
9,261,534408,2607,-12006,10693,-680,-224,179
9,262,534413,2762,-11908,11016,-702,-210,172
9,263,534418,2702,-11841,11142,-720,-245,180
9,264,534423,2762,-11889,10789,-733,-301,194
9,265,534428,2847,-11795,10447,-753,-307,199
9,266,534433,2852,-11758,10439,-775,-263,196
9,267,534438,2666,-11862,10827,-794,-222,198
9,268,534443,2570,-12059,10864,-807,-215,209
9,269,534448,2708,-12257,10434,-816,-217,210
9,270,534453,3038,-12264,10181,-832,-194,213
9,271,534458,3184,-12181,10408,-851,-167,216
9,272,534463,3132,-12204,10556,-863,-176,223
9,273,534468,2925,-12255,10307,-873,-208,236
9,274,534473,2773,-12306,9805,-883,-224,245
9,275,534478,2694,-12405,9757,-904,-185,247
9,276,534483,3018,-12338,9973,-921,-146,242
9,277,534488,3332,-12259,10138,-926,-148,253
9,278,534493,3435,-12361,9881,-939,-178,262
9,279,534498,2935,-12339,9758,-955,-191,259
9,280,534503,2537,-12566,9556,-961,-210,268
9,281,534508,2243,-12574,9628,-973,-205,270
9,282,534513,2468,-12624,9440,-984,-202,280
9,283,534518,2783,-12579,9486,-991,-179,277
9,284,534523,2890,-12591,9603,-1001,-167,278
9,285,534528,2709,-12497,9761,-1013,-183,273
9,286,534533,2495,-12470,9639,-1019,-232,284
9,287,534538,2691,-12526,9099,-1023,-262,302
9,288,534543,2991,-12532,8828,-1032,-225,302
9,289,534548,3115,-12476,8903,-1043,-171,292
9,290,534553,2845,-12654,9010,-1052,-201,306
9,291,534558,3068,-12940,8322,-1052,-218,319
9,292,534563,3367,-13092,7888,-1059,-148,317
9,293,534568,3380,-13004,8144,-1069,-43,307
9,294,534573,3140,-12926,8385,-1075,1,304
9,295,534578,3014,-12933,8229,-1078,1,316
9,296,534583,3020,-13027,7851,-1080,27,319
9,297,534588,2996,-13204,7953,-1083,91,312
9,298,534593,2853,-13234,8234,-1084,137,305
9,299,534598,2461,-13228,8519,-1083,159,302
9,300,534603,2627,-13300,8208,-1081,156,315
9,301,534608,2805,-13643,7704,-1083,166,305
9,302,534613,2784,-13380,7914,-1094,203,273
9,303,534618,2213,-13592,8673,-1081,216,290
9,304,534623,2139,-13611,8547,-1083,137,298
9,305,534628,2436,-13650,8143,-1077,89,302
9,306,534633,2593,-13766,7991,-1075,94,298
9,307,534638,2818,-13713,8034,-1074,87,287
9,308,534643,2824,-13763,8071,-1070,58,293
9,309,534648,2592,-13822,7802,-1070,15,296
9,310,534653,2424,-13938,7259,-1068,-4,297
9,311,534658,2220,-14142,7042,-1067,52,291
9,312,534663,2425,-14407,6998,-1064,133,278
9,313,534668,2698,-14220,7159,-1055,216,266
9,314,534673,2985,-14618,7107,-1049,256,278
9,315,534678,3028,-14245,6746,-1058,252,249
9,316,534683,2299,-14339,7388,-1058,294,251
9,317,534688,1665,-14630,7219,-1036,310,267
9,318,534693,1786,-15085,6718,-1019,342,274
9,319,534698,2370,-15311,6455,-1007,414,254
9,320,534703,2496,-15066,7602,-1014,464,221
9,321,534708,2356,-14710,8520,-1014,363,223
9,322,534713,2204,-14668,8236,-997,179,248
9,323,534718,2330,-14826,6921,-981,50,266
9,324,534723,2400,-14948,6350,-973,73,259
9,325,534728,2323,-14706,6887,-978,145,233
9,326,534733,2185,-14451,7450,-977,158,230
9,327,534738,2404,-14360,6937,-963,101,255
9,328,534743,2756,-14565,6137,-958,96,265
9,329,534748,2787,-14405,6203,-966,192,235
9,330,534753,2124,-14453,7274,-969,305,230
9,331,534758,1531,-14890,7534,-955,320,240
9,332,534763,1563,-15532,6704,-939,310,245
9,333,534768,1904,-16090,5949,-928,361,241
9,334,534773,1790,-16310,6430,-925,422,224
9,335,534778,1333,-16261,7291,-921,401,211
9,336,534783,1031,-16415,7037,-909,304,221
9,337,534788,1070,-16659,6112,-899,219,224
9,338,534793,1167,-16760,6031,-891,207,215
9,339,534798,1252,-16627,6650,-887,187,207
9,340,534803,1441,-16493,6815,-877,114,210
9,341,534808,1651,-16431,6115,-865,29,217
9,342,534813,1764,-16405,5328,-856,-12,225
9,343,534818,1733,-16249,5260,-853,27,222
9,344,534823,1679,-15979,5560,-855,78,217
9,345,534828,1526,-15864,5649,-855,112,224
9,346,534833,1369,-15916,5515,-846,169,225
9,347,534838,1213,-16132,5600,-837,256,217
9,348,534843,1110,-16295,5956,-830,322,210
9,349,534848,1242,-16438,6357,-824,340,209
9,350,534853,1227,-16649,6514,-818,303,207
9,351,534858,918,-16963,6291,-809,238,208
9,352,534863,500,-17287,5898,-799,174,208
9,353,534868,385,-17493,5589,-790,125,213
9,354,534873,538,-17555,5326,-775,92,210
9,355,534878,814,-17508,5063,-766,48,202
9,356,534883,827,-17286,5028,-760,-8,197
9,357,534888,663,-17099,4946,-751,-63,202
9,358,534893,718,-16979,4667,-743,-98,205
9,359,534898,1080,-16891,4290,-731,-90,206
9,360,534903,1342,-16851,4206,-715,-47,203
9,361,534908,1418,-16792,4348,-707,-9,201
9,362,534913,1356,-16602,4530,-704,4,200
9,363,534918,1340,-16308,4361,-689,66,206
9,364,534923,1310,-16227,4534,-679,128,206
9,365,534928,1123,-16206,4850,-669,181,204
9,366,534933,1011,-16245,4989,-659,201,207
9,367,534938,1025,-16396,4947,-655,197,206
9,368,534943,1059,-16581,4883,-646,186,205
9,369,534948,904,-16749,4862,-632,172,205
9,370,534953,692,-16839,4722,-618,145,202
9,371,534958,535,-16871,4440,-608,103,201
9,372,534963,370,-16855,4387,-602,58,202
9,373,534968,282,-16730,4459,-597,13,201
9,374,534973,324,-16694,4472,-588,-12,199
9,375,534978,343,-16620,4363,-572,-24,199
9,376,534983,248,-16575,4411,-563,-28,193
9,377,534988,337,-16451,4461,-556,-47,188
9,378,534993,647,-16374,4409,-547,-82,190
9,379,534998,1009,-16241,4165,-540,-108,195
9,380,535003,1081,-16096,4051,-531,-108,196
9,381,535008,941,-16008,4009,-524,-89,195
9,382,535013,683,-15986,3979,-521,-61,193
9,383,535018,610,-16038,3922,-513,-23,195
9,384,535023,674,-16235,3846,-502,24,193
9,385,535028,737,-16456,3944,-492,62,189
9,386,535033,899,-16473,3937,-478,67,184
9,387,535038,934,-16425,3874,-473,36,186
9,388,535043,897,-16449,3704,-467,-19,185
9,389,535048,600,-16562,3404,-454,-69,187
9,390,535053,201,-16731,2979,-441,-94,189
9,391,535058,-76,-16847,2727,-428,-82,179
9,392,535063,132,-16888,2637,-413,-43,175
9,393,535068,500,-16744,2692,-401,-4,172
9,394,535073,611,-16514,2916,-392,20,164
9,395,535078,375,-16361,2972,-383,25,158
9,396,535083,229,-16214,2914,-373,36,160
9,397,535088,379,-16170,2852,-361,62,158
9,398,535093,731,-16049,3034,-352,92,153
9,399,535098,927,-15924,3371,-342,108,149
9,400,535103,910,-15836,3606,-334,91,149
9,401,535108,829,-15789,3522,-330,59,152
9,402,535113,755,-15641,3480,-323,47,151
9,403,535118,714,-15594,3636,-316,58,151
9,404,535123,655,-15688,3810,-306,68,151
9,405,535128,335,-15934,3806,-297,55,149
9,406,535133,36,-16272,3410,-284,22,144
9,407,535138,-17,-16541,2922,-270,-15,141
9,408,535143,31,-16588,2932,-265,-39,136
9,409,535148,161,-16514,3334,-260,-69,135
9,410,535153,196,-16538,3171,-246,-114,129
9,411,535158,75,-16628,2516,-233,-142,127
9,412,535163,113,-16611,2162,-225,-140,123
9,413,535168,180,-16407,2373,-219,-127,116
9,414,535173,272,-16309,2640,-206,-128,118
9,415,535178,417,-16301,2396,-195,-128,117
9,416,535183,393,-16313,2015,-184,-95,110
9,417,535188,423,-16313,2046,-173,-38,105
9,418,535193,479,-16267,2478,-168,16,101
9,419,535198,638,-16207,2752,-159,33,99
9,420,535203,629,-16226,2661,-151,45,96
9,421,535208,463,-16286,2519,-143,75,91
9,422,535213,145,-16391,2754,-135,112,85
9,423,535218,-66,-16519,2980,-124,120,81
9,424,535223,55,-16715,2825,-109,98,81
9,425,535228,317,-16839,2527,-96,70,77
9,426,535233,387,-16793,2645,-88,39,69
9,427,535238,300,-16571,2958,-80,-11,65
9,428,535243,228,-16491,2806,-72,-86,69
9,429,535248,305,-16470,2363,-61,-128,75
9,430,535253,431,-16457,2000,-49,-124,70
9,431,535258,392,-16400,2083,-42,-103,60
9,432,535263,482,-16290,2328,-36,-99,59
9,433,535268,595,-16252,2369,-28,-107,60
9,434,535273,579,-16174,2274,-20,-89,59
9,435,535278,494,-16184,2205,-14,-40,54
9,436,535283,556,-16223,2625,0,53,49
9,437,535288,633,-16266,2907,2,69,45
9,438,535293,477,-16311,2978,8,70,43
9,439,535298,227,-16399,2824,15,73,40
9,440,535303,136,-16469,2697,23,85,38
9,441,535308,324,-16546,2673,31,87,36
9,442,535313,538,-16551,2773,34,62,31
9,443,535318,533,-16495,2898,39,14,33
9,444,535323,188,-16513,2746,45,-42,33
9,445,535328,-67,-16557,2410,51,-82,30
9,446,535333,-57,-16523,2167,61,-86,28
9,447,535338,171,-16490,2257,66,-79,23
9,448,535343,384,-16461,2428,72,-86,19
9,449,535348,487,-16467,2470,76,-108,17
9,450,535353,442,-16432,2412,78,-117,17
9,451,535358,317,-16390,2270,83,-102,19
9,452,535363,202,-16369,2245,88,-62,14
9,453,535368,185,-16318,2292,91,-20,11
9,454,535373,228,-16229,2423,96,6,7
9,455,535378,301,-16179,2487,99,24,3
9,456,535383,368,-16133,2570,97,39,1
9,457,535388,282,-16065,2682,96,63,-6
9,458,535393,146,-15997,2805,98,85,-7
9,459,535398,28,-15937,2864,101,93,-10
9,460,535403,88,-15821,2840,102,83,-12
9,461,535408,193,-15835,2921,103,59,-13
9,462,535413,193,-15829,3022,104,23,-16
9,463,535418,291,-15823,2980,109,-24,-12
9,464,535423,371,-15823,2715,113,-68,-11
9,465,535428,376,-15787,2555,111,-107,-11
9,466,535433,250,-15803,2687,110,-144,-13
9,467,535438,-37,-15863,2692,112,-186,-12
9,468,535443,-120,-15898,2373,120,-220,-12
9,469,535448,27,-15970,1959,122,-219,-14
9,470,535453,217,-15933,2062,121,-200,-21
9,471,535458,231,-15863,2306,121,-199,-25
9,472,535463,181,-15847,2245,120,-219,-25
9,473,535468,240,-15832,1821,123,-227,-23
9,474,535473,406,-15786,1627,124,-193,-23
9,475,535478,587,-15695,1743,128,-135,-29
9,476,535483,647,-15719,1941,129,-89,-34
9,477,535488,622,-15658,1850,128,-61,-30
9,478,535493,517,-15622,1698,128,-31,-33
9,479,535498,419,-15597,1785,129,20,-34
9,480,535503,340,-15587,2131,128,74,-36
9,481,535508,245,-15696,2375,131,110,-36
9,482,535513,267,-15803,2381,133,122,-37
9,483,535518,222,-15869,2381,132,118,-37
9,484,535523,258,-15894,2591,126,102,-40
9,485,535528,321,-15882,2886,125,72,-37
9,486,535533,337,-15901,3022,124,34,-34
9,487,535538,323,-15934,2964,124,1,-32
9,488,535543,263,-15959,2888,121,-24,-33
9,489,535548,38,-15972,2895,120,-51,-34
9,490,535553,-85,-16023,2797,113,-87,-33
9,491,535558,-121,-16053,2668,110,-116,-31
9,492,535563,-128,-16105,2556,106,-122,-31
9,493,535568,-82,-16156,2435,108,-105,-36
9,494,535573,11,-16197,2482,106,-83,-37
9,495,535578,49,-16200,2572,100,-63,-37
9,496,535583,62,-16186,2659,96,-46,-39
9,497,535588,-33,-16193,2654,94,-28,-41
9,498,535593,-96,-16195,2664,88,-3,-44
9,499,535598,-147,-16225,2708,87,24,-42
9,500,535603,-130,-16227,2896,83,35,-47
9,501,535608,-68,-16191,3178,73,23,-46
9,502,535613,-12,-16212,3317,63,-3,-46
9,503,535618,15,-16311,3231,60,-27,-42
9,504,535623,35,-16393,3059,59,-47,-44
9,505,535628,70,-16396,2963,54,-69,-45
9,506,535633,100,-16348,2993,47,-103,-39
9,507,535638,142,-16303,2858,41,-147,-37
9,508,535643,243,-16279,2548,39,-173,-32
9,509,535648,177,-16303,2297,32,-113,-33
9,510,535653,152,-16317,2365,26,-72,-33
9,511,535658,122,-16362,2246,25,-34,-34
9,512,535663,152,-16403,2170,18,3,-36
9,513,535668,225,-16408,2270,10,43,-35
9,514,535673,215,-16443,2543,8,73,-33
9,515,535678,65,-16450,2739,4,88,-33
9,516,535683,-129,-16498,2618,0,87,-33
9,517,535688,-297,-16677,2519,-5,73,-35
9,518,535693,-365,-16780,2623,-7,50,-32
9,519,535698,-222,-16815,2748,-11,18,-31
9,520,535703,-21,-16831,2824,-15,-21,-28
9,521,535708,49,-16864,2817,-17,-64,-29
9,522,535713,-55,-16862,2693,-19,-105,-27
9,523,535718,-212,-16724,2623,-21,-139,-24
9,524,535723,-155,-16624,2546,-26,-164,-19
9,525,535728,43,-16571,2506,-30,-180,-14
9,526,535733,287,-16528,2430,-32,-185,-12
9,527,535738,397,-16514,2402,-32,-174,-11
9,528,535743,428,-16458,2378,-39,-159,-8
9,529,535748,362,-16405,2330,-43,-139,-6
9,530,535753,350,-16326,2239,-45,-112,-4
9,531,535758,396,-16333,2175,-52,-73,2
9,532,535763,467,-16335,2227,-57,-33,4
9,533,535768,497,-16363,2384,-59,-2,6
9,534,535773,381,-16389,2401,-62,16,6
9,535,535778,160,-16491,2381,-65,24,9
9,536,535783,-67,-16541,2336,-69,36,13
9,537,535788,-134,-16576,2413,-72,41,11
9,538,535793,-186,-16594,2587,-75,30,14
9,539,535798,-222,-16675,2685,-77,0,13
9,540,535803,-204,-16628,2623,-77,-45,16
9,541,535808,-5,-16572,2612,-82,-87,22
9,542,535813,142,-16531,2617,-84,-120,28
9,543,535818,160,-16516,2586,-86,-145,30
9,544,535823,75,-16549,2313,-87,-165,33
9,545,535828,103,-16575,2075,-86,-174,41
9,546,535833,221,-16500,2020,-91,-163,45
9,547,535838,306,-16511,2035,-94,-138,46
9,548,535843,269,-16532,2039,-94,-105,48
9,549,535848,136,-16533,1993,-96,-63,48
9,550,535853,8,-16574,1949,-98,-15,49
9,551,535858,-28,-16603,1973,-99,27,52
9,552,535863,25,-16752,2122,-100,55,51
9,553,535868,-36,-16895,2270,-100,62,52
9,554,535873,-121,-16916,2260,-101,55,49
9,555,535878,-180,-16869,2406,-103,32,51
9,556,535883,-100,-16805,2487,-108,7,56
9,557,535888,153,-16763,2483,-105,-16,58
9,558,535893,305,-16730,2381,-102,-40,65
9,559,535898,319,-16641,2338,-102,-61,68
9,560,535903,197,-16542,2286,-103,-93,72
9,561,535908,104,-16528,2159,-108,-111,75
9,562,535913,60,-16455,1919,-106,-102,76
9,563,535918,128,-16438,1835,-105,-77,78
9,564,535923,211,-16400,1867,-105,-43,81
9,565,535928,217,-16420,1913,-106,-20,79
9,566,535933,153,-16452,1978,-107,-8,81
9,567,535938,67,-16464,2087,-109,14,84
9,568,535943,-8,-16441,2203,-111,48,81
9,569,535948,-115,-16395,2317,-108,80,78
9,570,535953,-156,-16454,2453,-108,93,80
9,571,535958,-105,-16511,2639,-113,73,79
9,572,535963,-107,-16506,2803,-115,34,81
9,573,535968,-112,-16500,2869,-117,-5,82
9,574,535973,-104,-16400,2818,-116,-40,82
9,575,535978,-92,-16298,2762,-117,-76,82
9,576,535983,-87,-16194,2747,-120,-113,86
9,577,535988,69,-16141,2660,-117,-159,91
9,578,535993,177,-16177,2408,-117,-203,96
9,579,535998,209,-16150,2087,-117,-219,96
9,580,536003,93,-16071,1883,-115,-211,96
9,581,536008,11,-16059,1769,-119,-184,97
9,582,536013,-142,-16107,1738,-113,-126,92
9,583,536018,-183,-16124,1788,-114,-86,88
9,584,536023,-135,-16090,1888,-113,-42,83
9,585,536028,-44,-16041,2048,-113,-12,81
9,586,536033,75,-15951,2195,-112,2,80
9,587,536038,155,-15935,2295,-113,2,78
9,588,536043,53,-15830,2366,-113,-5,78
9,589,536048,-56,-15826,2392,-112,-16,78
9,590,536053,-159,-15893,2495,-110,-25,76
9,591,536058,-180,-15970,2459,-106,-44,76
9,592,536063,-119,-16000,2312,-106,-73,75
9,593,536068,60,-15945,2203,-105,-110,79
9,594,536073,224,-15863,2240,-103,-145,81
9,595,536078,267,-15779,2104,-101,-174,82
9,596,536083,110,-15734,1836,-100,-189,83
9,597,536088,-88,-15807,1535,-96,-173,81
9,598,536093,-247,-15916,1413,-94,-135,76
9,599,536098,122,-23036,2197,-78,-118,77
9,600,536103,1116,-22451,9668,178,667,-329
9,601,536108,-11954,-6198,-29755,-21,-1609,311
9,602,536113,3768,-25831,8481,-144,-452,208
9,603,536118,-17593,-7792,17690,-155,909,-327
9,604,536123,13156,-16152,-8372,62,-2035,508
9,605,536128,8244,-15937,6330,95,383,-1
9,606,536133,24,-14363,3762,-67,831,-281
9,607,536138,425,-16639,10703,4,-215,22
9,608,536143,-1892,-15673,-880,27,-674,81
9,609,536148,149,-18375,-2908,-4,-467,70
9,610,536153,442,-17627,-2009,-4,236,-29
9,611,536158,-1443,-16387,2159,-19,610,-97
9,612,536163,-284,-15954,6664,-26,304,-30
9,613,536168,1793,-15473,1942,-11,-140,55
9,614,536173,2535,-16064,1408,-19,-21,27
9,615,536178,1213,-16284,1851,-12,273,-40
9,616,536183,-393,-16161,3134,-10,324,-47
9,617,536188,-372,-16448,2973,-2,174,-5
9,618,536193,217,-16698,1424,-8,29,26
9,619,536198,564,-16751,1329,-19,85,6
9,620,536203,-429,-16384,2714,-25,188,-19
9,621,536208,-819,-16065,3426,-23,125,-5
9,622,536213,-308,-16230,2809,-9,20,27
9,623,536218,260,-16436,2302,-18,-6,22
9,624,536223,140,-16433,2329,-19,11,8
9,625,536228,-551,-16295,2744,-26,-20,5
9,626,536233,-779,-16302,2701,-26,-90,21
9,627,536238,-438,-16339,2109,-23,-136,35
9,628,536243,-22,-16361,1849,-20,-130,31
9,629,536248,-20,-16448,1956,-18,-128,28
9,630,536253,-314,-16309,2289,-24,-149,26
9,631,536258,-324,-16290,2311,-19,-198,34
9,632,536263,-48,-16363,1889,-15,-245,43
9,633,536268,115,-16455,1372,-13,-244,46
9,634,536273,-80,-16491,1532,-10,-202,38
9,635,536278,-229,-16426,1783,-15,-183,29
9,636,536283,-110,-16409,1921,-15,-206,39
9,637,536288,193,-16408,1594,-10,-231,47
9,638,536293,142,-16450,1506,-10,-209,43
9,639,536298,-105,-16495,1802,-9,-177,35
9,640,536303,-328,-16439,1928,-7,-167,35
9,641,536308,-197,-16403,1742,-12,-169,41
9,642,536313,-89,-16414,1675,-9,-144,36
9,643,536318,-168,-16454,1689,-7,-113,26
9,644,536323,-360,-16394,1784,-8,-92,21
9,645,536328,-402,-16439,1861,-6,-82,20
9,646,536333,-418,-16455,1576,-8,-71,16
9,647,536338,-517,-16444,1489,-7,-48,10
9,648,536343,-564,-16502,1488,-3,-29,4
9,649,536348,-460,-16463,1439,-3,-16,1
9,650,536353,-259,-16497,1570,-2,-5,1
9,651,536358,-132,-16454,1651,-1,-2,1
9,652,536363,-73,-16424,1649,3,-5,1
9,653,536368,-105,-16434,1860,3,0,2
9,654,536373,-64,-16420,1850,4,-3,2
9,655,536378,-8,-16420,1843,5,-7,7
9,656,536383,66,-16381,2193,6,-6,6
9,657,536388,33,-16312,2286,1,-15,6
9,658,536393,72,-16264,2184,3,-28,12
9,659,536398,203,-16392,2261,3,-25,14
9,660,536403,230,-16375,2247,4,-25,16
9,661,536408,140,-16317,2228,2,-33,17
9,662,536413,-38,-16300,2308,0,-44,19
9,663,536418,-131,-16415,2346,3,-65,19
9,664,536423,-69,-16400,2063,0,-77,22
9,665,536428,-17,-16396,1954,1,-66,23
9,666,536433,-176,-16366,2088,0,-56,21
9,667,536438,-279,-16364,2141,0,-74,20
9,668,536443,-324,-16415,2012,1,-98,24
9,669,536448,-381,-16482,1939,0,-112,25
9,670,536453,-460,-16465,1958,1,-104,23
9,671,536458,-572,-16389,2040,-1,-95,21
9,672,536463,-477,-16370,2229,-2,-89,21
9,673,536468,-368,-16418,2268,-2,-91,18
9,674,536473,-235,-16350,2150,-2,-91,16
9,675,536478,-223,-16348,2247,-2,-81,13
9,676,536483,-307,-16365,2261,-2,-78,13
9,677,536488,-231,-16333,2293,-5,-74,12
9,678,536493,-114,-16351,2327,-4,-65,11
9,679,536498,-84,-16339,2213,-5,-59,12
9,680,536503,-131,-16380,2299,-6,-46,9
9,681,536508,-254,-16396,2277,-7,-51,7
9,682,536513,-176,-16360,2184,-9,-59,11
9,683,536518,-71,-16354,2109,-9,-53,13
9,684,536523,12,-16344,2148,-11,-48,10
9,685,536528,-124,-16331,2373,-11,-50,11
9,686,536533,-258,-16348,2238,-11,-75,13
9,687,536538,-219,-16421,2172,-12,-95,16
9,688,536543,-273,-16449,2077,-10,-94,19
9,689,536548,-277,-16386,2060,-12,-92,18
9,690,536553,-353,-16308,2053,-12,-91,16
9,691,536558,-302,-16362,2114,-11,-107,17
9,692,536563,-254,-16451,2082,-11,-121,19
9,693,536568,-190,-16473,1925,-12,-129,20
9,694,536573,-162,-16398,2099,-15,-121,17
9,695,536578,-136,-16267,2331,-18,-112,17
9,696,536583,-120,-16246,2320,-14,-119,18
9,697,536588,-117,-16363,2112,-15,-121,18
9,698,536593,-35,-16460,1960,-12,-113,18
9,699,536598,9,-16455,1827,-12,-102,18
9,700,536603,16,-16378,1919,-16,-91,17
9,701,536608,121,-16385,2010,-19,-91,19
9,702,536613,224,-16336,1886,-16,-93,22
9,703,536618,294,-16437,1759,-14,-82,24
9,704,536623,245,-16458,1871,-15,-63,23
9,705,536628,107,-16469,1963,-19,-52,24
9,706,536633,-125,-16337,1976,-26,-51,21
9,707,536638,-339,-16359,1974,-23,-45,22
9,708,536643,-534,-16396,1696,-16,-32,24
9,709,536648,-529,-16520,1507,-15,3,18
9,710,536653,-510,-16581,1472,-15,43,13
9,711,536658,-405,-16464,1603,-17,66,8
9,712,536663,-330,-16388,1809,-18,73,8
9,713,536668,-414,-16382,1861,-18,71,4
9,714,536673,-540,-16414,1792,-18,77,-1
9,715,536678,-686,-16406,1667,-13,102,-6
9,716,536683,-690,-16487,1621,-14,127,-7
9,717,536688,-642,-16485,1593,-14,144,-9
9,718,536693,-570,-16454,1635,-16,154,-15
9,719,536698,-522,-16440,1760,-15,152,-18
9,720,536703,-503,-16399,1828,-14,146,-20
9,721,536708,-441,-16393,1809,-10,140,-19
9,722,536713,-324,-16383,1785,-6,150,-19
9,723,536718,-146,-16395,1898,-6,157,-21
9,724,536723,-161,-16367,2054,-5,153,-21
9,725,536728,-175,-16371,2087,-6,135,-19
9,726,536733,-230,-16387,2058,-5,111,-21
9,727,536738,-341,-16412,1975,-6,95,-22
9,728,536743,-456,-16404,1904,-2,92,-19
9,729,536748,-527,-16428,1981,-3,84,-18
9,730,536753,-405,-16447,1941,-2,65,-17
9,731,536758,-373,-16457,1908,0,41,-16
9,732,536763,-335,-16414,1914,1,23,-12
9,733,536768,-266,-16388,1970,-1,14,-11
9,734,536773,-169,-16387,2022,2,8,-10
9,735,536778,-176,-16390,2066,3,-10,-9
9,736,536783,-250,-16388,2049,4,-37,-5
9,737,536788,-353,-16431,1988,4,-56,-5
9,738,536793,-421,-16464,1940,2,-68,-2
9,739,536798,-470,-16436,1953,1,-71,-3
9,740,536803,-377,-16428,1969,0,-69,-3
9,741,536808,-294,-16367,2036,2,-68,-4
9,742,536813,-185,-16350,1994,3,-70,-3
9,743,536818,-50,-16349,1999,1,-73,-4
9,744,536823,-37,-16363,1918,3,-78,-3
9,745,536828,-43,-16398,1859,4,-83,-2
9,746,536833,-35,-16388,1890,3,-81,-1
9,747,536838,-45,-16383,1899,4,-81,-1
9,748,536843,-71,-16376,1857,3,-81,-2
9,749,536848,-122,-16367,1840,3,-81,-1
9,750,536853,-135,-16409,1818,3,-77,0
9,751,536858,-19,-16423,1799,8,-68,1
9,752,536863,28,-16407,1793,4,-58,2
9,753,536868,-1,-16393,1837,6,-54,2
9,754,536873,-123,-16376,1887,5,-51,0
9,755,536878,-269,-16436,1842,4,-49,-5
9,756,536883,-344,-16458,1805,5,-40,-3
9,757,536888,-304,-16430,1811,5,-23,-4
9,758,536893,-215,-16387,1924,4,3,-6
9,759,536898,-202,-16352,2069,8,14,-8
9,760,536903,-216,-16373,2054,9,10,-11
9,761,536908,-311,-16422,1979,6,1,-10
9,762,536913,-312,-16406,1871,4,3,-12
9,763,536918,-272,-16437,1988,4,13,-14
9,764,536923,-239,-16375,2170,4,23,-10
9,765,536928,-183,-16349,2272,4,18,-11
9,766,536933,-115,-16311,2264,3,8,-8
9,767,536938,-29,-16362,2211,3,3,-10
9,768,536943,-5,-16417,2137,3,-3,-5
9,769,536948,32,-16358,2131,4,-4,-6
9,770,536953,-23,-16393,2153,-1,-13,-5
9,771,536958,-137,-16415,2149,1,-25,-1
9,772,536963,-154,-16402,2008,-2,-33,0
9,773,536968,-164,-16400,1945,0,-32,-1
9,774,536973,-91,-16433,1977,0,-23,1
9,775,536978,-105,-16397,2086,-3,-16,0
9,776,536983,-165,-16336,2054,-3,-18,1
9,777,536988,-222,-16381,2002,-2,-23,2
9,778,536993,-250,-16462,1968,-2,-23,-1
9,779,536998,-278,-16364,1907,-3,-13,-3
9,780,537003,-278,-16392,1980,-3,-2,-3
9,781,537008,-281,-16402,2004,-1,2,-5
9,782,537013,-225,-16409,1972,-4,-1,-5
9,783,537018,-157,-16409,1926,-5,2,-8
9,784,537023,-167,-16442,1901,-5,6,-5
9,785,537028,-137,-16366,1997,-4,13,-5
9,786,537033,-128,-16365,2017,-4,18,-5
9,787,537038,-50,-16375,1985,-3,13,-3
9,788,537043,45,-16408,1898,-2,12,-3
9,789,537048,102,-16396,1789,-3,19,-2
9,790,537053,64,-16386,1848,-3,25,-3
9,791,537058,28,-16387,1941,-1,21,-1
9,792,537063,36,-16357,1958,-2,19,2
9,793,537068,-12,-16388,1983,-2,19,2
9,794,537073,-83,-16378,1939,-2,25,-1
9,795,537078,-248,-16417,2032,1,37,-2
9,796,537083,-354,-16431,2034,-3,42,-1
9,797,537088,-335,-16374,1982,-6,47,-1
9,798,537093,-322,-16371,1924,-3,56,0
9,799,537098,-322,-16442,1932,-2,69,-4
9,800,537103,-352,-16457,2017,-3,75,-7
9,801,537108,-327,-16402,2040,-5,74,-6
9,802,537113,-329,-16383,2103,-8,74,-8
9,803,537118,-395,-16327,2164,-7,78,-9
9,804,537123,-454,-16322,2174,-10,85,-13
9,805,537128,-378,-16374,2060,-9,81,-12
9,806,537133,-224,-16383,2080,-9,85,-12
9,807,537138,-145,-16358,2179,-9,88,-13
9,808,537143,-72,-16358,2254,-9,80,-12
9,809,537148,-52,-16330,2255,-12,70,-12
9,810,537153,-21,-16326,2218,-12,56,-9
9,811,537158,-50,-16388,2149,-11,52,-7
9,812,537163,-129,-16425,2072,-8,45,-4
9,813,537168,-257,-16437,2120,-13,34,-6
9,814,537173,-340,-16368,2086,-14,12,-4
9,815,537178,-351,-16381,2054,-13,-6,-1
9,816,537183,-378,-16394,1930,-10,-17,-1
9,817,537188,-444,-16429,1933,-11,-25,0
9,818,537193,-468,-16431,1947,-14,-42,2
9,819,537198,-428,-16430,1879,-13,-59,1
9,820,537203,-315,-16396,1886,-9,-72,5
9,821,537208,-189,-16391,1830,-6,-85,5
9,822,537213,-193,-16394,1875,-6,-87,2
9,823,537218,-164,-16424,1922,-7,-98,5
9,824,537223,-141,-16405,1904,-7,-112,7
9,825,537228,-162,-16389,1839,-6,-121,9
9,826,537233,-248,-16393,1817,-3,-127,10
9,827,537238,-276,-16397,1823,1,-127,9
9,828,537243,-237,-16436,1845,-2,-123,11
9,829,537248,-168,-16473,1783,-3,-122,9
9,830,537253,-133,-16445,1810,-2,-121,12
9,831,537258,-198,-16382,1894,1,-119,12
9,832,537263,-276,-16378,1907,-2,-121,9
9,833,537268,-356,-16425,1861,0,-121,9
9,834,537273,-387,-16456,1828,1,-114,8
9,835,537278,-410,-16493,1679,-1,-101,7
9,836,537283,-374,-16442,1705,0,-84,5
9,837,537288,-395,-16419,1765,2,-77,1
9,838,537293,-447,-16420,1904,0,-80,-2
9,839,537298,-377,-16409,1870,-3,-80,-3
9,840,537303,-284,-16387,1772,-1,-71,-4
9,841,537308,-162,-16394,1899,1,-50,-4
9,842,537313,-102,-16367,2011,-1,-37,-7
9,843,537318,-122,-16364,1991,1,-42,-7
9,844,537323,-71,-16356,1859,1,-47,-5
9,845,537328,-136,-16434,1845,1,-47,-4
9,846,537333,-206,-16441,1792,1,-39,-6
9,847,537338,-222,-16406,1862,0,-27,-4
9,848,537343,-172,-16398,1947,-1,-16,-7
9,849,537348,-79,-16394,1931,-1,-11,-6
9,850,537353,-30,-16382,1939,2,-8,-5
9,851,537358,-127,-16352,1881,1,-4,-5
9,852,537363,-293,-16389,1865,0,2,-11
9,853,537368,-450,-16485,1879,1,2,-12
9,854,537373,-475,-16480,1853,-1,3,-12
9,855,537378,-458,-16442,1793,-2,11,-12
9,856,537383,-384,-16425,1901,-1,19,-13
9,857,537388,-255,-16356,1984,0,21,-11
9,858,537393,-116,-16358,2080,-1,12,-15
9,859,537398,18,-16368,2045,-1,-1,-13
9,860,537403,82,-16343,1985,-1,-8,-11
9,861,537408,7,-16376,2071,0,-16,-10
9,862,537413,-220,-16383,1990,1,-26,-7
9,863,537418,-336,-16427,1960,3,-39,-8
9,864,537423,-394,-16477,1861,1,-39,-7
9,865,537428,-323,-16452,1839,-3,-31,-5
9,866,537433,-219,-16399,1865,-1,-19,-4
9,867,537438,-70,-16366,1932,1,-14,-5
9,868,537443,27,-16377,2021,-3,-17,-7
9,869,537448,83,-16377,1977,-2,-22,-5
9,870,537453,82,-16329,1919,-4,-23,-3
9,871,537458,-60,-16340,1956,-2,-18,-5
9,872,537463,-276,-16385,1935,1,-11,-5
9,873,537468,-523,-16442,1948,1,-7,-8
9,874,537473,-634,-16487,1869,2,-5,-12
9,875,537478,-542,-16420,1927,-2,6,-13
9,876,537483,-369,-16393,2032,-2,13,-13
9,877,537488,-151,-16359,2120,-2,8,-15
9,878,537493,3,-16343,2140,-2,-4,-14
9,879,537498,121,-16364,2130,-4,-16,-12
9,880,537503,144,-16358,2065,-4,-30,-7
9,881,537508,121,-16317,1992,-3,-38,-7
9,882,537513,80,-16324,1965,-2,-45,-6
9,883,537518,74,-16408,1879,1,-53,-2
9,884,537523,74,-16400,1743,0,-58,1
9,885,537528,115,-16419,1786,-2,-55,2
9,886,537533,6,-16369,1861,-2,-56,1
9,887,537538,-107,-16404,1794,-2,-61,2
9,888,537543,-188,-16438,1756,3,-60,4
9,889,537548,-121,-16439,1681,0,-50,4
9,890,537553,-102,-16428,1737,-1,-34,2
9,891,537558,-127,-16413,1807,-1,-20,0
9,892,537563,-235,-16396,1867,2,-17,-1
9,893,537568,-378,-16431,1900,0,-17,-4
9,894,537573,-574,-16445,1862,0,-11,-7
9,895,537578,-562,-16434,1792,1,1,-8
9,896,537583,-458,-16397,1917,1,25,-11
9,897,537588,-290,-16414,1970,2,37,-14
9,898,537593,-106,-16354,2040,3,35,-10
9,899,537598,7,-16380,2048,2,23,-10
9,900,537603,8,-16388,1977,1,6,-11
9,901,537608,-97,-16411,1908,1,-1,-9
9,902,537613,-144,-16416,1888,1,-4,-8
9,903,537618,-114,-16408,1848,6,-9,-4
9,904,537623,-1,-16396,1824,4,-12,0
9,905,537628,74,-16417,1810,3,-16,-1
9,906,537633,68,-16394,1858,4,-21,1
9,907,537638,-106,-16403,1859,2,-28,-1
9,908,537643,-263,-16426,1901,2,-32,0
9,909,537648,-312,-16433,1843,2,-27,2
9,910,537653,-221,-16387,1845,1,-15,1
9,911,537658,-97,-16369,1904,4,1,-2
9,912,537663,-74,-16378,2078,4,8,-4
9,913,537668,-82,-16355,2108,3,2,-4
9,914,537673,-141,-16423,2007,4,-9,-3
9,915,537678,-261,-16444,1862,1,-6,-4
9,916,537683,-327,-16424,1885,0,2,-4
9,917,537688,-381,-16429,1970,3,9,-7
9,918,537693,-357,-16408,2008,2,7,-4
9,919,537698,-173,-16401,1968,2,4,-4
9,920,537703,-93,-16407,1945,3,6,-5
9,921,537708,-34,-16352,1956,3,6,-7
9,922,537713,-56,-16360,2001,2,5,-4
9,923,537718,-107,-16359,1946,4,-3,-2
9,924,537723,-181,-16421,1780,4,-8,-5
9,925,537728,-320,-16464,1723,5,-9,-3
9,926,537733,-361,-16469,1760,4,-7,-2
9,927,537738,-288,-16388,1807,2,-4,-1
9,928,537743,-104,-16387,1816,5,-1,-1
9,929,537748,60,-16366,1920,5,3,-2
9,930,537753,92,-16359,1990,6,5,-3
9,931,537758,25,-16386,1950,6,-5,0
9,932,537763,-94,-16439,1918,8,-11,0
9,933,537768,-228,-16434,1900,3,-14,0
9,934,537773,-348,-16419,1847,5,-12,0
9,935,537778,-325,-16381,1918,4,-1,0
9,936,537783,-226,-16362,2040,6,8,0
9,937,537788,-58,-16364,2085,5,10,2
9,938,537793,46,-16342,2119,3,7,1
9,939,537798,26,-16335,2122,4,-3,0
9,940,537803,-97,-16335,2059,3,-11,0
9,941,537808,-293,-16393,1989,2,-14,-1
9,942,537813,-449,-16433,1868,0,-13,1
9,943,537818,-449,-16473,1761,2,-8,0
9,944,537823,-313,-16474,1772,4,6,-2
9,945,537828,-223,-16414,1871,4,7,-2
9,946,537833,-175,-16369,1911,1,-1,-1
9,947,537838,-101,-16371,1939,2,-8,1
9,948,537843,-39,-16391,1952,2,-9,-1
9,949,537848,-50,-16374,1959,6,-5,-1
9,950,537853,-36,-16355,1947,3,-5,1
9,951,537858,-68,-16356,1943,3,-9,3
9,952,537863,-94,-16379,1932,4,-7,1
9,953,537868,-106,-16399,1932,5,-5,1
9,954,537873,-227,-16383,1960,5,-2,4
9,955,537878,-257,-16427,1970,5,-4,3
9,956,537883,-246,-16382,2064,2,-5,2
9,957,537888,-243,-16380,1992,2,-2,2
9,958,537893,-186,-16371,2057,2,3,1
9,959,537898,-113,-16344,2049,2,5,1
9,960,537903,-51,-16364,2073,3,4,2
9,961,537908,-58,-16358,2040,2,-1,3
9,962,537913,-99,-16385,2028,2,-5,5
9,963,537918,-208,-16404,2033,-1,-12,4
9,964,537923,-287,-16386,2048,-1,-15,5
9,965,537928,-329,-16378,2034,-1,-13,7
9,966,537933,-290,-16396,1982,0,-8,4
9,967,537938,-184,-16416,1985,1,0,3
9,968,537943,-112,-16386,2040,0,0,4
9,969,537948,-91,-16372,2036,-1,-7,2
9,970,537953,-101,-16361,2013,-2,-11,4
9,971,537958,-125,-16373,1891,0,-13,4
9,972,537963,-182,-16391,1897,0,-10,4
9,973,537968,-238,-16411,1954,-2,-5,4
9,974,537973,-246,-16429,1955,-2,-3,4
9,975,537978,-279,-16435,1949,0,-3,3
9,976,537983,-282,-16393,1947,-2,-4,4
9,977,537988,-307,-16391,1958,-3,-3,5
9,978,537993,-329,-16366,1997,-2,-3,3
9,979,537998,-359,-16381,1965,-3,-3,3
9,980,538003,-318,-16407,1968,-3,-4,1
9,981,538008,-273,-16421,1980,-3,-6,1
9,982,538013,-300,-16384,1911,-2,-6,1
9,983,538018,-271,-16365,1917,-4,-6,0
9,984,538023,-253,-16402,1901,-2,-11,0
9,985,538028,-264,-16395,1845,0,-19,2
9,986,538033,-233,-16425,1825,-2,-19,2
9,987,538038,-210,-16394,1830,-3,-19,3
9,988,538043,-252,-16431,1829,1,-19,2
9,989,538048,-314,-16407,1823,0,-21,2
9,990,538053,-290,-16419,1790,-1,-20,1
9,991,538058,-258,-16409,1722,0,-14,1
9,992,538063,-212,-16399,1792,0,-5,-1
9,993,538068,-265,-16423,1876,2,-5,-1
9,994,538073,-278,-16399,1916,3,-11,-3
9,995,538078,-287,-16408,1861,-1,-17,0
9,996,538083,-287,-16433,1810,3,-10,-1
9,997,538088,-195,-16433,1855,5,0,-1
9,998,538093,-105,-16402,1927,2,7,0
9,999,538098,-146,-16388,1955,2,6,-1
