event_id,seq,ts_ms,ax,ay,az,gx,gy,gz
1,0,15696,-1842,-16301,-1047,3,-10,-3
1,1,15701,-1804,-16310,-1060,3,-6,-2
1,2,15706,-1796,-16315,-1069,3,-7,-4
1,3,15711,-1834,-16328,-1079,0,-7,-4
1,4,15716,-1841,-16312,-1038,3,-8,-3
1,5,15721,-1852,-16303,-1052,3,-7,-4
1,6,15726,-1801,-16314,-1068,1,-6,-4
1,7,15731,-1819,-16311,-1094,4,-8,-3
1,8,15736,-1814,-16308,-1057,1,-7,-3
1,9,15741,-1827,-16325,-1085,1,-6,-4
1,10,15746,-1839,-16292,-1069,1,-7,-3
1,11,15751,-1849,-16319,-1038,0,-8,-4
1,12,15756,-1867,-16332,-1043,0,-9,-3
1,13,15761,-1861,-16305,-1048,1,-7,-3
1,14,15766,-1840,-16281,-1030,4,-8,-1
1,15,15771,-1870,-16296,-1043,3,-9,0
1,16,15776,-1908,-16322,-1063,3,-7,-2
1,17,15781,-1847,-16309,-1084,2,-5,-4
1,18,15786,-1866,-16281,-1027,4,-6,-2
1,19,15791,-1824,-16310,-1037,3,-9,-2
1,20,15796,-1828,-16321,-1076,1,-6,-5
1,21,15801,-1840,-16328,-1043,1,-6,-7
1,22,15806,-1818,-16302,-1060,2,-7,-3
1,23,15811,-1827,-16307,-1052,3,-7,-4
1,24,15816,-1862,-16301,-1023,2,-10,-2
1,25,15821,-1772,-16316,-1081,2,-8,-3
1,26,15826,-1822,-16319,-1083,3,-9,-5
1,27,15831,-1826,-16308,-1057,4,-10,-3
1,28,15836,-1838,-16303,-1054,2,-10,-5
1,29,15841,-1851,-16334,-1075,1,-8,-4
1,30,15846,-1838,-16319,-1083,2,-10,-4
1,31,15851,-1828,-16318,-1065,1,-8,-5
1,32,15856,-1798,-16293,-1067,3,-7,-4
1,33,15861,-1803,-16346,-1074,2,-8,-3
1,34,15866,-1838,-16333,-1077,0,-8,-3
1,35,15871,-1827,-16302,-1055,2,-8,-1
1,36,15876,-1816,-16325,-1029,1,-8,-3
1,37,15881,-1842,-16311,-1085,3,-8,-5
1,38,15886,-1848,-16320,-1085,2,-6,-4
1,39,15891,-1831,-16306,-1041,2,-4,-4
1,40,15896,-1850,-16287,-1048,1,-5,-3
1,41,15901,-1870,-16334,-1053,2,-11,-2
1,42,15906,-1835,-16295,-1094,0,-8,-3
1,43,15911,-1845,-16270,-1064,2,-6,-4
1,44,15916,-1851,-16302,-1056,3,-6,-2
1,45,15921,-1860,-16331,-1022,4,-9,-2
1,46,15926,-1831,-16327,-1060,3,-8,-2
1,47,15931,-1849,-16325,-1040,4,-6,-3
1,48,15936,-1855,-16353,-1080,4,-8,-3
1,49,15941,-1799,-16328,-1077,1,-8,-4
1,50,15946,-1809,-16304,-1103,0,-5,-4
1,51,15951,-1806,-16304,-1099,2,-6,-4
1,52,15956,-1839,-16314,-1089,4,-5,-3
1,53,15961,-1822,-16287,-1032,5,-6,-2
1,54,15966,-1831,-16299,-999,4,-9,-3
1,55,15971,-1902,-16333,-1038,3,-12,-2
1,56,15976,-1887,-16334,-1061,2,-11,-3
1,57,15981,-1901,-16303,-1078,2,-8,-3
1,58,15986,-1894,-16319,-1031,4,-8,-6
1,59,15991,-1867,-16325,-1033,0,-5,-4
1,60,15996,-1857,-16299,-990,0,-7,-2
1,61,16001,-1856,-16329,-1073,4,-9,-3
1,62,16006,-1868,-16351,-1116,0,-8,-3
1,63,16011,-1884,-16312,-1062,0,-7,-3
1,64,16016,-1890,-16311,-1080,3,-8,-4
1,65,16021,-1872,-16330,-1072,2,-7,-7
1,66,16026,-1842,-16326,-1074,3,-7,-4
1,67,16031,-1837,-16341,-1005,3,-7,-2
1,68,16036,-1835,-16336,-1072,1,-6,-4
1,69,16041,-1853,-16311,-1035,0,-6,-4
1,70,16046,-1869,-16307,-1070,4,-8,-2
1,71,16051,-1852,-16318,-1074,3,-10,-1
1,72,16056,-1856,-16301,-1074,2,-7,-1
1,73,16061,-1822,-16285,-1098,0,-5,-3
1,74,16066,-1825,-16308,-1048,3,-8,-3
1,75,16071,-1833,-16305,-1033,3,-6,-3
1,76,16076,-1847,-16304,-1045,2,-10,-3
1,77,16081,-1865,-16291,-1077,4,-9,-4
1,78,16086,-1890,-16317,-1053,2,-7,-2
1,79,16091,-1843,-16319,-1072,4,-7,-3
1,80,16096,-1844,-16314,-1064,2,-6,-3
1,81,16101,-1848,-16339,-1012,3,-8,-6
1,82,16106,-1840,-16330,-1056,3,-8,-5
1,83,16111,-1838,-16309,-1073,3,-5,-2
1,84,16116,-1842,-16315,-1090,3,-7,-2
1,85,16121,-1839,-16322,-1065,3,-7,-3
1,86,16126,-1833,-16289,-1045,1,-5,-3
1,87,16131,-1818,-16308,-1024,0,-8,-4
1,88,16136,-1850,-16340,-1048,3,-9,-2
1,89,16141,-1850,-16331,-1067,1,-7,-2
1,90,16146,-1867,-16331,-1085,1,-7,-4
1,91,16151,-1856,-16310,-1024,3,-9,-6
1,92,16156,-1823,-16338,-1039,2,-8,-5
1,93,16161,-1865,-16318,-1080,2,-7,-7
1,94,16166,-1813,-16296,-1077,2,-8,-3
1,95,16171,-1785,-16317,-1066,2,-8,-3
1,96,16176,-1864,-16314,-1104,3,-8,-1
1,97,16181,-1840,-16311,-1059,2,-9,0
1,98,16186,-1837,-16307,-1058,4,-7,-3
1,99,16191,-1851,-16316,-1087,1,-7,-6
1,100,16196,-1807,-16286,-1104,3,-9,-3
1,101,16201,-1812,-16294,-1023,3,-7,-1
1,102,16206,-1877,-16347,-1061,0,-7,-4
1,103,16211,-1889,-16314,-1073,1,-6,-5
1,104,16216,-1884,-16336,-1071,3,-6,-2
1,105,16221,-1869,-16359,-1113,2,-5,-4
1,106,16226,-1865,-16330,-1024,2,-8,-4
1,107,16231,-1857,-16299,-1060,0,-8,-3
1,108,16236,-1794,-16325,-1123,4,-9,-5
1,109,16241,-1828,-16330,-1094,2,-5,-3
1,110,16246,-1814,-16300,-1091,1,-5,-2
1,111,16251,-1783,-16309,-1115,1,-4,-2
1,112,16256,-1806,-16316,-1078,2,-9,-7
1,113,16261,-1817,-16303,-1060,1,-11,-6
1,114,16266,-1802,-16329,-1050,2,-5,-4
1,115,16271,-1857,-16327,-1037,7,-7,-2
1,116,16276,-1877,-16286,-1024,4,-10,-2
1,117,16281,-1838,-16325,-1101,2,-9,-2
1,118,16286,-1820,-16302,-1077,2,-7,-5
1,119,16291,-1861,-16290,-1066,5,-6,-4
1,120,16296,-1857,-16325,-1037,3,-9,-6
1,121,16301,-1859,-16304,-1068,2,-8,-4
1,122,16306,-1863,-16334,-1091,2,-8,-2
1,123,16311,-1859,-16293,-1089,3,-11,-2
1,124,16316,-1861,-16311,-1054,4,-8,-4
1,130,16346,-1843,-16302,-1064,1,-10,-6
1,131,16351,-1821,-16287,-1031,2,-9,-3
1,132,16356,-1823,-16306,-1091,2,-8,-3
1,133,16361,-1811,-16330,-1085,3,-6,-2
1,134,16366,-1807,-16276,-1075,3,-6,-3
1,135,16371,-1833,-16307,-1093,3,-7,-4
1,136,16376,-1837,-16324,-1089,2,-7,-4
1,137,16381,-1852,-16303,-1084,4,-7,-1
1,138,16386,-1869,-16315,-1110,3,-6,-4
1,139,16391,-1841,-16322,-1113,2,-7,-5
1,155,16471,-1809,-16312,-1078,4,-6,-2
1,156,16476,-1853,-16336,-1081,2,-7,-1
1,157,16481,-1868,-16301,-1053,1,-6,-4
1,158,16486,-1872,-16291,-1048,4,-8,-2
1,159,16491,-1871,-16322,-1037,3,-8,-1
1,180,16596,-1836,-16279,-1073,1,-7,-5
1,181,16601,-1803,-16303,-1056,3,-8,-5
1,182,16606,-1808,-16316,-1065,1,-6,-5
1,183,16611,-1811,-16328,-1084,2,-8,-4
1,184,16616,-1815,-16342,-1072,3,-10,-3
1,185,16621,-1805,-16323,-1084,4,-6,-2
1,186,16626,-1820,-16321,-1119,3,-9,-3
1,187,16631,-1789,-16336,-1072,1,-8,-3
1,188,16636,-1785,-16285,-1036,4,-9,-3
1,189,16641,-1825,-16321,-1040,6,-10,-1
1,190,16646,-1842,-16329,-1045,2,-9,-3
1,191,16651,-1846,-16326,-1072,1,-8,-3
1,192,16656,-1839,-16304,-1042,2,-9,-1
1,193,16661,-1900,-16331,-1025,3,-10,-3
1,194,16667,-1877,-16343,-1041,2,-9,0
1,195,16671,-1872,-16292,-996,3,-9,1
1,196,16676,-1889,-16283,-998,4,-7,-5
1,197,16681,-1851,-16304,-1048,2,-5,-3
1,198,16686,-1844,-16317,-1045,1,-3,-5
1,199,16691,-1879,-16308,-1066,1,-6,-4
1,200,16696,-1907,-16326,-1055,1,-8,-1
1,201,16701,-1844,-16312,-1074,1,-9,0
1,202,16706,-1841,-16305,-1057,-1,-7,-3
1,203,16711,-1819,-16311,-1046,2,-9,-2
1,204,16716,-1840,-16312,-1083,4,-6,-4
1,205,16721,-1836,-16307,-1092,1,-7,-4
1,206,16726,-1823,-16345,-1086,2,-9,-5
1,207,16731,-1818,-16326,-1046,5,-5,-6
1,208,16736,-1827,-16294,-1075,3,-6,-2
1,209,16741,-1817,-16298,-1087,2,-7,-5
1,210,16746,-1825,-16322,-1067,1,-7,-4
1,211,16751,-1862,-16327,-1096,2,-7,-3
1,212,16756,-1847,-16294,-1068,3,-7,-1
1,213,16761,-1831,-16308,-1003,3,-9,1
1,214,16766,-1860,-16300,-1039,4,-10,-4
1,215,16771,-1888,-16297,-1003,3,-6,-5
1,216,16776,-1902,-16316,-1089,2,-6,-5
1,217,16781,-1877,-16328,-1049,1,-4,-3
1,218,16786,-1851,-16331,-1027,0,-2,-4
1,219,16791,-1839,-16313,-1003,3,-7,-3
1,220,16796,-1882,-16300,-1069,3,-10,-6
1,221,16801,-1880,-16305,-1097,3,-9,-5
1,222,16806,-1863,-16333,-1106,1,-4,-4
1,223,16811,-1833,-16308,-1060,1,-2,-4
1,224,16816,-1787,-16297,-1061,2,-7,-3
1,225,16821,-1781,-16317,-1092,3,-7,-2
1,226,16826,-1800,-16307,-1090,3,-11,-3
1,227,16831,-1866,-16300,-1100,5,-9,-3
1,228,16836,-1853,-16313,-1080,5,-10,-3
1,229,16841,-1816,-16286,-1014,3,-10,-1
1,230,16846,-1791,-16303,-1066,2,-7,-1
1,231,16851,-1801,-16331,-1098,2,-6,-4
1,232,16856,-1813,-16280,-1098,2,-3,-5
1,233,16861,-1861,-16300,-1042,3,-6,-2
1,234,16866,-1845,-16331,-1024,1,-7,-4
1,235,16871,-1865,-16337,-1072,0,-11,-2
1,236,16876,-1856,-16314,-1058,1,-9,-1
1,237,16881,-1868,-16342,-1075,4,-7,-1
1,238,16886,-1852,-16354,-1108,4,-6,-2
1,239,16891,-1844,-16329,-1066,3,-5,-3
1,240,16896,-1834,-16293,-1039,3,-6,-1
1,241,16901,-1829,-16279,-1019,1,-6,-3
1,242,16906,-1827,-16280,-1052,2,-8,-2
1,243,16911,-1855,-16294,-1085,3,-10,-2
1,244,16916,-1811,-16343,-1094,3,-8,-5
1,245,16921,-1807,-16326,-1011,2,-7,-3
1,246,16926,-1832,-16308,-1037,3,-9,0
1,247,16931,-1886,-16319,-1070,2,-8,-2
1,248,16936,-1901,-16337,-1088,1,-9,-4
1,249,16941,-1876,-16306,-1082,2,-10,-3
1,250,16946,-1913,-16309,-985,1,-7,-2
1,251,16951,-1864,-16303,-1031,0,-4,-4
1,252,16956,-1829,-16323,-1076,2,-5,-2
1,253,16961,-1844,-16314,-1058,5,-9,-2
1,254,16966,-1837,-16300,-996,2,-7,-3
1,255,16971,-1858,-16303,-1015,2,-9,-4
1,256,16976,-1828,-16335,-1044,4,-9,-3
1,257,16981,-1827,-16304,-1042,5,-10,-2
1,258,16986,-1854,-16298,-1054,3,-9,-5
1,259,16991,-1876,-16329,-1073,1,-7,-4
1,260,16996,-1819,-16325,-1044,2,-7,-3
1,261,17001,-1832,-16330,-1051,2,-8,-2
1,262,17006,-1843,-16321,-1078,4,-9,-3
1,263,17011,-1820,-16284,-1127,3,-8,-4
1,264,17016,-1865,-16299,-1048,2,-7,-5
1,265,17021,-1861,-16333,-1039,4,-8,-3
1,266,17026,-1818,-16301,-1087,4,-10,-4
1,267,17031,-1869,-16304,-1026,3,-6,-4
1,268,17036,-1855,-16337,-1022,2,-7,-5
1,269,17041,-1858,-16316,-1059,3,-9,-3
1,270,17046,-1838,-16302,-1075,3,-10,-3
1,271,17051,-1841,-16272,-1029,1,-6,-3
1,272,17056,-1853,-16281,-1026,2,-6,-4
1,273,17061,-1829,-16330,-1082,4,-6,-4
1,274,17066,-1812,-16308,-1098,3,-7,-2
1,275,17071,-1830,-16298,-1044,-1,-6,-3
1,276,17076,-1871,-16305,-1058,2,-8,-1
1,277,17081,-1891,-16338,-1078,2,-10,-1
1,278,17086,-1874,-16320,-1076,2,-7,-3
1,279,17091,-1893,-16338,-1061,1,-7,-4
1,280,17096,-1877,-16306,-1061,3,-10,-3
1,281,17101,-1848,-16317,-1013,1,-8,-3
1,282,17106,-1850,-16305,-1022,0,-6,-6
1,283,17111,-1824,-16308,-1041,1,-8,-7
1,284,17116,-1833,-16301,-1068,4,-5,-5
1,285,17121,-1823,-16285,-1048,3,-8,-3
1,286,17126,-1836,-16322,-1007,3,-9,-4
1,287,17131,-1834,-16320,-1103,3,-7,-6
1,288,17136,-1876,-16302,-1112,2,-8,-5
1,289,17141,-1839,-16310,-1065,2,-7,-4
1,290,17146,-1837,-16295,-1060,1,-6,-5
1,291,17151,-1846,-16310,-1096,3,-5,-4
1,292,17156,-1833,-16342,-1109,5,-9,-3
1,293,17161,-1854,-16321,-1076,2,-8,-4
1,294,17166,-1802,-16297,-1047,1,-7,-4
1,295,17171,-1840,-16318,-1020,2,-7,-2
1,296,17176,-1838,-16306,-1031,3,-9,-3
1,297,17181,-1839,-16304,-998,1,-9,-5
1,298,17186,-1880,-16298,-1042,-1,-8,-2
1,299,17191,-1843,-16293,-1056,1,-8,-3
1,300,17196,-1885,-16354,-1031,3,-8,-4
1,301,17201,-1874,-16317,-1032,2,-6,-5
1,302,17206,-1868,-16339,-1088,0,-6,-3
1,303,17211,-1886,-16308,-1063,2,-10,-2
1,304,17216,-1887,-16318,-1073,-1,-5,-1
1,305,17221,-1838,-16306,-1053,0,-5,-3
1,306,17226,-1848,-16329,-1086,1,-6,-2
1,307,17231,-1866,-16314,-1064,2,-7,-3
1,308,17236,-1821,-16306,-1098,3,-7,-4
1,309,17241,-1818,-16304,-1114,3,-6,-4
1,310,17246,-1830,-16304,-1068,3,-6,-5
1,311,17251,-1822,-16313,-1032,2,-8,-3
1,312,17256,-1797,-16302,-1047,3,-10,-3
1,313,17261,-1835,-16311,-1073,0,-9,-3
1,314,17266,-1854,-16325,-1026,2,-9,-3
1,315,17271,-1838,-16311,-1044,1,-9,-4
1,316,17276,-1820,-16296,-1067,-1,-6,-4
1,317,17281,-1844,-16342,-1083,3,-6,-2
1,318,17286,-1877,-16318,-1066,4,-7,-1
1,319,17291,-1882,-16323,-1060,3,-9,-3
1,320,17296,-1871,-16325,-1057,4,-7,-4
1,321,17301,-1859,-16306,-1055,3,-7,-5
1,322,17306,-1869,-16284,-1075,2,-7,-2
1,323,17311,-1857,-16301,-1063,3,-6,-3
1,324,17316,-1849,-16320,-1034,3,-5,-3
1,325,17321,-1815,-16303,-1051,2,-10,-3
1,326,17326,-1817,-16326,-1057,0,-8,-2
1,327,17331,-1836,-16327,-986,0,-9,-4
1,328,17336,-1844,-16310,-1029,2,-9,-6
1,329,17341,-1848,-16309,-1068,0,-6,-5
1,330,17346,-1829,-16329,-1040,0,-8,-3
1,331,17351,-1814,-16291,-1081,1,-8,-4
1,332,17356,-1830,-16268,-1099,1,-8,-2
1,333,17361,-1850,-16314,-1134,1,-9,-2
1,334,17366,-1823,-16330,-1084,1,-8,-4
1,335,17371,-1825,-16293,-1035,0,-8,-5
1,336,17376,-1853,-16295,-1046,3,-7,-3
1,337,17381,-1859,-16321,-1047,5,-6,-2
1,338,17386,-1852,-16285,-1089,2,-9,-5
1,339,17391,-1841,-16319,-1109,4,-8,-1
1,340,17396,-1818,-16295,-1071,2,-6,-1
1,341,17401,-1816,-16311,-1063,2,-7,-4
1,342,17406,-1819,-16323,-1104,1,-8,-2
1,343,17411,-1854,-16328,-1093,2,-8,-1
1,344,17416,-1808,-16321,-1070,1,-5,-2
1,345,17421,-1777,-16279,-1058,2,-6,-1
1,346,17426,-1816,-16334,-1060,2,-8,-4
1,347,17431,-1848,-16290,-1064,0,-7,-6
1,348,17436,-1854,-16341,-1073,2,-10,-2
1,349,17441,-1879,-16320,-1096,1,-7,-3
1,350,17446,-1872,-16307,-1056,1,-8,-4
1,351,17451,-1867,-16327,-1031,2,-5,-3
1,352,17456,-1846,-16345,-990,1,-9,-6
1,353,17461,-1858,-16313,-1056,2,-8,-3
1,354,17466,-1855,-16268,-1113,4,-6,-2
1,355,17471,-1852,-16287,-1066,0,-5,-4
1,356,17476,-1859,-16289,-1016,2,-6,-3
1,357,17481,-1825,-16312,-1050,1,-9,-3
1,358,17486,-1837,-16307,-1037,1,-5,-4
1,359,17491,-1828,-16332,-1076,3,-7,-4
1,360,17496,-1848,-16297,-1067,2,-9,-4
1,361,17501,-1844,-16310,-1055,3,-10,-4
1,362,17506,-1840,-16277,-1104,1,-9,-3
1,363,17511,-1817,-16311,-1075,1,-7,-3
1,364,17516,-1809,-16297,-1096,2,-7,-1
1,365,17521,-1815,-16306,-1090,1,-7,-3
1,366,17526,-1824,-16282,-1038,3,-8,-5
1,367,17531,-1841,-16298,-1058,2,-8,-2
1,368,17536,-1839,-16343,-1036,0,-7,-2
1,369,17541,-1622,-16328,-1186,0,-7,-4
1,370,17546,-863,-16336,-1585,4,2,1
1,371,17551,-116,-16228,-2064,5,26,15
1,372,17556,333,-16305,-2429,12,38,30
1,373,17561,187,-16390,-2061,18,15,23
1,374,17566,-1536,-16307,-735,15,-43,14
1,375,17571,-2689,-16559,60,10,-133,8
1,376,17576,-2862,-15883,-1645,13,-152,19
1,377,17581,-3464,-16195,-1053,28,0,76
1,378,17586,-2262,-17031,-511,14,68,23
1,379,17591,-2248,-15780,-162,-2,45,-42
1,380,17596,-1559,-16093,-1366,27,-66,35
1,381,17601,-535,-16773,-2284,35,-53,52
1,382,17606,-523,-16365,-2136,16,13,-4
1,383,17611,-1054,-16114,-1485,12,2,-5
1,384,17616,-808,-16399,-2366,39,-97,36
1,385,17621,335,-16581,-4530,56,-109,44
1,386,17626,368,-16514,-5777,61,20,32
1,387,17631,-1261,-17007,-5088,70,98,29
1,388,17636,-2423,-17444,-3434,75,-2,25
1,389,17641,-2565,-16667,-4050,78,-142,51
1,390,17646,-1664,-16351,-3857,82,-36,82
1,391,17651,-1083,-16115,-2121,83,217,47
1,392,17656,-1222,-16094,-690,100,320,22
1,393,17661,-2076,-16461,-968,115,229,41
1,394,17666,-2609,-16655,-2826,127,137,43
1,395,17671,-2862,-16553,-3499,119,223,25
1,396,17676,-3092,-16662,-3275,112,356,20
1,397,17681,-3186,-16715,-2352,113,409,5
1,398,17686,-3236,-16505,-2250,123,354,-6
1,399,17691,-3476,-16474,-2013,136,308,1
1,400,17696,-3868,-16446,-1348,142,305,-4
1,401,17701,-4093,-16229,-717,140,311,-16
1,402,17706,-3931,-16179,-705,142,294,-19
1,403,17711,-3431,-16258,-1114,152,262,-23
1,404,17716,-2817,-16450,-1220,160,223,-28
1,405,17721,-2832,-16513,-1223,163,145,-23
1,406,17726,-3289,-16529,-957,165,5,-14
1,407,17731,-3350,-16276,-662,167,-175,-4
1,408,17736,-3125,-16391,-273,174,-344,33
1,409,17741,-2868,-16210,473,169,-465,39
1,410,17746,-3526,-15940,1643,166,-575,38
1,411,17751,-4832,-15860,3057,164,-739,44
1,412,17756,-5156,-16442,1684,185,-1122,75
1,413,17761,-4258,-16653,1021,161,-1168,76
1,414,17766,-6028,-14879,2843,146,-1181,88
1,415,17771,-3390,-16582,-1849,169,-1381,144
1,416,17776,-467,-17455,-3678,132,-1326,84
1,417,17781,-2435,-16686,2835,42,-1109,32
1,418,17786,-4948,-15014,3017,65,-1549,94
1,419,17791,-4297,-15584,1958,99,-1959,153
1,420,17796,-2947,-15752,-1294,116,-1993,153
1,421,17801,-1105,-16715,-1016,99,-1687,154
1,422,17806,-2748,-16456,-216,71,-1473,101
1,423,17811,-5284,-16502,-319,93,-1543,77
1,424,17816,-5537,-17038,-4834,124,-1560,126
1,425,17821,-3730,-17513,-6785,113,-1032,136
1,426,17826,-1809,-17517,-3888,76,-344,79
1,427,17831,-1802,-17264,685,67,-44,45
1,428,17836,-2485,-17302,1274,97,-237,77
1,429,17841,-2898,-17123,-790,128,-430,124
1,430,17846,-2744,-17172,-1031,113,-338,136
1,431,17851,-2794,-16997,1601,86,-194,144
1,432,17856,-2522,-17009,3548,81,-362,167
1,433,17861,-2533,-17063,2775,104,-746,204
1,434,17866,-2833,-17253,646,114,-1004,246
1,435,17871,-3430,-17301,-57,101,-1018,261
1,436,17876,-3742,-17348,469,88,-952,272
1,437,17881,-3180,-17452,563,91,-973,301
1,438,17886,-2602,-17579,-17,97,-1019,329
1,439,17891,-2920,-17584,-200,100,-1002,340
1,440,17896,-3599,-17359,139,95,-960,352
1,441,17901,-3695,-17228,439,89,-925,379
1,442,17906,-2998,-17257,391,91,-908,409
1,443,17911,-2269,-17369,444,88,-878,431
1,444,17916,-2411,-17331,986,85,-868,442
1,445,17921,-2933,-17352,1045,90,-925,470
1,446,17926,-3190,-17491,408,95,-993,505
1,447,17931,-2888,-17587,-117,94,-990,534
1,448,17936,-2570,-17689,237,92,-945,551
1,449,17941,-2629,-17607,969,95,-952,573
1,450,17946,-2858,-17555,1008,102,-1024,597
1,451,17951,-3134,-17435,455,110,-1097,626
1,452,17956,-3203,-17313,106,112,-1109,656
1,453,17961,-3023,-17221,140,114,-1080,677
1,454,17966,-2947,-17095,449,118,-1048,690
1,455,17971,-3152,-17066,482,125,-1049,707
1,456,17976,-3602,-16884,242,129,-1051,728
1,457,17981,-3670,-16719,86,136,-1031,744
1,458,17986,-3587,-16415,522,139,-980,759
1,459,17991,-3591,-16164,1085,139,-953,771
1,460,17996,-3604,-15931,1223,143,-967,786
1,461,18001,-3625,-15575,1283,151,-995,804
1,462,18006,-3597,-15350,1503,152,-1027,818
1,463,18011,-3603,-15275,1805,155,-1051,834
1,464,18016,-3410,-15179,1710,156,-1080,844
1,465,18021,-3179,-15187,1463,162,-1087,859
1,466,18026,-3302,-15166,1096,166,-1081,864
1,467,18031,-3574,-15144,892,171,-1071,870
1,468,18036,-3584,-15267,486,174,-1045,881
1,469,18041,-3410,-15296,206,181,-973,891
1,470,18046,-3451,-15330,165,181,-858,885
1,471,18051,-3869,-15254,502,179,-749,881
1,472,18056,-4087,-15209,746,185,-689,885
1,473,18061,-4100,-15193,913,192,-655,884
1,474,18066,-3882,-15175,1160,193,-631,888
1,475,18071,-3787,-14996,1636,196,-628,884
1,476,18076,-3933,-14914,1915,203,-673,889
1,477,18081,-4064,-14929,1694,208,-744,892
1,478,18086,-4063,-14983,1201,210,-778,891
1,479,18091,-4271,-14991,1055,210,-747,886
1,480,18096,-4451,-15012,1160,205,-702,874
1,481,18101,-4575,-15029,1415,210,-665,863
1,482,18106,-4274,-15097,1216,213,-648,860
1,483,18111,-4065,-15210,1176,215,-601,854
1,484,18116,-4083,-15290,1240,214,-549,837
1,485,18121,-4427,-15384,1417,214,-516,821
1,486,18126,-4794,-15339,1219,214,-490,803
1,487,18131,-4810,-15333,1326,215,-455,780
1,488,18136,-4925,-15285,1543,213,-420,763
1,489,18141,-5129,-15193,1853,216,-423,751
1,490,18146,-5179,-15047,1842,213,-467,737
1,491,18151,-5146,-15046,1851,212,-507,719
1,492,18156,-5045,-15094,2021,208,-526,700
1,493,18161,-5098,-15103,2105,204,-542,683
1,494,18166,-5212,-15114,1977,203,-558,660
1,495,18171,-5336,-15107,1783,200,-575,636
1,496,18176,-5414,-15138,1774,197,-578,616
1,497,18181,-5214,-15265,1708,195,-564,592
1,498,18186,-5053,-15450,1759,188,-535,565
1,499,18191,-5063,-15614,1869,182,-503,536
1,500,18196,-5351,-15752,1966,177,-479,509
1,501,18201,-5521,-15819,1866,173,-467,484
1,502,18206,-5535,-15896,1745,169,-442,458
1,503,18211,-5542,-15903,1903,160,-403,423
1,504,18216,-5652,-15878,2251,149,-377,390
1,505,18221,-5699,-15823,2438,143,-385,364
1,506,18226,-5666,-15952,2420,140,-410,345
1,507,18231,-5503,-15958,2168,132,-425,307
1,508,18236,-5467,-15976,2201,120,-437,269
1,509,18241,-5433,-15939,2222,112,-474,243
1,510,18246,-5348,-15886,2208,103,-523,211
1,511,18251,-5395,-15941,1891,97,-559,177
1,512,18256,-5473,-16097,1532,90,-554,145
1,513,18261,-5473,-16188,1375,82,-529,111
1,514,18266,-5443,-16126,1529,73,-505,72
1,515,18271,-5352,-16054,1834,63,-503,40
1,516,18276,-5376,-16085,1990,54,-516,6
1,517,18281,-5383,-16020,1790,50,-530,-37
1,518,18286,-5309,-16026,1923,40,-540,-71
1,519,18291,-5253,-15999,2260,29,-573,-102
1,520,18296,-5106,-15896,2299,22,-641,-134
1,521,18301,-4765,-15787,2078,17,-707,-160
1,522,18306,-4587,-15702,1822,6,-749,-196
1,523,18311,-4598,-15653,1806,-7,-773,-227
1,524,18316,-4633,-15620,1843,-19,-792,-260
1,525,18321,-4633,-15636,1539,-27,-792,-289
1,526,18326,-4575,-15747,1152,-33,-757,-321
1,527,18331,-4377,-15823,1085,-45,-698,-359
1,528,18336,-4236,-15807,1408,-58,-661,-396
1,529,18341,-4167,-15790,1536,-66,-659,-428
1,530,18346,-4070,-15721,1267,-74,-660,-458
1,531,18351,-3924,-15631,1003,-86,-631,-487
1,532,18356,-3683,-15513,953,-95,-575,-519
1,533,18361,-3547,-15442,1038,-106,-509,-551
1,534,18366,-3686,-15405,1108,-113,-453,-582
1,535,18371,-3913,-15264,994,-119,-400,-609
1,536,18376,-3724,-15096,932,-126,-331,-635
1,537,18381,-3356,-14994,1106,-140,-248,-662
1,538,18386,-3237,-14936,1572,-152,-184,-690
1,539,18391,-3389,-14956,1795,-156,-163,-721
1,540,18396,-3612,-14946,1616,-162,-169,-743
1,541,18401,-3604,-14918,1435,-169,-165,-762
1,542,18406,-3525,-14920,1636,-176,-150,-780
1,543,18411,-3367,-14962,1865,-184,-143,-806
1,544,18416,-3338,-15072,1931,-193,-161,-830
1,545,18421,-3476,-15162,1905,-193,-195,-844
1,546,18426,-3698,-15146,1865,-204,-230,-868
1,547,18431,-3773,-15164,1856,-213,-264,-885
1,548,18436,-3389,-15209,1776,-220,-284,-898
1,549,18441,-2967,-15324,1666,-225,-287,-913
1,550,18446,-2596,-15318,1341,-230,-281,-930
1,551,18451,-2467,-15352,1002,-234,-263,-944
1,552,18456,-2354,-15500,505,-239,-221,-952
1,553,18461,-2123,-15654,-35,-241,-128,-963
1,554,18466,-2010,-15754,-415,-250,26,-983
1,555,18471,-2043,-15869,-374,-258,206,-1000
1,556,18476,-1994,-15948,-386,-257,372,-1016
1,557,18481,-1824,-16068,-320,-256,516,-1025
1,558,18486,-1922,-16134,144,-259,635,-1038
1,559,18491,-2590,-16178,1128,-260,747,-1058
1,560,18496,-2548,-16211,1383,-256,744,-1054
1,561,18501,-2520,-16264,1838,-257,692,-1060
1,562,18506,-2761,-16368,2357,-257,588,-1067
1,563,18511,-3045,-16463,2449,-253,441,-1063
1,564,18516,-3076,-16480,2005,-252,299,-1064
1,565,18521,-3164,-16464,1753,-257,209,-1068
1,566,18526,-3175,-16522,1644,-262,140,-1069
1,567,18531,-3820,-16454,1995,-267,77,-1075
1,568,18536,-2275,-16732,746,-263,11,-1057
1,569,18541,-2154,-16197,363,-272,20,-1085
1,570,18546,-2825,-17017,1081,-290,118,-1097
1,571,18551,-4330,-15938,1388,-280,80,-1094
1,572,18556,-1809,-16758,-482,-275,71,-1064
1,573,18561,-1492,-16364,-372,-293,265,-1094
1,574,18566,-1046,-16759,979,-304,379,-1112
1,575,18571,-1885,-16352,1727,-304,325,-1111
1,576,18576,-1636,-16760,-72,-290,221,-1087
1,577,18581,-2481,-16935,-796,-297,315,-1092
1,578,18586,-2755,-16972,-122,-308,457,-1108
1,579,18591,-2701,-16902,1185,-312,529,-1112
1,580,18596,-2199,-16764,1428,-305,465,-1106
1,581,18601,-2077,-16744,1476,-299,378,-1106
1,582,18606,-2610,-16582,1821,-300,283,-1108
1,583,18611,-2850,-16461,2185,-308,173,-1103
1,584,18616,-2697,-16288,2202,-311,47,-1092
1,585,18621,-2056,-16386,1756,-313,-49,-1080
1,586,18626,-1669,-16339,1354,-322,-102,-1082
1,587,18631,-1709,-16227,1375,-325,-134,-1083
1,588,18636,-1620,-16250,908,-332,-166,-1077
1,589,18641,-1644,-16220,436,-336,-137,-1074
1,590,18646,-1535,-16357,40,-346,-41,-1078
1,591,18651,-1372,-16299,-85,-354,81,-1084
1,592,18656,-1184,-16534,105,-358,190,-1085
1,593,18661,-1480,-16656,471,-359,249,-1092
1,594,18666,-1545,-16719,611,-357,265,-1092
1,595,18671,-1472,-16583,682,-359,289,-1089
1,596,18676,-1084,-16531,862,-361,297,-1086
1,597,18681,-1173,-15443,883,-363,278,-1083
1,598,18686,15563,-22513,-19135,-289,301,-1094
1,599,18691,-21003,-15680,-14757,-266,2374,-1378
1,600,18696,-32768,-3630,22472,-223,4740,177
1,601,18701,13527,-10922,5875,331,3768,2222
1,602,18706,32767,-26946,17388,231,5119,731
1,603,18711,16107,-21277,30557,-161,5316,-1362
1,604,18716,-32768,-7580,32005,-59,-1385,-967
1,605,18721,-32768,-1686,12611,505,-12510,1239
1,606,18726,3586,-16500,-32666,441,-14436,2814
1,607,18731,32767,-31347,-32768,40,-4855,1634
1,608,18736,21420,-26575,-2007,-346,6485,-1363
1,609,18741,-32768,-4495,32767,-583,6682,-2110
1,610,18746,-32768,-5838,3938,525,-4363,888
1,611,18751,10715,-22894,-32768,751,-7219,2542
1,612,18756,32767,-25556,-28689,-15,1220,531
1,613,18761,14924,-18598,15182,-315,7866,-1361
1,614,18766,-32491,-8319,32767,-388,6410,-1310
1,615,18771,-28394,-8777,8710,341,-2652,690
1,616,18776,12505,-18814,-32077,517,-5714,1758
1,617,18781,27483,-20245,-19339,-101,-1115,493
1,618,18786,5834,-16600,20875,-233,2678,-663
1,619,18791,-22178,-12111,32767,-112,1543,-559
1,620,18796,-17463,-12767,-5531,371,-2976,601
1,621,18801,8498,-20336,-32768,312,-3568,1066
1,622,18806,13328,-19491,-10574,-147,-60,151
1,623,18811,1000,-16775,19480,-205,1633,-432
1,624,18816,-12320,-15147,18755,33,490,-185
1,625,18821,-6619,-17232,-13786,282,-1241,391
1,626,18826,3530,-18263,-18998,118,-265,355
1,627,18831,5838,-17179,4662,-124,1181,-94
1,628,18836,-1003,-15534,21708,-97,857,-289
1,629,18841,-5897,-15433,10891,138,-893,5
1,630,18846,-1471,-17943,-11447,233,-1704,328
1,631,18851,1342,-17307,-9966,34,-485,116
1,632,18856,236,-15987,12299,-3,-461,-91
1,633,18861,-1307,-16623,199,142,-1258,37
1,634,18866,-171,-17629,-10929,137,-926,101
1,635,18871,148,-16837,-4765,-8,264,-40
1,636,18876,934,-15846,5882,-63,632,-135
1,637,18881,1307,-16452,6700,19,128,-88
1,638,18886,779,-17338,-1592,90,-246,-34
1,639,18891,-738,-17410,-4929,69,158,-65
1,640,18896,-1867,-16078,705,-14,700,-141
1,641,18901,-1079,-15971,5833,-17,572,-99
1,642,18906,732,-16523,4452,45,72,-67
1,643,18911,888,-16695,-302,64,-155,-88
1,644,18916,-1121,-16710,-199,36,14,-103
1,645,18921,-2266,-16190,2703,7,43,-113
1,646,18926,-1419,-16185,3090,24,-226,-77
1,647,18931,321,-16907,472,51,-427,-58
1,648,18936,47,-16923,-739,42,-291,-98
1,649,18941,-1422,-16562,604,25,-124,-128
1,650,18946,-1850,-16161,1656,22,-157,-111
1,651,18951,-609,-16271,554,34,-261,-82
1,652,18956,406,-16603,-385,38,-166,-92
1,653,18961,-87,-16596,495,25,42,-127
1,654,18966,-1272,-16449,1690,21,97,-138
1,655,18971,-1454,-16367,1355,33,-24,-111
1,656,18976,-537,-16415,442,38,-84,-92
1,657,18981,250,-16470,569,33,5,-102
1,658,18986,101,-16351,1768,23,92,-123
1,659,18991,-670,-16212,2090,24,31,-116
1,660,18996,-1271,-16295,1116,37,-89,-93
1,661,19001,-1126,-16421,278,38,-100,-90
1,662,19006,-771,-16452,806,29,-13,-94
1,663,19011,-792,-16382,1898,26,30,-102
1,664,19016,-982,-16298,2162,30,-39,-100
1,665,19021,-995,-16228,1502,35,-135,-89
1,666,19026,-811,-16226,1229,34,-168,-82
1,667,19031,-697,-16263,1554,29,-173,-83
1,668,19036,-654,-16340,1777,28,-206,-83
1,669,19041,-605,-16395,1286,30,-250,-78
1,670,19046,-484,-16342,676,34,-250,-71
1,671,19051,-245,-16379,501,32,-193,-69
1,672,19056,-136,-16420,736,26,-127,-71
1,673,19061,-119,-16522,687,24,-85,-68
1,674,19066,-171,-16513,367,27,-31,-66
1,675,19071,-345,-16440,243,29,49,-68
1,676,19076,-503,-16458,631,26,128,-66
1,677,19081,-536,-16442,1047,24,170,-64
1,678,19086,-474,-16407,1186,27,175,-59
1,679,19091,-457,-16349,1376,33,168,-54
1,680,19096,-648,-16316,1745,34,137,-50
1,681,19101,-811,-16363,1715,35,74,-41
1,682,19106,-995,-16444,1651,33,18,-34
1,683,19111,-928,-16511,1500,41,-38,-28
1,684,19116,-986,-16468,1446,38,-62,-26
1,685,19121,-802,-16486,1424,39,-92,-24
1,686,19126,-702,-16414,1256,42,-118,-16
1,687,19131,-686,-16379,999,40,-122,-15
1,688,19136,-717,-16392,891,42,-107,-13
1,689,19141,-654,-16381,729,42,-72,-15
1,690,19146,-485,-16365,623,42,-20,-9
1,691,19151,-420,-16399,666,39,36,-7
1,692,19156,-527,-16376,893,39,96,-12
1,693,19161,-572,-16371,971,44,133,-6
1,694,19166,-553,-16315,996,45,165,1
1,695,19171,-573,-16310,1148,43,198,4
1,696,19176,-827,-16415,1391,38,206,4
1,697,19181,-1020,-16454,1621,43,183,7
1,698,19186,-959,-16344,1596,44,154,10
1,699,19191,-915,-16559,1588,49,120,26
1,700,19196,-1021,-16506,1758,49,86,23
1,701,19201,-1216,-16501,1826,48,33,22
1,702,19206,-1345,-16479,1731,51,-25,30
1,703,19211,-1312,-16429,1539,51,-60,34
1,704,19216,-1182,-16396,1379,50,-80,37
1,705,19221,-1042,-16360,1365,45,-87,34
1,706,19226,-1024,-16302,1214,44,-90,38
1,707,19231,-946,-16384,1000,43,-69,38
1,708,19236,-815,-16437,913,42,-40,40
1,709,19241,-769,-16428,990,42,-10,42
1,710,19246,-734,-16441,1130,40,16,40
1,711,19251,-770,-16438,1076,42,30,40
1,712,19256,-775,-16442,1102,43,41,46
1,713,19261,-741,-16434,1052,44,54,49
1,714,19266,-740,-16428,1153,42,64,50
1,715,19271,-780,-16456,1300,42,63,51
1,716,19276,-844,-16461,1367,42,47,55
1,717,19281,-933,-16503,1363,42,37,58
1,718,19286,-1004,-16477,1377,39,33,57
1,719,19291,-1012,-16412,1416,41,25,57
1,720,19296,-1163,-16462,1541,41,0,64
1,721,19301,-1077,-16523,1560,42,-30,66
1,722,19306,-734,-16568,1345,41,-58,63
1,723,19311,-1076,-16482,1585,34,-60,61
1,724,19316,-1280,-16435,1568,39,-84,64
1,725,19321,-903,-16442,1222,39,-104,72
1,726,19326,-438,-16487,1000,37,-83,73
1,727,19331,-470,-16556,1112,31,-50,66
1,728,19336,-815,-16517,1316,31,-45,63
1,729,19341,-1025,-16449,807,33,-50,70
1,730,19346,-1316,-16358,1783,36,-12,73
1,731,19351,636,-17185,-639,36,-36,84
1,732,19356,-1366,-16353,2724,17,135,54
1,733,19361,-489,-16708,429,34,-16,74
1,734,19366,-922,-16389,1612,33,19,80
1,735,19371,-620,-16696,492,33,12,77
1,736,19376,-1007,-16553,1426,27,78,71
1,737,19381,-838,-16589,1561,28,54,81
1,738,19386,-944,-16504,1789,25,45,73
1,739,19391,-843,-16455,1311,36,-4,79
1,740,19396,-860,-16505,1439,26,-7,77
1,741,19401,-916,-16349,1533,27,-44,75
1,742,19406,-892,-16469,1583,24,-72,79
1,743,19411,-909,-16423,1297,27,-84,79
1,744,19416,-764,-16465,1063,31,-66,83
1,745,19421,-803,-16395,1228,22,-33,74
1,746,19426,-819,-16334,1430,18,-28,74
1,747,19431,-782,-16315,1432,20,-38,77
1,748,19436,-716,-16290,1260,22,-37,73
1,749,19441,-608,-16313,1222,21,-18,75
1,750,19446,-599,-16263,1366,16,3,73
1,751,19451,-634,-16255,1393,14,2,75
1,752,19456,-766,-16263,1353,16,-3,74
1,753,19461,-807,-16322,1202,16,4,78
1,754,19466,-806,-16370,1137,12,28,74
1,755,19471,-763,-16390,1228,11,50,71
1,756,19476,-853,-16435,1381,10,60,70
1,757,19481,-890,-16463,1394,12,58,65
1,758,19486,-909,-16452,1331,11,55,65
1,759,19491,-996,-16405,1391,10,61,61
1,760,19496,-1122,-16400,1567,9,61,59
1,761,19501,-1086,-16355,1623,7,46,60
1,762,19506,-987,-16306,1595,8,26,58
1,763,19511,-953,-16283,1579,9,4,58
1,764,19516,-1101,-16309,1691,6,-21,59
1,765,19521,-1139,-16324,1590,5,-47,58
1,766,19526,-1053,-16270,1360,6,-60,57
1,767,19531,-857,-16320,1274,7,-58,54
1,768,19536,-861,-16331,1358,5,-49,50
1,769,19541,-923,-16331,1327,2,-50,48
1,770,19546,-954,-16369,1156,4,-54,49
1,771,19551,-833,-16376,1022,4,-32,48
1,772,19556,-728,-16376,1073,1,2,46
1,773,19561,-753,-16346,1202,1,29,41
1,774,19566,-862,-16382,1236,0,40,42
1,775,19571,-846,-16449,1221,1,42,42
1,776,19576,-923,-16499,1252,1,46,40
1,777,19581,-941,-16525,1307,0,57,36
1,778,19586,-960,-16466,1489,4,31,39
1,779,19591,-894,-16412,1478,5,6,40
1,780,19596,-923,-16343,1409,4,-18,41
1,781,19601,-953,-16332,1331,4,-30,40
1,782,19606,-955,-16277,1329,0,-28,38
1,783,19611,-946,-16285,1336,0,-23,35
1,784,19616,-903,-16308,1324,3,-13,32
1,785,19621,-794,-16255,1368,4,1,32
1,786,19626,-805,-16228,1398,1,14,31
1,787,19631,-852,-16238,1380,1,23,30
1,788,19636,-809,-16203,1372,-3,27,30
1,789,19641,-786,-16211,1381,-3,30,30
1,790,19646,-822,-16306,1392,-1,45,29
1,791,19651,-899,-16355,1376,0,50,30
1,792,19656,-1036,-16373,1320,-2,48,28
1,793,19661,-1111,-16376,1314,-1,45,27
1,794,19666,-1142,-16380,1452,-2,50,25
1,795,19671,-1098,-16399,1587,-6,44,21
1,796,19676,-1108,-16395,1596,-3,28,23
1,797,19681,-1216,-16368,1532,-2,9,24
1,798,19686,-1302,-16359,1478,-1,-6,19
1,799,19691,-1244,-16347,1507,-4,-18,18
1,800,19696,-1160,-16343,1575,-4,-28,16
1,801,19701,-1086,-16366,1507,-4,-34,15
1,802,19706,-1047,-16410,1436,-3,-36,15
1,803,19711,-1121,-16409,1435,-5,-34,12
1,804,19716,-1161,-16398,1347,-4,-29,12
1,805,19721,-1160,-16365,1274,-5,-19,11
1,806,19726,-989,-16306,1276,-5,-10,11
1,807,19731,-763,-16296,1293,-6,5,7
1,808,19736,-789,-16288,1326,-6,16,8
1,809,19741,-868,-16284,1276,-5,24,6
1,810,19746,-880,-16325,1193,-8,32,5
1,811,19751,-855,-16341,1170,-7,51,5
1,812,19756,-880,-16351,1181,-7,75,4
1,813,19761,-992,-16391,1282,-7,88,3
1,814,19766,-1009,-16438,1273,-8,89,1
1,815,19771,-1176,-16456,1284,-6,86,2
1,816,19776,-1209,-16490,1378,-6,79,3
1,817,19781,-1140,-16520,1476,-6,58,-1
1,818,19786,-1099,-16526,1475,-2,39,1
1,819,19791,-1046,-16535,1431,-2,20,0
1,820,19796,-1100,-16482,1388,-1,-4,2
1,821,19801,-1131,-16478,1344,-2,-19,2
1,822,19806,-1235,-16479,1213,-1,-27,-1
1,823,19811,-1201,-16446,1117,-2,-17,-2
1,824,19816,-1084,-16445,1178,-2,4,-1
1,825,19821,-1018,-16401,1277,-3,20,-5
1,826,19826,-973,-16402,1367,0,22,-5
1,827,19831,-976,-16408,1354,1,18,-2
1,828,19836,-971,-16375,1351,0,10,-5
1,829,19841,-969,-16353,1423,-1,5,-6
1,830,19846,-984,-16376,1417,-4,0,-3
1,831,19851,-982,-16383,1410,-2,1,-1
1,832,19856,-1001,-16413,1327,1,7,-3
1,833,19861,-1017,-16398,1312,-3,20,-3
1,834,19866,-1125,-16406,1338,-4,33,-6
1,835,19871,-1186,-16427,1345,-3,42,-6
1,836,19876,-1178,-16454,1383,-3,50,-6
1,837,19881,-1249,-16454,1476,-3,56,-7
1,838,19886,-1273,-16442,1519,-3,56,-10
1,839,19891,-1221,-16401,1564,-2,46,-11
1,840,19896,-1168,-16370,1627,-5,28,-12
1,841,19901,-1141,-16298,1641,-6,6,-11
1,842,19906,-1056,-16306,1582,-6,-12,-9
1,843,19911,-1101,-16305,1424,-6,-22,-9
1,844,19916,-1176,-16342,1260,-5,-23,-10
1,845,19921,-1173,-16336,1204,-8,-21,-11
1,846,19926,-1133,-16349,1223,-10,-13,-13
1,847,19931,-1025,-16398,1191,-8,-1,-12
1,848,19936,-872,-16379,1228,-7,14,-12
1,849,19941,-830,-16364,1267,-8,26,-13
1,850,19946,-825,-16345,1247,-8,33,-13
1,851,19951,-826,-16323,1164,-7,37,-10
1,852,19956,-880,-16435,1121,-12,65,-10
1,853,19961,-960,-16440,1195,-9,80,-8
1,854,19966,-1016,-16479,1189,-8,88,-10
1,855,19971,-1133,-16521,1288,-9,91,-10
1,856,19976,-1192,-16518,1400,-7,88,-9
1,857,19981,-1250,-16532,1448,-8,78,-8
1,858,19986,-1240,-16532,1489,-9,57,-7
1,859,19991,-1256,-16510,1570,-9,37,-9
1,860,19996,-1266,-16477,1553,-8,15,-9
1,861,20001,-1252,-16473,1576,-8,-9,-9
1,862,20006,-1195,-16449,1477,-8,-26,-5
1,863,20011,-1203,-16429,1328,-9,-27,-2
1,864,20016,-1226,-16385,1224,-12,-17,-5
1,865,20021,-1263,-16402,1254,-11,-6,-6
1,866,20026,-1231,-16383,1281,-12,6,-9
1,867,20031,-1117,-16412,1330,-12,25,-9
1,868,20036,-1120,-16416,1299,-14,48,-11
1,869,20041,-1184,-16415,1310,-16,63,-11
1,870,20046,-1221,-16420,1384,-17,70,-14
1,871,20051,-1156,-16405,1452,-17,64,-10
1,872,20056,-1059,-16412,1387,-15,53,-6
1,873,20061,-1060,-16435,1363,-16,45,-7
1,874,20066,-1177,-16455,1363,-16,37,-9
1,875,20071,-1258,-16481,1259,-15,28,-6
1,876,20076,-1254,-16541,1130,-14,25,-6
1,877,20081,-1183,-16525,1160,-16,28,-8
1,878,20086,-1177,-16494,1284,-18,34,-7
1,879,20091,-1254,-16501,1280,-16,32,-6
1,880,20096,-1305,-16481,1213,-15,24,-7
1,881,20101,-1331,-16481,1154,-12,18,-6
1,882,20106,-1292,-16475,1300,-13,9,-5
1,883,20111,-1227,-16448,1370,-13,-1,-5
1,884,20116,-1201,-16390,1395,-13,-12,-4
1,885,20121,-1187,-16373,1356,-11,-22,-4
1,886,20126,-1216,-16338,1300,-12,-24,-2
1,887,20131,-1200,-16358,1264,-10,-19,-4
1,888,20136,-1191,-16314,1232,-11,-12,-5
1,889,20141,-1132,-16330,1228,-12,-5,-4
1,890,20146,-1095,-16313,1211,-13,7,-4
1,891,20151,-1086,-16340,1185,-14,16,-2
1,892,20156,-1047,-16343,1232,-12,28,-2
1,893,20161,-1045,-16344,1248,-14,37,-4
1,894,20166,-1027,-16307,1285,-13,38,-4
1,895,20171,-1070,-16308,1263,-11,35,-2
1,896,20176,-1135,-16286,1205,-12,31,-1
1,897,20181,-1180,-16318,1198,-11,31,-2
1,898,20186,-1167,-16369,1302,-13,24,-2
1,899,20191,-1187,-16345,1311,-10,17,-1
1,900,20196,-1206,-16309,1281,-8,12,1
1,901,20201,-1189,-16270,1216,-9,6,1
1,902,20206,-1139,-16270,1239,-7,0,4
1,903,20211,-1058,-16290,1301,-9,-6,3
1,904,20216,-1112,-16313,1254,-8,-8,4
1,905,20221,-1249,-16365,1126,-7,-11,0
1,906,20226,-1345,-16382,1053,-6,-4,0
1,907,20231,-1315,-16358,1111,-9,10,-1
1,908,20236,-1176,-16337,1279,-9,21,-1
1,909,20241,-1046,-16382,1393,-6,23,-1
1,910,20246,-1039,-16425,1355,-8,17,-2
1,911,20251,-1122,-16376,1191,-6,15,-2
1,912,20256,-1260,-16399,1180,-3,17,-2
1,913,20261,-1264,-16439,1210,-6,16,2
1,914,20266,-1229,-16438,1256,-9,20,1
1,915,20271,-1175,-16422,1337,-7,23,1
1,916,20276,-1223,-16425,1388,-4,20,-1
1,917,20281,-1245,-16428,1404,-7,9,-2
1,918,20286,-1235,-16466,1331,-9,-4,-2
1,919,20291,-1190,-16514,1364,-8,-20,-1
1,920,20296,-1190,-16545,1328,-7,-35,3
1,921,20301,-1229,-16544,1208,-6,-32,2
1,922,20306,-1315,-16537,1102,-5,-23,-3
1,923,20311,-1312,-16501,1071,-7,-10,-5
1,924,20316,-1172,-16455,1183,-7,-1,-2
1,925,20321,-826,-16443,1272,-4,3,-2
1,926,20326,-930,-16399,1234,-5,2,-4
1,927,20331,-1044,-16365,1162,-8,-2,-3
1,928,20336,-1106,-16424,1123,-5,5,-2
1,929,20341,-1070,-16452,1130,-4,20,2
1,930,20346,-1084,-16427,1188,-5,37,-1
1,931,20351,-1139,-16445,1298,-7,47,-6
1,932,20356,-1140,-16396,1357,-7,41,-7
1,933,20361,-1120,-16350,1330,-6,35,-3
1,934,20366,-1082,-16369,1347,-3,29,0
1,935,20371,-1082,-16368,1405,-6,24,-2
1,936,20376,-1089,-16382,1470,-5,20,-5
1,937,20381,-1196,-16346,1379,-4,15,-5
1,938,20386,-1273,-16324,1322,-5,12,-4
1,939,20391,-1214,-16285,1426,-6,9,-5
1,940,20396,-1090,-16299,1528,-10,3,-6
1,941,20401,-1048,-16287,1540,-10,-8,-4
1,942,20406,-1117,-16278,1479,-9,-22,-3
1,943,20411,-1224,-16301,1299,-9,-24,-5
1,944,20416,-1216,-16347,1242,-11,-18,-5
1,945,20421,-1126,-16350,1260,-11,-8,-5
1,946,20426,-1096,-16380,1298,-13,1,-2
1,947,20431,-1101,-16408,1298,-13,5,-5
1,948,20436,-1162,-16399,1211,-13,7,-13
1,949,20441,-1198,-16478,1197,-12,10,-8
1,950,20446,-1197,-16462,1152,-14,16,-5
1,951,20451,-1143,-16517,1195,-16,21,-9
1,952,20456,-1153,-16517,1235,-15,22,-9
1,953,20461,-1134,-16527,1176,-12,18,-11
1,954,20466,-1169,-16549,1175,-14,12,-13
1,955,20471,-1240,-16542,1151,-13,6,-12
1,956,20476,-1235,-16538,1151,-13,-3,-11
1,957,20481,-1202,-16557,1201,-15,-6,-12
1,958,20486,-1190,-16563,1232,-15,-10,-12
1,959,20491,-1129,-16521,1213,-14,-24,-14
1,960,20496,-1050,-16512,1148,-10,-31,-14
1,961,20501,-1035,-16480,1150,-9,-40,-15
1,962,20506,-1003,-16443,1115,-9,-44,-13
1,963,20511,-994,-16414,1096,-11,-40,-16
1,964,20516,-956,-16382,1037,-8,-25,-12
1,965,20521,-960,-16370,1055,-12,-8,-12
1,966,20526,-995,-16416,1043,-12,9,-16
1,967,20531,-979,-16421,1177,-12,22,-16
1,968,20536,-959,-16363,1220,-11,27,-14
1,969,20541,-885,-16383,1245,-13,28,-14
1,970,20546,-927,-16431,1225,-12,29,-15
1,971,20551,-1023,-16421,1197,-11,29,-14
1,972,20556,-1098,-16433,1180,-11,24,-16
1,973,20561,-1136,-16432,1157,-10,18,-16
1,974,20566,-1125,-16435,1163,-11,18,-16
1,975,20571,-1156,-16447,1085,-9,28,-14
1,976,20576,-1228,-16406,1152,-7,36,-15
1,977,20581,-1269,-16367,1210,-9,36,-18
1,978,20586,-1282,-16420,1254,-10,35,-18
1,979,20591,-1234,-16427,1312,-10,28,-19
1,980,20596,-1204,-16422,1322,-9,16,-19
1,981,20601,-1144,-16378,1283,-10,-2,-24
1,982,20606,-1087,-16352,1306,-7,-19,-23
1,983,20611,-1096,-16348,1241,-9,-31,-19
1,984,20616,-1061,-16347,1169,-9,-34,-20
1,985,20621,-1034,-16419,1119,-7,-27,-20
1,986,20626,-999,-16377,1028,-10,-11,-21
1,987,20631,-1029,-16334,1049,-9,11,-21
1,988,20636,-1030,-16350,1098,-10,30,-23
1,989,20641,-1024,-16353,1163,-12,42,-24
1,990,20646,-1044,-16352,1182,-9,47,-24
1,991,20651,-1017,-16370,1233,-9,49,-21
1,992,20656,-997,-16386,1249,-10,44,-21
1,993,20661,-1095,-16424,1205,-9,37,-22
1,994,20666,-1141,-16515,1169,-9,29,-24
1,995,20671,-1207,-16553,1149,-9,26,-24
1,996,20676,-1270,-16565,1187,-9,20,-20
1,997,20681,-1241,-16495,1201,-10,17,-20
1,998,20686,-1228,-16450,1285,-9,8,-25
1,999,20691,-1181,-16442,1310,-7,-6,-24
2,0,24626,-890,-16473,907,7,3,-7
2,1,24631,-957,-16474,933,5,4,-5
2,2,24636,-963,-16445,930,5,3,-5
2,3,24641,-921,-16496,956,5,0,-7
2,4,24646,-950,-16489,975,5,-4,-5
2,5,24651,-879,-16449,999,7,-10,-4
2,6,24656,-877,-16433,1032,4,-14,-4
2,7,24661,-889,-16435,983,4,-21,-3
2,8,24666,-861,-16387,953,2,-24,-7
2,9,24671,-838,-16368,891,5,-25,-5
2,10,24676,-764,-16400,891,4,-28,-3
2,11,24681,-706,-16402,876,2,-28,-2
2,12,24686,-684,-16411,866,1,-21,-1
2,13,24691,-696,-16377,808,0,-14,-2
2,14,24696,-754,-16405,766,2,-2,1
2,15,24701,-823,-16414,880,1,15,3
2,16,24706,-794,-16410,870,1,27,0
2,17,24711,-798,-16436,1044,0,37,1
2,18,24716,-836,-16469,1038,0,31,1
2,19,24721,-935,-16409,1029,-3,17,4
2,20,24726,-969,-16415,1026,-1,9,5
2,21,24731,-1032,-16485,999,-2,5,2
2,22,24736,-1048,-16510,1025,-4,1,3
2,23,24741,-1053,-16458,1026,-1,-1,4
2,24,24746,-1097,-16443,1018,-2,-3,6
2,25,24751,-1039,-16387,1014,-3,-7,3
2,26,24756,-975,-16407,1038,-9,-6,1
2,27,24761,-957,-16431,1096,-8,-13,4
2,28,24766,-950,-16418,1064,-6,-19,2
2,29,24771,-942,-16387,1017,-5,-20,1
2,30,24776,-979,-16438,980,-2,-25,5
2,31,24781,-932,-16472,968,-8,-20,4
2,32,24786,-892,-16468,917,-9,-14,2
2,33,24791,-919,-16435,911,-7,-4,3
2,34,24796,-933,-16421,944,-6,3,2
2,35,24801,-875,-16391,969,-9,9,0
2,36,24806,-805,-16389,931,-7,17,0
2,37,24811,-789,-16399,980,-11,25,1
2,38,24816,-841,-16401,977,-11,26,0
2,39,24821,-881,-16461,904,-10,27,0
2,40,24826,-978,-16500,948,-9,27,2
2,41,24831,-1006,-16493,1014,-11,22,2
2,42,24836,-993,-16507,1027,-9,15,1
2,43,24841,-995,-16504,1068,-9,10,3
2,44,24846,-927,-16462,1063,-11,-4,5
2,45,24851,-882,-16439,1056,-12,-14,2
2,46,24856,-931,-16452,1053,-10,-27,0
2,47,24861,-951,-16398,989,-10,-35,1
2,48,24866,-981,-16436,929,-10,-41,4
2,49,24871,-971,-16440,915,-11,-29,2
2,50,24876,-980,-16421,877,-10,-20,0
2,51,24881,-936,-16416,839,-10,-16,0
2,52,24886,-887,-16442,906,-10,-9,3
2,53,24891,-833,-16433,964,-9,-5,1
2,54,24896,-791,-16419,966,-11,1,0
2,55,24901,-798,-16379,931,-12,6,0
2,56,24906,-839,-16392,885,-11,17,0
2,57,24911,-812,-16419,950,-11,24,0
2,58,24916,-754,-16423,1003,-10,27,2
2,59,24921,-798,-16426,994,-11,29,1
2,60,24926,-830,-16432,953,-7,27,1
2,61,24931,-883,-16455,918,-10,28,4
2,62,24936,-900,-16482,900,-10,25,4
2,63,24941,-930,-16469,956,-11,23,2
2,64,24946,-960,-16468,1001,-6,20,3
2,65,24951,-1024,-16457,971,-11,14,1
2,66,24956,-996,-16413,924,-9,6,0
2,67,24961,-973,-16452,973,-6,-1,4
2,68,24966,-1030,-16539,1014,-9,-6,3
2,69,24971,-1027,-16455,1105,-9,-10,3
2,70,24976,-968,-16409,1084,-8,-21,1
2,71,24981,-891,-16419,1014,-7,-27,0
2,72,24986,-874,-16402,926,-3,-35,3
2,73,24991,-848,-16390,984,-3,-41,6
2,74,24996,-813,-16362,1032,-4,-50,5
2,75,25001,-839,-16379,945,-3,-54,5
2,76,25006,-873,-16389,710,-4,-41,6
2,77,25011,-897,-16412,716,-3,-19,4
2,78,25016,-869,-16435,820,-6,2,0
2,79,25021,-828,-16428,886,-4,17,3
2,80,25026,-826,-16463,909,-4,21,5
2,81,25031,-868,-16478,907,-2,24,1
2,82,25036,-929,-16501,914,-2,27,2
2,83,25041,-1001,-16538,942,-2,20,4
2,84,25046,-1023,-16530,982,0,14,3
2,85,25051,-973,-16496,1006,2,7,3
2,86,25056,-909,-16449,1027,-1,0,3
2,87,25061,-873,-16481,1016,-1,-12,3
2,88,25066,-909,-16459,956,3,-21,4
2,89,25071,-986,-16526,941,3,-26,2
2,90,25076,-1067,-16489,860,6,-14,1
2,91,25081,-1030,-16435,960,3,-4,-3
2,92,25086,-963,-16392,1037,1,-2,-3
2,93,25091,-835,-16378,1121,6,-3,1
2,94,25096,-792,-16383,1140,7,-10,-1
2,95,25101,-874,-16377,1072,4,-22,-2
2,96,25106,-928,-16389,1045,6,-32,0
2,97,25111,-847,-16368,983,5,-32,0
2,98,25116,-805,-16340,996,5,-27,1
2,99,25121,-734,-16366,961,6,-21,1
2,100,25126,-785,-16382,910,7,-14,1
2,101,25131,-828,-16395,857,6,-8,-1
2,102,25136,-865,-16410,810,5,-3,0
2,103,25141,-886,-16489,904,7,13,1
2,104,25146,-891,-16497,930,6,30,-2
2,105,25151,-917,-16508,944,7,38,-1
2,106,25156,-908,-16477,971,8,36,0
2,107,25161,-993,-16547,995,8,29,-2
2,108,25166,-1013,-16575,1048,7,12,-1
2,109,25171,-1012,-16617,1053,11,0,-1
2,110,25176,-985,-16599,1010,12,-14,0
2,111,25181,-979,-16604,1010,12,-21,-2
2,112,25186,-1038,-16608,1023,13,-26,1
2,113,25191,-1019,-16576,959,12,-34,0
2,114,25196,-987,-16549,999,13,-35,-3
2,115,25201,-960,-16502,958,13,-34,-3
2,116,25206,-906,-16447,957,15,-33,-4
2,117,25211,-865,-16429,995,11,-31,-2
2,118,25216,-823,-16419,961,12,-32,-1
2,119,25221,-784,-16390,939,16,-28,1
2,120,25226,-786,-16415,935,12,-21,-4
2,121,25231,-793,-16388,858,13,-13,-2
2,122,25236,-778,-16394,772,17,2,-2
2,123,25241,-802,-16403,862,15,15,-1
2,124,25246,-792,-16419,882,15,24,0
2,125,25251,-832,-16449,872,12,34,-1
2,126,25256,-884,-16480,871,14,43,-3
2,127,25261,-1013,-16502,910,16,46,-1
2,128,25266,-1008,-16509,1008,13,44,-3
2,129,25271,-1024,-16531,1072,14,33,-6
2,130,25276,-1035,-16544,1090,15,18,-4
2,131,25281,-1057,-16501,1119,15,2,-2
2,132,25286,-1051,-16450,1118,16,-14,-1
2,133,25291,-1021,-16470,1128,18,-28,-2
2,134,25296,-1052,-16487,1020,16,-36,-1
2,135,25301,-1055,-16443,993,15,-41,-4
2,136,25306,-995,-16420,959,16,-38,-6
2,137,25311,-995,-16423,943,16,-32,-6
2,138,25316,-904,-16393,928,15,-23,-5
2,139,25321,-884,-16359,965,14,-18,-3
2,140,25326,-874,-16332,1028,14,-9,-7
2,141,25331,-889,-16316,1029,15,-7,-8
2,142,25336,-882,-16355,948,16,-8,-6
2,143,25341,-837,-16422,885,14,-4,-6
2,144,25346,-857,-16416,984,12,3,-7
2,145,25351,-868,-16397,1002,9,5,-7
2,146,25356,-879,-16406,1018,11,7,-6
2,147,25361,-896,-16380,994,12,8,-8
2,148,25366,-891,-16376,958,12,2,-3
2,149,25371,-920,-16449,964,13,-3,-6
2,150,25376,-997,-16421,927,14,-8,-7
2,151,25381,-978,-16367,874,14,-17,-6
2,152,25386,-964,-16381,929,13,-21,-7
2,153,25391,-895,-16406,1015,14,-25,-5
2,154,25396,-890,-16393,1003,16,-33,-5
2,155,25401,-915,-16389,908,17,-36,-5
2,156,25406,-919,-16377,874,16,-37,-3
2,157,25411,-895,-16398,909,14,-33,-4
2,158,25416,-925,-16446,922,15,-30,-5
2,159,25421,-889,-16447,875,14,-21,-8
2,160,25426,-847,-16425,882,15,-14,-6
2,161,25431,-892,-16407,934,13,-9,-6
2,162,25436,-883,-16390,922,12,-9,-7
2,163,25441,-821,-16433,960,10,-7,-8
2,164,25446,-784,-16364,942,15,-5,-2
2,165,25451,-852,-16436,864,13,4,-5
2,166,25456,-930,-16456,839,14,10,-6
2,167,25461,-956,-16399,926,15,17,-8
2,168,25466,-963,-16434,952,14,23,-7
2,169,25471,-1037,-16526,1054,11,24,-9
2,170,25476,-1015,-16487,1015,13,13,-11
2,171,25481,-984,-16491,1078,15,1,-10
2,172,25486,-991,-16464,1098,13,-18,-6
2,173,25491,-998,-16468,1065,13,-35,-6
2,174,25496,-1029,-16498,975,14,-47,-5
2,175,25501,-1062,-16552,886,12,-42,-8
2,176,25506,-1062,-16526,892,12,-31,-11
2,177,25511,-1090,-16486,900,9,-20,-13
2,178,25516,-1026,-16461,961,12,-10,-12
2,179,25521,-944,-16439,1007,11,-14,-13
2,180,25526,-894,-16403,1046,11,-16,-12
2,181,25531,-860,-16379,1113,10,-13,-12
2,182,25536,-880,-16350,1092,10,-12,-11
2,183,25541,-901,-16367,1002,9,-11,-11
2,184,25546,-868,-16411,956,8,-8,-9
2,185,25551,-862,-16403,991,8,-4,-10
2,186,25556,-877,-16421,987,7,-1,-11
2,187,25561,-871,-16457,950,7,6,-10
2,188,25566,-906,-16448,871,7,14,-12
2,189,25571,-919,-16482,886,5,18,-11
2,190,25576,-957,-16478,947,4,17,-12
2,191,25581,-934,-16457,1005,4,10,-13
2,192,25586,-922,-16460,1062,5,0,-10
2,193,25591,-935,-16513,1036,5,-6,-10
2,194,25596,-967,-16508,1022,3,-12,-13
2,195,25601,-999,-16495,1050,4,-20,-11
2,196,25606,-968,-16499,1067,6,-33,-7
2,197,25611,-935,-16459,1047,6,-44,-8
2,198,25616,-947,-16478,1056,4,-48,-11
2,199,25621,-912,-16445,1023,2,-44,-11
2,200,25626,-915,-16421,957,2,-36,-11
2,201,25631,-917,-16410,923,3,-31,-9
2,202,25636,-862,-16420,928,-2,-22,-10
2,203,25641,-810,-16393,1002,-1,-13,-12
2,204,25646,-786,-16375,998,1,1,-12
2,205,25651,-789,-16334,1005,-2,10,-10
2,206,25656,-785,-16331,1025,-3,16,-8
2,207,25661,-789,-16344,1034,-2,17,-11
2,208,25666,-823,-16404,1033,-5,16,-11
2,209,25671,-851,-16422,931,-7,13,-7
2,210,25676,-853,-16393,908,-5,16,-7
2,211,25681,-920,-16446,957,-3,16,-6
2,212,25686,-914,-16466,969,-4,11,-5
2,213,25691,-889,-16463,976,-5,7,-6
2,214,25696,-849,-16469,997,-7,-5,-8
2,215,25701,-842,-16451,982,-6,-17,-6
2,216,25706,-871,-16448,954,-1,-25,-7
2,217,25711,-889,-16451,924,-2,-32,-4
2,218,25716,-858,-16448,991,-4,-32,-6
2,219,25721,-826,-16410,976,-6,-29,-5
2,220,25726,-825,-16413,940,-6,-23,-6
2,221,25731,-842,-16384,899,-6,-12,-6
2,222,25736,-808,-16345,927,-4,-3,-4
2,223,25741,-773,-16316,938,-7,7,-3
2,224,25746,-760,-16344,989,-8,16,-5
2,225,25751,-731,-16350,1041,-8,24,-3
2,226,25756,-774,-16356,1049,-8,29,-2
2,227,25761,-838,-16371,1020,-7,31,-1
2,228,25766,-823,-16399,1045,-9,32,-1
2,229,25771,-832,-16416,1049,-10,34,0
2,230,25776,-815,-16468,1033,-9,28,0
2,231,25781,-884,-16474,1050,-10,23,-1
2,232,25786,-960,-16463,1014,-12,13,1
2,233,25791,-989,-16457,1030,-12,2,0
2,234,25796,-992,-16501,993,-10,-2,1
2,235,25801,-932,-16516,1011,-10,-8,0
2,236,25806,-935,-16483,1102,-10,-11,-1
2,237,25811,-1036,-16439,1065,-12,-25,2
2,238,25816,-1004,-16455,1040,-11,-21,0
2,239,25821,-976,-16500,1027,-13,-19,-2
2,240,25826,-1005,-16507,1023,-11,-15,-1
2,241,25831,-974,-16537,1064,-11,-13,1
2,242,25836,-918,-16534,1006,-13,-15,-2
2,243,25841,-920,-16545,978,-14,-12,-6
2,244,25846,-891,-16594,960,-15,-3,-3
2,245,25851,-950,-16635,962,-14,1,-5
2,246,25856,-978,-16565,940,-16,6,-7
2,247,25861,-953,-16564,862,-14,12,-3
2,248,25866,-942,-16555,966,-14,20,-7
2,249,25871,-967,-16543,985,-15,26,-8
2,250,25876,-963,-16613,973,-14,26,-7
2,251,25881,-1017,-16572,981,-14,19,-6
2,252,25886,-1062,-16598,1074,-12,11,-7
2,253,25891,-1021,-16541,989,-14,-6,-10
2,254,25896,-963,-16453,1096,-14,-13,-9
2,255,25901,-836,-16439,1067,-12,-26,-6
2,256,25906,-846,-16400,1090,-10,-35,-4
2,257,25911,-847,-16401,977,-11,-46,-9
2,258,25916,-950,-16357,855,-11,-43,-8
2,259,25921,-982,-16372,872,-10,-29,-5
2,260,25926,-926,-16360,886,-9,-7,-7
2,261,25931,-810,-16382,958,-12,10,-9
2,262,25936,-792,-16328,974,-11,14,-10
2,263,25941,-796,-16301,1008,-11,13,-11
2,264,25946,-824,-16299,1003,-9,8,-10
2,265,25951,-798,-16321,1011,-9,0,-8
2,266,25956,-815,-16315,986,-10,-6,-5
2,267,25961,-797,-16321,980,-11,-2,-5
2,268,25966,-851,-16313,965,-10,3,-8
2,269,25971,-896,-16313,922,-9,10,-9
2,270,25976,-913,-16340,936,-7,12,-5
2,271,25981,-953,-16408,909,-7,13,-4
2,272,25986,-974,-16422,936,-7,9,-6
2,273,25991,-933,-16398,922,-7,10,-8
2,274,25996,-971,-16440,971,-5,2,-6
2,275,26001,-978,-16450,977,-1,-9,-7
2,276,26006,-910,-16445,994,-4,-22,-6
2,277,26011,-942,-16492,933,-2,-27,-6
2,278,26016,-967,-16492,933,-1,-24,-7
2,279,26021,-959,-16474,908,1,-27,-6
2,280,26026,-955,-16469,950,2,-26,-5
2,281,26031,-892,-16490,894,-1,-20,-8
2,282,26036,-906,-16492,909,1,-17,-7
2,283,26041,-857,-16427,924,1,-9,-10
2,284,26046,-857,-16395,938,1,-5,-9
2,285,26051,-852,-16346,1007,3,-6,-8
2,286,26056,-774,-16361,970,3,-1,-5
2,287,26061,-800,-16323,1003,1,5,-6
2,288,26066,-836,-16327,1066,2,12,-6
2,289,26071,-872,-16376,1063,0,14,-6
2,290,26076,-888,-16399,1035,3,11,-7
2,291,26081,-898,-16456,1009,1,8,-6
2,292,26086,-872,-16496,1067,2,-1,-3
2,293,26091,-875,-16469,1065,3,-17,-5
2,294,26096,-930,-16516,980,3,-29,-3
2,295,26101,-950,-16521,946,6,-34,-2
2,296,26106,-959,-16490,907,5,-34,-5
2,297,26111,-956,-16477,887,5,-33,-5
2,298,26116,-930,-16483,944,5,-29,-2
2,299,26121,-863,-16497,919,6,-23,-4
2,300,26126,-851,-16516,934,6,-14,-5
2,301,26131,-886,-16479,901,6,-8,-4
2,302,26136,-843,-16491,951,4,-6,-6
2,303,26141,-836,-16487,988,6,-9,-3
2,304,26146,-796,-16503,966,10,-4,0
2,305,26151,-789,-16473,884,9,4,-1
2,306,26156,-806,-16469,882,10,10,-3
2,307,26161,-820,-16479,907,10,14,-1
2,308,26166,-828,-16443,986,9,18,1
2,309,26171,-827,-16477,997,10,15,1
2,310,26176,-860,-16427,952,12,24,2
2,311,26181,-884,-16433,973,13,21,2
2,312,26186,-934,-16467,993,11,19,4
2,313,26191,-980,-16436,984,12,18,3
2,314,26196,-1052,-16404,1035,14,18,3
2,315,26201,-1082,-16430,1121,12,18,6
2,316,26206,-1121,-16473,1088,15,12,4
2,317,26211,-1128,-16411,1125,14,6,4
2,318,26216,-1112,-16405,1108,13,-1,5
2,319,26221,-1066,-16381,1101,14,-8,6
2,320,26226,-1062,-16308,1109,17,-21,10
2,321,26231,-1035,-16331,1068,15,-30,10
2,322,26236,-1050,-16397,977,16,-29,7
2,323,26241,-982,-16415,869,17,-21,8
2,324,26246,-996,-16438,812,20,-14,6
2,325,26251,-894,-16477,674,22,3,8
2,326,26256,-923,-16491,737,21,28,9
2,327,26261,-920,-16485,793,19,43,8
2,328,26266,-963,-16429,1014,22,52,9
2,329,26271,-895,-16420,1019,24,51,10
2,330,26276,-902,-16347,1045,25,55,13
2,331,26281,-935,-16377,1006,26,57,14
2,332,26286,-1041,-16457,1153,25,53,13
2,333,26291,-1229,-16449,1130,26,36,15
2,334,26296,-1256,-16441,1141,29,32,18
2,335,26301,-1195,-16409,1148,28,29,18
2,336,26306,-1193,-16386,1335,30,18,19
2,337,26311,-1236,-16357,1498,33,-17,21
2,338,26316,-1162,-16312,1470,35,-69,25
2,339,26321,-1014,-16265,1290,40,-114,33
2,340,26326,-926,-16280,1217,38,-141,37
2,341,26331,-894,-16280,1185,42,-161,38
2,342,26336,-980,-16275,1032,42,-176,40
2,343,26341,-988,-16317,802,43,-175,43
2,344,26346,-928,-16345,660,45,-147,47
2,345,26351,-842,-16353,681,46,-103,50
2,346,26356,-724,-16364,900,48,-65,50
2,347,26361,-725,-16371,1011,51,-40,53
2,348,26366,-889,-16347,1019,52,-22,54
2,349,26371,-1133,-16321,1050,55,-5,59
2,350,26376,-1332,-16350,1163,57,9,66
2,351,26381,-1370,-16386,1280,64,8,71
2,352,26386,-1191,-16414,1375,65,-3,78
2,353,26391,-1055,-16353,1616,68,-26,84
2,354,26396,-1278,-16259,1819,72,-75,90
2,355,26401,-1439,-16281,1708,77,-141,98
2,356,26406,-1667,-16231,1371,80,-188,106
2,357,26411,-1838,-16362,1304,83,-195,112
2,358,26416,-1805,-16450,1310,88,-200,116
2,359,26421,-1446,-16454,1568,91,-215,122
2,360,26426,-1182,-16404,1762,96,-260,131
2,361,26431,-1118,-16423,1679,101,-326,139
2,362,26436,-1248,-16368,1339,106,-379,148
2,363,26441,-1305,-16302,1045,110,-393,158
2,364,26446,-1251,-16321,918,115,-370,173
2,365,26451,-1147,-16338,759,118,-322,177
2,366,26456,-1106,-16315,823,125,-256,177
2,367,26461,-1132,-16260,799,130,-195,189
2,368,26466,-997,-16249,783,134,-134,196
2,369,26471,-1005,-16255,955,136,-69,202
2,370,26476,-1075,-16322,1052,139,-12,213
2,371,26481,-1223,-16356,1273,142,26,221
2,372,26486,-1458,-16406,1302,150,41,230
2,373,26491,-1547,-16465,1453,158,42,244
2,374,26496,-1482,-16489,1597,165,29,256
2,375,26501,-1367,-16441,1840,168,-5,270
2,376,26506,-1489,-16472,2015,175,-52,284
2,377,26511,-1616,-16388,1892,179,-107,299
2,378,26516,-1694,-16350,1559,185,-143,314
2,379,26521,-1830,-16324,1506,190,-149,322
2,380,26526,-2003,-16306,1563,195,-148,333
2,381,26531,-2031,-16299,1573,203,-146,348
2,382,26536,-1901,-16235,1485,207,-141,356
2,383,26541,-1822,-16177,1795,213,-98,372
2,384,26546,-1967,-16185,1829,218,-97,383
2,385,26551,-2162,-16221,1640,222,-96,394
2,386,26556,-2189,-16302,1585,228,-82,405
2,387,26561,-2114,-16278,1753,230,-61,415
2,388,26566,-2119,-16254,2013,233,-56,422
2,389,26571,-2188,-16251,2069,238,-70,431
2,390,26576,-2408,-16250,1959,241,-88,442
2,391,26581,-2462,-16299,1820,247,-95,453
2,392,26586,-2495,-16311,1846,251,-91,463
2,393,26591,-2376,-16309,1935,256,-86,476
2,394,26596,-2348,-16298,2105,258,-91,483
2,395,26601,-2464,-16236,2073,265,-107,489
2,396,26606,-2697,-16172,2016,269,-125,499
2,397,26611,-2783,-16230,2009,269,-126,506
2,398,26616,-2848,-16255,2049,274,-111,515
2,399,26621,-2892,-16301,2104,281,-96,526
2,400,26626,-2838,-16220,2090,282,-88,526
2,401,26631,-3004,-16174,2232,286,-86,533
2,402,26636,-3171,-16194,2271,287,-96,537
2,403,26641,-3106,-16167,2323,287,-102,543
2,404,26646,-3064,-16210,2303,290,-95,552
2,405,26651,-3090,-16338,2289,293,-75,551
2,406,26656,-3178,-16192,2154,291,-61,549
2,407,26661,-3313,-16209,2206,293,-53,559
2,408,26666,-3335,-16247,2251,297,-48,565
2,409,26671,-3287,-16212,2278,296,-35,560
2,410,26676,-3240,-16229,2400,298,-17,568
2,411,26681,-3272,-16288,2508,302,-13,574
2,412,26686,-3315,-16175,2524,302,-30,574
2,413,26691,-3274,-16206,2568,303,-68,582
2,414,26696,-3141,-16253,2604,308,-114,591
2,415,26701,-3079,-16220,2623,311,-154,594
2,416,26706,-3118,-16239,2418,311,-180,598
2,417,26711,-3321,-16254,2223,312,-185,599
2,418,26716,-3397,-16227,2115,318,-181,603
2,419,26721,-3318,-16208,2004,320,-156,605
2,420,26726,-3214,-16182,1998,315,-123,603
2,421,26731,-3296,-16191,2130,317,-83,603
2,422,26736,-3462,-16208,2234,318,-50,598
2,423,26741,-3496,-16119,2230,318,-27,599
2,424,26746,-3512,-16165,2403,318,-9,603
2,425,26751,-3536,-16129,2571,318,-3,605
2,426,26756,-3397,-16036,2733,318,-10,604
2,427,26761,-3363,-16061,2875,319,-34,605
2,428,26766,-3363,-15986,3001,319,-71,605
2,429,26771,-3497,-15901,2845,319,-113,610
2,430,26776,-3730,-16052,2554,319,-128,612
2,431,26781,-3717,-15906,2612,319,-107,605
2,432,26786,-3632,-15868,2734,318,-89,610
2,433,26791,-3562,-15875,2854,318,-92,608
2,434,26796,-3798,-15738,2833,316,-97,600
2,435,26801,-4005,-15834,2654,315,-101,605
2,436,26806,-3972,-15856,2682,315,-92,598
2,437,26811,-3712,-15783,2846,311,-83,597
2,438,26816,-3656,-15776,3099,309,-83,595
2,439,26821,-3851,-15790,3027,307,-107,590
2,440,26826,-4079,-15728,2850,305,-121,584
2,441,26831,-4140,-15760,2734,306,-121,587
2,442,26836,-4053,-15773,2853,301,-109,586
2,443,26841,-3946,-15719,3008,299,-110,576
2,444,26846,-4057,-15769,3036,298,-109,570
2,445,26851,-4175,-15773,2992,296,-118,566
2,446,26856,-4176,-15677,2958,294,-120,560
2,447,26861,-4144,-15673,2988,290,-121,560
2,448,26866,-4133,-15741,3065,289,-121,553
2,449,26871,-4143,-15703,3019,286,-124,546
2,450,26876,-4045,-15703,3007,283,-124,543
2,451,26881,-4126,-15687,2991,278,-122,537
2,452,26886,-4154,-15638,2827,273,-119,530
2,453,26891,-4236,-15646,2872,273,-101,522
2,454,26896,-4166,-15633,2801,270,-85,516
2,455,26901,-4110,-15695,2817,266,-60,509
2,456,26906,-4261,-15631,2951,255,-21,491
2,457,26911,-4319,-15591,3069,254,-13,486
2,458,26916,-4412,-15566,3111,248,-14,478
2,459,26921,-4623,-15670,3206,246,-20,469
2,460,26926,-4639,-15645,3269,246,-41,463
2,461,26931,-4406,-15656,3378,243,-78,465
2,462,26936,-4252,-15678,3473,239,-127,454
2,463,26941,-4386,-15616,3546,233,-183,438
2,464,26946,-4591,-15609,3337,233,-237,435
2,465,26951,-4624,-15657,2860,231,-253,433
2,466,26956,-4576,-15678,2628,223,-212,423
2,467,26961,-4613,-15711,2736,220,-155,406
2,468,26966,-4765,-15733,2947,213,-103,393
2,469,26971,-4894,-15659,2937,209,-75,382
2,470,26976,-4884,-15596,2999,201,-44,367
2,471,26981,-4769,-15576,3217,198,-7,357
2,472,26986,-4636,-15521,3502,190,8,344
2,473,26991,-4687,-15423,3704,184,0,330
2,474,26996,-4823,-15455,3615,182,-23,323
2,475,27001,-4848,-15334,3428,173,-33,313
2,476,27006,-4920,-15263,3361,167,-20,302
2,477,27011,-5121,-15246,3451,159,8,286
2,478,27016,-5301,-15301,3563,151,30,271
2,479,27021,-5266,-15282,3548,147,40,256
2,480,27026,-4937,-15254,3538,141,38,247
2,481,27031,-4872,-15183,3740,132,31,234
2,482,27036,-5089,-15162,3934,126,-4,219
2,483,27041,-5348,-15178,3913,120,-61,211
2,484,27046,-5281,-15168,3568,115,-101,203
2,485,27051,-5161,-15231,3405,110,-101,189
2,486,27056,-5116,-15207,3477,100,-93,167
2,487,27061,-5147,-15098,3601,90,-98,152
2,488,27066,-5201,-15177,3547,88,-114,141
2,489,27071,-5093,-15088,3356,81,-120,123
2,490,27076,-5051,-15045,3344,69,-101,109
2,491,27081,-5051,-15065,3479,60,-80,96
2,492,27086,-4987,-14973,3555,52,-68,74
2,493,27091,-4967,-14908,3519,47,-59,61
2,494,27096,-4871,-14890,3453,42,-48,51
2,495,27101,-4885,-14824,3488,31,-28,34
2,496,27106,-5128,-14699,3535,22,-14,17
2,497,27111,-5216,-14805,3436,19,-2,5
2,498,27116,-4989,-14760,3405,11,18,-8
2,499,27121,-4601,-14741,3446,3,37,-24
2,500,27126,-4748,-14862,3809,-7,41,-42
2,501,27131,-5042,-14852,3853,-12,-11,-58
2,502,27136,-5293,-14866,3489,-15,-61,-70
2,503,27141,-5284,-14922,3210,-24,-61,-78
2,504,27146,-5168,-14976,3412,-34,-32,-94
2,505,27151,-5051,-14982,3714,-45,-15,-120
2,506,27156,-5144,-14995,3765,-48,-42,-136
2,507,27161,-5255,-15051,3564,-54,-79,-153
2,508,27166,-5269,-15006,3544,-66,-91,-169
2,509,27171,-5242,-15059,3696,-76,-89,-181
2,510,27176,-5283,-15081,3916,-85,-96,-203
2,511,27181,-5333,-15057,3934,-91,-119,-221
2,512,27186,-5256,-15054,3809,-97,-140,-235
2,513,27191,-5192,-14995,3873,-110,-157,-253
2,514,27196,-5196,-14999,3940,-119,-172,-274
2,515,27201,-5221,-14978,3864,-130,-187,-290
2,516,27206,-5234,-15005,3700,-138,-190,-309
2,517,27211,-5257,-15112,3533,-148,-175,-326
2,518,27216,-5254,-15155,3592,-160,-154,-346
2,519,27221,-5123,-15255,3708,-169,-148,-367
2,520,27226,-4905,-15240,3716,-175,-160,-383
2,521,27231,-4815,-15271,3821,-184,-181,-398
2,522,27236,-4908,-15313,3912,-195,-211,-415
2,523,27241,-5025,-15361,3865,-203,-250,-434
2,524,27246,-5021,-15428,3665,-211,-285,-452
2,525,27251,-4859,-15432,3565,-221,-309,-466
2,526,27256,-4637,-15457,3632,-233,-322,-485
2,527,27261,-4587,-15456,3712,-240,-346,-502
2,528,27266,-4523,-15527,3478,-248,-374,-515
2,529,27271,-4480,-15571,3308,-256,-381,-533
2,530,27276,-4316,-15589,3105,-275,-349,-568
2,531,27281,-4294,-15636,3112,-288,-326,-582
2,532,27286,-4285,-15724,3098,-295,-305,-595
2,533,27291,-4183,-15739,3064,-298,-288,-611
2,534,27296,-3865,-15802,2981,-304,-276,-624
2,535,27301,-3664,-15790,3097,-313,-269,-638
2,536,27306,-3604,-15816,3289,-320,-284,-651
2,537,27311,-3624,-15799,3337,-326,-317,-661
2,538,27316,-3514,-15840,2937,-329,-346,-666
2,539,27321,-3464,-15891,2792,-338,-340,-678
2,540,27326,-3416,-15828,2845,-342,-318,-691
2,541,27331,-3393,-15868,2958,-347,-306,-698
2,542,27336,-3248,-15834,2783,-355,-299,-709
2,543,27341,-3172,-15866,2678,-356,-277,-720
2,544,27346,-3156,-15905,2720,-365,-249,-731
2,545,27351,-3213,-15972,2879,-371,-230,-737
2,546,27356,-3258,-15894,2784,-377,-225,-748
2,547,27361,-3266,-16010,2777,-377,-214,-751
2,548,27366,-3056,-16043,2837,-380,-205,-758
2,549,27371,-2941,-16018,2995,-384,-204,-763
2,550,27376,-2967,-16044,3092,-386,-219,-773
2,551,27381,-3032,-16045,2997,-387,-249,-779
2,552,27386,-2999,-15989,2878,-393,-268,-783
2,553,27391,-2809,-16046,2798,-397,-269,-786
2,554,27396,-2649,-16098,2859,-400,-260,-791
2,555,27401,-2689,-16077,2978,-403,-253,-796
2,556,27406,-2881,-16013,2825,-407,-256,-801
2,557,27411,-2770,-15980,2633,-409,-246,-805
2,558,27416,-2502,-15959,2660,-413,-218,-810
2,559,27421,-2283,-16000,2830,-417,-185,-811
2,560,27426,-2295,-16084,2870,-421,-161,-818
2,561,27431,-2347,-16108,2532,-420,-136,-825
2,562,27436,-2497,-16178,2270,-427,-84,-830
2,563,27441,-2607,-16136,2354,-431,-23,-837
2,564,27446,-2565,-16114,2667,-436,35,-842
2,565,27451,-2540,-16135,2867,-436,67,-848
2,566,27456,-2659,-16200,2865,-436,91,-852
2,567,27461,-2799,-16382,2810,-432,99,-854
2,568,27466,-2666,-16450,3066,-431,75,-853
2,569,27471,-2342,-16470,3349,-433,4,-853
2,570,27476,-2072,-16486,3672,-433,-112,-850
2,571,27481,-2094,-16425,3653,-432,-248,-848
2,572,27486,-2108,-16418,3172,-432,-362,-840
2,573,27491,-2158,-16412,2564,-434,-425,-836
2,574,27496,-1925,-16495,2170,-435,-435,-837
2,575,27501,-1744,-16504,2127,-438,-417,-836
2,576,27506,-1693,-16601,1871,-437,-383,-842
2,577,27511,-1659,-16716,1531,-438,-325,-848
2,578,27516,-1484,-16672,1276,-441,-234,-846
2,579,27521,-1176,-16575,1463,-442,-124,-851
2,580,27526,-882,-16527,1884,-448,-31,-855
2,581,27531,-788,-16515,2106,-449,38,-858
2,582,27536,-911,-16470,2084,-443,90,-857
2,583,27541,-1130,-16439,1995,-443,143,-858
2,584,27546,-1441,-16458,2130,-444,196,-856
2,585,27551,-1671,-16630,2225,-440,220,-855
2,586,27556,-1488,-16776,2280,-435,210,-850
2,587,27561,-1080,-16821,2516,-434,174,-849
2,588,27566,-1089,-16733,3036,-430,101,-849
2,589,27571,-1360,-16625,3106,-425,-25,-844
2,590,27576,-1405,-16605,2524,-416,-157,-831
2,591,27581,-1133,-16569,1992,-415,-241,-820
2,592,27586,-744,-16493,2051,-421,-284,-820
2,593,27591,-626,-16445,2178,-417,-328,-818
2,594,27596,-625,-16465,1898,-413,-368,-814
2,595,27601,-549,-16546,1273,-407,-366,-808
2,596,27606,-385,-16542,843,-408,-306,-801
2,597,27611,-665,-15466,870,-411,-222,-804
2,598,27616,-19,-19673,-11553,-372,-115,-777
2,599,27621,-13217,-26365,-32768,-188,1365,-898
2,600,27626,-30129,-15808,-13900,-335,7415,-722
2,601,27631,27579,-9494,32767,-252,13279,-923
2,602,27636,27579,-9494,32767,-252,13279,-923
2,603,27641,-14687,-14107,21166,477,-2609,-134
2,604,27646,-32768,-10268,6489,411,-7210,797
2,605,27651,-11162,-16990,-22891,181,-8385,1158
2,606,27656,6077,-20566,-30626,74,-3832,647
2,607,27661,13429,-23455,-16052,8,1360,78
2,608,27666,-6613,-14395,26300,-359,3596,-627
2,609,27671,-21995,-6707,32767,-36,-435,-319
2,610,27676,-4208,-13445,2978,627,-7159,1213
2,611,27681,14815,-22235,-26053,450,-6734,1320
2,612,27686,2361,-17242,-10423,-16,-1766,70
2,613,27691,-12853,-14485,9792,-139,-60,-180
2,614,27696,-14675,-13820,14604,-33,-1380,187
2,615,27701,340,-15027,-12567,260,-3143,600
2,616,27706,7804,-18908,-20513,168,-1607,511
2,617,27711,713,-17369,-3570,-3,1180,-61
2,618,27716,-8121,-14146,13544,-49,2172,-250
2,619,27721,-5283,-14588,8798,92,997,138
2,620,27726,5270,-16433,-5724,193,114,371
2,621,27731,7240,-16439,-3225,53,767,162
2,622,27736,-146,-15545,10164,-55,1200,-32
2,623,27741,-5629,-14706,14120,41,412,67
2,624,27746,-2392,-15364,2023,164,-660,306
2,625,27751,3087,-16649,-5759,149,-558,356
2,626,27756,2370,-16548,349,37,110,169
2,627,27761,-2590,-15600,9271,6,-32,80
2,628,27766,-4070,-15737,5513,108,-947,222
2,629,27771,-1260,-16600,-4098,162,-1191,336
2,630,27776,1403,-17014,-6119,105,-410,263
2,631,27781,132,-16480,1863,33,393,116
2,632,27786,-2064,-15943,6529,50,188,103
2,633,27791,-1877,-16165,2361,130,-433,204
2,634,27796,4,-16683,-2982,148,-468,253
2,635,27801,511,-16657,-1464,95,110,183
2,636,27806,-560,-16137,4047,54,439,121
2,637,27811,-1034,-15940,5629,84,113,154
2,638,27816,-370,-16262,1637,133,-337,215
2,639,27821,124,-16492,-1057,133,-307,217
2,640,27826,-466,-16424,1059,94,2,177
2,641,27831,-1172,-16214,3666,83,72,162
2,642,27836,-920,-16378,2785,106,-129,190
2,643,27841,-377,-16669,202,125,-221,209
2,644,27846,-624,-16745,-87,115,-59,188
2,645,27851,-1351,-16611,1855,98,102,165
2,646,27856,-1520,-16523,2795,102,66,174
2,647,27861,-900,-16560,1727,116,-32,186
2,648,27866,-538,-16693,1002,118,-3,185
2,649,27871,-1020,-16664,1859,106,74,166
2,650,27876,-1555,-16555,2881,104,35,161
2,651,27881,-1466,-16603,2551,111,-88,179
2,652,27886,-1039,-16640,1673,115,-136,185
2,653,27891,-978,-16612,1769,113,-88,171
2,654,27896,-1256,-16523,2444,107,-64,163
2,655,27901,-1380,-16473,2496,104,-121,166
2,656,27906,-1230,-16483,1865,113,-182,173
2,657,27911,-926,-16503,1451,111,-161,173
2,658,27916,-887,-16523,1849,103,-92,159
2,659,27921,-940,-16489,2314,99,-74,155
2,660,27926,-859,-16472,2098,100,-109,160
2,661,27931,-594,-16469,1645,101,-123,160
2,662,27936,-587,-16503,1691,98,-81,156
2,663,27941,-775,-16532,1981,96,-41,150
2,664,27946,-861,-16511,2047,98,-45,152
2,665,27951,-808,-16625,1792,96,-55,155
2,666,27956,-781,-16677,1649,92,-39,152
2,667,27961,-893,-16647,1933,94,-4,145
2,668,27966,-1072,-16679,2180,90,0,143
2,669,27971,-1076,-16670,2134,88,-13,145
2,670,27976,-904,-16650,1982,91,-26,143
2,671,27981,-954,-16616,2108,87,-25,138
2,672,27986,-1086,-16578,2281,87,-35,138
2,673,27991,-1143,-16552,2261,86,-51,141
2,674,27996,-1144,-16521,2080,83,-62,137
2,675,28001,-1128,-16508,1996,84,-58,136
2,676,28006,-1053,-16368,2215,79,-22,128
2,677,28011,-1168,-16360,2196,78,-18,124
2,678,28016,-1298,-16316,2137,77,-9,122
2,679,28021,-1183,-16261,2030,75,10,122
2,680,28026,-983,-16223,2096,70,33,121
2,681,28031,-933,-16225,2321,66,39,115
2,682,28036,-1099,-16270,2432,65,25,111
2,683,28041,-1418,-16372,2254,63,8,110
2,684,28046,-1490,-16406,2081,61,12,107
2,685,28051,-1470,-16427,2107,59,33,103
2,686,28056,-1472,-16449,2446,57,50,98
2,687,28061,-1458,-16470,2640,54,37,95
2,688,28066,-1550,-16475,2551,58,7,92
2,689,28071,-1622,-16522,2445,57,-21,91
2,690,28076,-1619,-16492,2361,50,-37,88
2,691,28081,-1487,-16409,2462,47,-45,84
2,692,28086,-1360,-16401,2509,46,-62,81
2,693,28091,-1459,-16399,2393,48,-80,78
2,694,28096,-1550,-16388,2252,50,-89,77
2,695,28101,-1467,-16361,2172,47,-82,78
2,696,28106,-1250,-16316,2262,46,-62,74
2,697,28111,-1212,-16246,2325,45,-48,70
2,698,28116,-1288,-16211,2369,42,-48,66
2,699,28121,-1304,-16223,2236,40,-51,64
2,700,28126,-1253,-16157,2119,40,-40,64
2,701,28131,-1288,-16257,2155,38,-18,62
2,702,28136,-1305,-16277,2286,38,-6,57
2,703,28141,-1323,-16282,2304,41,-4,57
2,704,28146,-1346,-16280,2217,41,-8,57
2,705,28151,-1359,-16239,2211,39,-9,54
2,706,28156,-1379,-16212,2295,38,-17,53
2,707,28161,-1382,-16239,2383,38,-39,53
2,708,28166,-1412,-16255,2243,40,-64,52
2,709,28171,-1430,-16294,2157,43,-73,51
2,710,28176,-1496,-16308,2083,44,-76,47
2,711,28181,-1415,-16213,2190,43,-76,48
2,712,28186,-1283,-16183,2164,44,-82,45
2,713,28191,-1164,-16189,2170,43,-85,44
2,714,28196,-1107,-16098,2191,44,-80,44
2,715,28201,-1184,-16088,2148,48,-66,43
2,716,28206,-1190,-16050,2070,42,-41,39
2,717,28211,-1214,-16000,2000,41,-10,38
2,718,28216,-1260,-16033,1995,44,25,37
2,719,28221,-1312,-16115,2126,43,54,38
2,720,28226,-1216,-16104,2171,42,75,34
2,721,28231,-1199,-16116,2315,43,97,31
2,722,28236,-1333,-16142,2418,43,111,31
2,723,28241,-1525,-16178,2538,41,110,30
2,724,28246,-1746,-16216,2549,42,91,26
2,725,28251,-1804,-16275,2569,47,60,26
2,726,28256,-1704,-16257,2654,44,33,28
2,727,28261,-1646,-16195,2759,42,5,24
2,728,28266,-1663,-16186,2826,44,-41,25
2,729,28271,-1642,-16207,2664,47,-93,27
2,730,28276,-1579,-16221,2469,49,-120,27
2,731,28281,-1573,-16242,2362,45,-120,24
2,732,28286,-1662,-16256,2321,41,-104,20
2,733,28291,-1675,-16227,2262,40,-80,18
2,734,28296,-1595,-16212,2127,40,-44,14
2,735,28301,-1553,-16225,2160,38,4,6
2,736,28306,-1473,-16221,2358,34,42,2
2,737,28311,-1397,-16220,2567,34,55,1
2,738,28316,-1395,-16263,2573,34,55,3
2,739,28321,-1494,-16252,2512,35,57,0
2,740,28326,-1567,-16273,2504,34,61,-1
2,741,28331,-1575,-16305,2562,31,58,1
2,742,28336,-1557,-16297,2586,29,41,1
2,743,28341,-1582,-16309,2602,31,25,0
2,744,28346,-1652,-16339,2555,31,8,0
2,745,28351,-1715,-16309,2571,29,-6,-2
2,746,28356,-1623,-16371,2567,27,-22,0
2,747,28361,-1534,-16347,2546,27,-32,-3
2,748,28366,-1511,-16290,2494,26,-44,-5
2,749,28371,-1699,-16311,2426,27,-65,-7
2,750,28376,-1640,-16278,2325,25,-64,-7
2,751,28381,-1507,-16294,2356,23,-49,-12
2,752,28386,-1450,-16271,2446,22,-28,-15
2,753,28391,-1467,-16280,2507,22,-21,-15
2,754,28396,-1536,-16243,2493,20,-20,-15
2,755,28401,-1530,-16252,2434,19,-15,-15
2,756,28406,-1471,-16251,2472,17,2,-14
2,757,28411,-1460,-16295,2527,17,17,-17
2,758,28416,-1479,-16329,2565,13,23,-19
2,759,28421,-1539,-16330,2575,10,18,-20
2,760,28426,-1513,-16323,2520,14,9,-19
2,761,28431,-1468,-16320,2452,12,8,-18
2,762,28436,-1514,-16348,2480,9,11,-20
2,763,28441,-1642,-16357,2599,7,8,-21
2,764,28446,-1780,-16359,2512,6,-2,-19
2,765,28451,-1706,-16358,2365,8,-8,-21
2,766,28456,-1584,-16365,2412,8,-10,-19
2,767,28461,-1519,-16361,2551,0,-10,-24
2,768,28466,-1530,-16347,2645,2,-21,-25
2,769,28471,-1581,-16300,2543,4,-36,-22
2,770,28476,-1627,-16287,2398,4,-39,-24
2,771,28481,-1598,-16242,2364,0,-31,-25
2,772,28486,-1570,-16231,2455,-2,-19,-25
2,773,28491,-1575,-16286,2462,-3,-10,-29
2,774,28496,-1552,-16340,2404,-5,-4,-31
2,775,28501,-1538,-16341,2353,-4,5,-29
2,776,28506,-1509,-16306,2479,-5,16,-32
2,777,28511,-1416,-16210,2529,-5,13,-29
2,778,28516,-1385,-16210,2512,-7,4,-29
2,779,28521,-1364,-16261,2473,-7,0,-28
2,780,28526,-1403,-16261,2402,-7,0,-28
2,781,28531,-1528,-16282,2324,-10,1,-28
2,782,28536,-1599,-16314,2353,-12,7,-28
2,783,28541,-1641,-16303,2391,-9,11,-30
2,784,28546,-1608,-16252,2437,-11,15,-34
2,785,28551,-1481,-16216,2567,-11,9,-33
2,786,28556,-1381,-16219,2691,-9,-9,-30
2,787,28561,-1333,-16188,2649,-12,-28,-29
2,788,28566,-1298,-16109,2521,-13,-41,-27
2,789,28571,-1394,-16117,2383,-16,-40,-28
2,790,28576,-1497,-16144,2280,-18,-28,-29
2,791,28581,-1534,-16228,2217,-18,-8,-29
2,792,28586,-1669,-16272,2175,-16,22,-31
2,793,28591,-1727,-16278,2237,-16,41,-35
2,794,28596,-1625,-16293,2401,-19,54,-33
2,795,28601,-1481,-16228,2543,-18,56,-35
2,796,28606,-1270,-16199,2660,-20,40,-33
2,797,28611,-1226,-16129,2744,-20,16,-33
2,798,28616,-1312,-16154,2655,-19,-16,-32
2,799,28621,-1479,-16175,2473,-18,-39,-28
2,800,28626,-1521,-16156,2241,-19,-36,-28
2,801,28631,-1451,-16157,2169,-21,-4,-28
2,802,28636,-1488,-16190,2260,-22,33,-33
2,803,28641,-1520,-16208,2287,-23,56,-33
2,804,28646,-1488,-16249,2224,-23,66,-31
2,805,28651,-1494,-16303,2218,-23,75,-32
2,806,28656,-1532,-16346,2368,-22,82,-33
2,807,28661,-1631,-16347,2440,-22,82,-35
2,808,28666,-1686,-16346,2535,-21,74,-34
2,809,28671,-1681,-16283,2573,-19,61,-32
2,810,28676,-1569,-16270,2606,-19,41,-33
2,811,28681,-1465,-16255,2663,-22,11,-31
2,812,28686,-1501,-16254,2641,-22,-24,-31
2,813,28691,-1518,-16273,2470,-19,-51,-28
2,814,28696,-1574,-16237,2311,-20,-60,-29
2,815,28701,-1575,-16250,2195,-23,-50,-28
2,816,28706,-1520,-16253,2191,-23,-27,-29
2,817,28711,-1473,-16252,2214,-23,-2,-30
2,818,28716,-1475,-16314,2224,-23,19,-30
2,819,28721,-1457,-16320,2290,-21,36,-33
2,820,28726,-1368,-16225,2360,-22,50,-33
2,821,28731,-1350,-16207,2432,-24,58,-31
2,822,28736,-1390,-16226,2472,-23,44,-35
2,823,28741,-1429,-16241,2474,-24,35,-32
2,824,28746,-1535,-16273,2462,-23,26,-29
2,825,28751,-1500,-16266,2439,-25,19,-29
2,826,28756,-1554,-16293,2425,-23,15,-29
2,827,28761,-1564,-16336,2425,-24,9,-31
2,828,28766,-1635,-16260,2476,-23,-3,-29
2,829,28771,-1623,-16222,2480,-23,-14,-29
2,830,28776,-1572,-16265,2442,-21,-21,-28
2,831,28781,-1477,-16236,2371,-21,-13,-27
2,832,28786,-1462,-16195,2403,-23,-6,-30
2,833,28791,-1492,-16202,2462,-26,-7,-29
2,834,28796,-1460,-16194,2439,-25,-15,-29
2,835,28801,-1443,-16246,2314,-24,-9,-27
2,836,28806,-1457,-16259,2252,-25,10,-30
2,837,28811,-1481,-16255,2380,-28,28,-30
2,838,28816,-1538,-16287,2410,-28,36,-33
2,839,28821,-1401,-16302,2478,-26,34,-31
2,840,28826,-1284,-16275,2481,-26,31,-32
2,841,28831,-1290,-16308,2453,-25,31,-31
2,842,28836,-1403,-16338,2440,-29,26,-29
2,843,28841,-1461,-16353,2349,-26,13,-29
2,844,28846,-1535,-16401,2322,-26,8,-27
2,845,28851,-1485,-16436,2337,-25,7,-26
2,846,28856,-1493,-16400,2334,-27,4,-30
2,847,28861,-1518,-16382,2333,-27,1,-28
2,848,28866,-1475,-16432,2330,-23,0,-26
2,849,28871,-1415,-16404,2293,-26,-4,-27
2,850,28876,-1354,-16426,2302,-25,2,-28
2,851,28881,-1375,-16423,2274,-25,9,-29
2,852,28886,-1465,-16396,2299,-25,16,-27
2,853,28891,-1492,-16369,2286,-25,23,-28
2,854,28896,-1437,-16325,2286,-27,39,-31
2,855,28901,-1449,-16314,2377,-28,54,-31
2,856,28906,-1458,-16312,2453,-26,53,-31
2,857,28911,-1518,-16351,2477,-26,43,-31
2,858,28916,-1549,-16376,2470,-25,30,-31
2,859,28921,-1491,-16354,2380,-24,18,-28
2,860,28926,-1423,-16279,2467,-26,8,-27
2,861,28931,-1437,-16278,2533,-26,-6,-30
2,862,28936,-1455,-16289,2499,-25,-23,-27
2,863,28941,-1395,-16319,2305,-22,-33,-27
2,864,28946,-1327,-16291,2247,-25,-25,-28
2,865,28951,-1315,-16369,2285,-27,-10,-23
2,866,28956,-1328,-16319,2342,-27,-11,-27
2,867,28961,-1297,-16269,2313,-23,-17,-27
2,868,28966,-1258,-16282,2208,-23,-16,-23
2,869,28971,-1245,-16324,2174,-24,-3,-22
2,870,28976,-1298,-16325,2240,-22,10,-26
2,871,28981,-1383,-16297,2264,-23,19,-26
2,872,28986,-1398,-16339,2308,-21,25,-23
2,873,28991,-1325,-16303,2311,-20,27,-24
2,874,28996,-1268,-16285,2356,-23,30,-24
2,875,29001,-1284,-16264,2357,-23,27,-24
2,876,29006,-1293,-16262,2371,-22,27,-24
2,877,29011,-1372,-16235,2314,-21,23,-22
2,878,29016,-1422,-16290,2229,-19,23,-21
2,879,29021,-1418,-16304,2214,-19,23,-23
2,880,29026,-1441,-16243,2269,-18,26,-22
2,881,29031,-1345,-16246,2380,-19,24,-20
2,882,29036,-1263,-16277,2363,-18,21,-23
2,883,29041,-1311,-16223,2377,-18,15,-21
2,884,29046,-1309,-16194,2370,-19,1,-19
2,885,29051,-1330,-16216,2347,-15,-13,-17
2,886,29056,-1381,-16246,2204,-14,-19,-19
2,887,29061,-1401,-16271,2115,-15,-15,-18
2,888,29066,-1436,-16285,2115,-13,2,-16
2,889,29071,-1380,-16268,2189,-14,14,-21
2,890,29076,-1311,-16273,2198,-14,20,-19
2,891,29081,-1288,-16240,2219,-12,29,-16
2,892,29086,-1335,-16263,2202,-11,39,-18
2,893,29091,-1385,-16314,2242,-10,42,-17
2,894,29096,-1395,-16296,2303,-10,40,-16
2,895,29101,-1322,-16261,2348,-8,34,-18
2,896,29106,-1284,-16244,2329,-9,24,-16
2,897,29111,-1305,-16264,2284,-9,20,-16
2,898,29116,-1453,-16300,2277,-9,12,-13
2,899,29121,-1551,-16357,2239,-8,11,-12
2,900,29126,-1533,-16412,2235,-5,15,-14
2,901,29131,-1460,-16390,2270,-4,10,-16
2,902,29136,-1385,-16357,2359,-5,3,-18
2,903,29141,-1323,-16291,2431,-4,-14,-15
2,904,29146,-1301,-16258,2374,-4,-30,-13
2,905,29151,-1317,-16267,2199,-5,-34,-12
2,906,29156,-1337,-16272,2116,-7,-31,-12
2,907,29161,-1339,-16303,2100,-6,-16,-14
2,908,29166,-1344,-16334,2109,-3,-2,-12
2,909,29171,-1298,-16291,2065,-2,8,-11
2,910,29176,-1252,-16242,2176,-2,22,-12
2,911,29181,-1181,-16264,2337,-2,30,-12
2,912,29186,-1231,-16230,2349,-1,29,-11
2,913,29191,-1254,-16269,2298,0,27,-9
2,914,29196,-1358,-16289,2247,-2,26,-8
2,915,29201,-1423,-16283,2316,-2,35,-9
2,916,29206,-1482,-16318,2297,-2,36,-8
2,917,29211,-1445,-16348,2289,-1,35,-7
2,918,29216,-1415,-16402,2299,0,36,-11
2,919,29221,-1357,-16417,2345,-1,28,-9
2,920,29226,-1283,-16438,2337,2,16,-8
2,921,29231,-1358,-16394,2281,2,3,-6
2,922,29236,-1414,-16378,2248,2,-3,-6
2,923,29241,-1464,-16374,2199,2,-8,-6
2,924,29246,-1432,-16400,2213,5,-8,-5
2,925,29251,-1382,-16427,2274,3,-1,-5
2,926,29256,-1393,-16393,2345,1,3,-7
2,927,29261,-1400,-16383,2331,4,0,-6
2,928,29266,-1447,-16420,2279,3,0,-8
2,929,29271,-1428,-16373,2304,2,-1,-7
2,930,29276,-1400,-16378,2329,2,1,-4
2,931,29281,-1419,-16384,2307,2,0,-4
2,932,29286,-1436,-16407,2280,1,-4,-6
2,933,29291,-1402,-16399,2284,3,-6,-7
2,934,29296,-1375,-16397,2217,3,-7,-7
2,935,29301,-1378,-16393,2164,3,-5,-4
2,936,29306,-1382,-16377,2106,2,-2,-7
2,937,29311,-1381,-16394,2139,7,-1,-6
2,938,29316,-1337,-16371,2230,6,5,-6
2,939,29321,-1230,-16351,2222,4,12,-8
2,940,29326,-1247,-16298,2235,5,12,-7
2,941,29331,-1273,-16300,2255,5,13,-8
2,942,29336,-1283,-16273,2327,7,4,-6
2,943,29341,-1334,-16242,2237,6,-1,-5
2,944,29346,-1423,-16279,2176,9,-1,-3
2,945,29351,-1513,-16349,2136,9,5,-4
2,946,29356,-1522,-16317,2172,9,10,-4
2,947,29361,-1434,-16252,2279,9,10,-6
2,948,29366,-1280,-16249,2427,9,-3,-5
2,949,29371,-1220,-16251,2351,11,-20,-4
2,950,29376,-1255,-16252,2283,13,-34,-1
2,951,29381,-1294,-16192,2220,11,-41,-1
2,952,29386,-1266,-16211,2144,13,-43,-1
2,953,29391,-1301,-16216,2085,12,-38,1
2,954,29396,-1277,-16205,2085,15,-23,0
2,955,29401,-1265,-16288,2056,15,-8,-2
2,956,29406,-1317,-16278,2123,17,5,-2
2,957,29411,-1379,-16267,2175,15,17,-1
2,958,29416,-1373,-16271,2264,14,24,-1
2,959,29421,-1335,-16266,2342,15,26,-2
2,960,29426,-1362,-16253,2386,14,20,-1
2,961,29431,-1328,-16256,2390,16,11,-1
2,962,29436,-1335,-16216,2354,15,-4,-1
2,963,29441,-1415,-16159,2346,18,-16,0
2,964,29446,-1417,-16200,2352,17,-32,-1
2,965,29451,-1432,-16179,2320,15,-42,1
2,966,29456,-1326,-16147,2249,19,-46,7
2,967,29461,-1292,-16130,2253,19,-40,4
2,968,29466,-1300,-16094,2251,19,-36,1
2,969,29471,-1331,-16166,2278,17,-31,4
2,970,29476,-1320,-16157,2281,19,-20,1
2,971,29481,-1310,-16181,2308,17,-3,2
2,972,29486,-1401,-16207,2296,16,7,1
2,973,29491,-1416,-16187,2322,13,11,2
2,974,29496,-1396,-16216,2328,15,12,3
2,975,29501,-1374,-16230,2319,16,15,4
2,976,29506,-1326,-16306,2329,17,17,4
2,977,29511,-1333,-16356,2326,14,13,2
2,978,29516,-1322,-16293,2273,14,11,4
2,979,29521,-1340,-16320,2267,18,1,5
2,980,29526,-1349,-16312,2306,17,-3,4
2,981,29531,-1291,-16346,2267,12,-3,6
2,982,29536,-1312,-16333,2278,14,-1,6
2,983,29541,-1408,-16415,2281,15,-6,7
2,984,29546,-1500,-16474,2201,15,-6,4
2,985,29551,-1442,-16453,2172,16,-8,6
2,986,29556,-1372,-16469,2212,18,-16,6
2,987,29561,-1327,-16473,2252,18,-21,6
2,988,29566,-1301,-16462,2285,17,-25,6
2,989,29571,-1301,-16451,2198,16,-28,8
2,990,29576,-1301,-16410,2136,15,-20,10
2,991,29581,-1336,-16413,2188,14,-11,9
2,992,29586,-1356,-16404,2190,14,-1,8
2,993,29591,-1329,-16389,2224,13,7,9
2,994,29596,-1268,-16356,2265,13,14,9
2,995,29601,-1300,-16339,2273,13,21,9
2,996,29606,-1329,-16359,2254,12,22,9
2,997,29611,-1330,-16366,2231,13,17,10
2,998,29616,-1348,-16361,2263,14,13,9
2,999,29621,-1317,-16311,2302,10,10,12
3,0,33616,-1459,-16368,2225,2,-4,-10
3,1,33621,-1476,-16308,2188,7,-8,-12
3,2,33626,-1492,-16288,2095,3,-1,-13
3,3,33631,-1433,-16315,2130,3,12,-15
3,4,33636,-1400,-16312,2190,4,19,-13
3,5,33641,-1405,-16292,2280,2,24,-12
3,6,33646,-1409,-16310,2310,2,28,-16
3,7,33651,-1481,-16285,2264,0,27,-21
3,8,33656,-1492,-16305,2332,-1,23,-19
3,9,33661,-1358,-16317,2338,-1,19,-17
3,10,33666,-1369,-16344,2269,-1,14,-17
3,11,33671,-1469,-16371,2299,-3,12,-19
3,12,33676,-1520,-16336,2289,-4,9,-20
3,13,33681,-1482,-16311,2248,-6,11,-21
3,14,33686,-1380,-16332,2278,-6,15,-22
3,15,33691,-1333,-16313,2342,-8,17,-23
3,16,33696,-1356,-16319,2409,-8,17,-20
3,17,33701,-1446,-16333,2359,-8,7,-22
3,18,33706,-1463,-16289,2313,-8,-3,-24
3,19,33711,-1399,-16306,2309,-8,-8,-21
3,20,33716,-1342,-16317,2303,-11,-12,-23
3,21,33721,-1306,-16366,2379,-12,-18,-22
3,22,33726,-1331,-16364,2284,-10,-31,-21
3,23,33731,-1352,-16342,2208,-15,-33,-23
3,24,33736,-1361,-16317,2135,-16,-27,-22
3,25,33741,-1264,-16309,2205,-15,-23,-23
3,26,33746,-1201,-16298,2270,-16,-23,-20
3,27,33751,-1159,-16260,2239,-16,-19,-22
3,28,33756,-1134,-16235,2152,-15,-21,-20
3,29,33761,-1197,-16220,2074,-15,-20,-18
3,30,33766,-1176,-16231,2030,-17,-15,-19
3,31,33771,-1089,-16206,2114,-17,-9,-19
3,32,33776,-1060,-16214,2150,-17,-5,-19
3,33,33781,-1069,-16203,2133,-16,4,-20
3,34,33786,-1120,-16158,2104,-15,9,-18
3,35,33791,-1104,-16193,2107,-17,8,-12
3,36,33796,-1104,-16232,2095,-18,10,-11
3,37,33801,-1104,-16277,2087,-17,12,-13
3,38,33806,-1184,-16316,2001,-16,21,-10
3,39,33811,-1264,-16367,1996,-17,30,-13
3,40,33816,-1357,-16385,2024,-16,33,-11
3,41,33821,-1318,-16440,2113,-17,34,-8
3,42,33826,-1272,-16428,2142,-16,27,-10
3,43,33831,-1296,-16435,2156,-11,18,-10
3,44,33836,-1275,-16471,2132,-10,7,-11
3,45,33841,-1279,-16394,2192,-11,-9,-8
3,46,33846,-1298,-16402,2116,-11,-21,-7
3,47,33851,-1302,-16357,2074,-12,-25,-4
3,48,33856,-1302,-16320,1960,-8,-18,-4
3,49,33861,-1238,-16298,2009,-10,1,-8
3,50,33866,-1213,-16285,2057,-11,9,-4
3,51,33871,-1180,-16269,2047,-10,15,-2
3,52,33876,-1205,-16259,2049,-8,22,-3
3,53,33881,-1241,-16249,2065,-9,35,-5
3,54,33886,-1289,-16264,2136,-10,45,-5
3,55,33891,-1278,-16257,2113,-8,47,-5
3,56,33896,-1308,-16234,2173,-9,48,-4
3,57,33901,-1330,-16278,2206,-7,48,0
3,58,33906,-1342,-16259,2150,-9,50,-3
3,59,33911,-1393,-16290,2164,-10,44,-2
3,60,33916,-1485,-16306,2142,-8,33,-2
3,61,33921,-1527,-16331,2167,-7,23,-4
3,62,33926,-1498,-16335,2173,-6,15,-1
3,63,33931,-1470,-16330,2244,-5,3,0
3,64,33936,-1473,-16316,2245,-5,-11,2
3,65,33941,-1489,-16351,2283,-4,-24,-2
3,66,33946,-1515,-16318,2146,-2,-36,1
3,67,33951,-1559,-16408,1987,-3,-37,-1
3,68,33956,-1503,-16376,2195,-6,-25,-2
3,69,33961,-1412,-16324,2226,-6,-24,-1
3,70,33966,-1394,-16309,2213,-3,-18,-4
3,71,33971,-1367,-16329,2063,-3,-11,-5
3,72,33976,-1332,-16269,2100,-6,-10,-3
3,73,33981,-1207,-16256,2213,-6,-16,-3
3,74,33986,-1178,-16227,2193,-6,-22,-2
3,75,33991,-1100,-16235,2067,-3,-19,1
3,76,33996,-1103,-16207,1983,-1,-3,1
3,77,34001,-1145,-16224,1980,-3,9,2
3,78,34006,-1179,-16296,1966,-4,20,2
3,79,34011,-1242,-16304,1987,-3,31,3
3,80,34016,-1274,-16316,1933,-2,44,3
3,81,34021,-1353,-16360,1975,-1,60,1
3,82,34026,-1433,-16389,2044,-2,67,1
3,83,34031,-1409,-16378,2129,-2,60,3
3,84,34036,-1360,-16365,2196,0,46,4
3,85,34041,-1385,-16419,2177,1,28,6
3,86,34046,-1442,-16415,2123,2,8,5
3,87,34051,-1499,-16389,2139,1,-6,4
3,88,34056,-1513,-16375,2070,2,-13,8
3,89,34061,-1494,-16398,2030,4,-16,10
3,90,34066,-1429,-16373,2087,5,-14,9
3,91,34071,-1378,-16349,2136,3,-11,7
3,92,34076,-1465,-16357,2144,5,-13,7
3,93,34081,-1493,-16306,2165,6,-9,7
3,94,34086,-1523,-16335,2137,4,0,5
3,95,34091,-1449,-16306,2169,1,9,5
3,96,34096,-1346,-16270,2283,2,8,6
3,97,34101,-1330,-16264,2313,2,2,9
3,98,34106,-1417,-16281,2289,3,-6,8
3,99,34111,-1455,-16279,2192,4,-12,6
3,100,34116,-1479,-16310,2157,4,-13,8
3,101,34121,-1454,-16313,2172,3,-13,10
3,102,34126,-1428,-16316,2228,0,-13,8
3,103,34131,-1389,-16367,2213,4,-18,7
3,104,34136,-1375,-16362,2152,4,-21,9
3,105,34141,-1416,-16388,2106,2,-24,11
3,106,34146,-1520,-16433,2061,2,-30,7
3,107,34151,-1460,-16453,2072,3,-29,10
3,108,34156,-1396,-16424,2112,1,-26,7
3,109,34161,-1335,-16423,2119,3,-24,6
3,110,34166,-1299,-16391,2126,5,-27,7
3,111,34171,-1278,-16432,2152,3,-31,10
3,112,34176,-1328,-16422,2121,4,-38,9
3,113,34181,-1358,-16376,2086,5,-41,10
3,114,34186,-1321,-16414,2068,4,-37,12
3,115,34191,-1255,-16370,2112,2,-28,10
3,116,34196,-1230,-16381,2108,3,-21,12
3,117,34201,-1185,-16399,2144,3,-17,13
3,118,34206,-1198,-16405,2088,2,-14,14
3,119,34211,-1186,-16396,2074,3,-9,17
3,120,34216,-1176,-16381,2053,3,-4,13
3,121,34221,-1164,-16399,2072,3,-3,15
3,122,34226,-1125,-16356,2111,5,5,21
3,123,34231,-1139,-16366,2072,1,12,22
3,124,34236,-1187,-16388,2076,3,15,22
3,125,34241,-1257,-16446,2064,3,19,22
3,126,34246,-1272,-16434,2090,3,22,23
3,127,34251,-1291,-16403,2119,6,24,23
3,128,34256,-1356,-16391,2168,5,24,26
3,129,34261,-1314,-16393,2228,5,18,29
3,130,34266,-1344,-16376,2240,7,10,28
3,131,34271,-1250,-16374,2210,6,7,28
3,132,34276,-1277,-16396,2217,5,2,27
3,133,34281,-1379,-16434,2164,5,-3,26
3,134,34286,-1464,-16398,2092,7,-8,29
3,135,34291,-1391,-16388,1995,8,-3,32
3,136,34296,-1324,-16385,2062,9,7,30
3,137,34301,-1247,-16347,2225,5,11,29
3,138,34306,-1346,-16303,2211,7,10,29
3,139,34311,-1355,-16316,2038,8,9,29
3,140,34316,-1326,-16310,2067,7,13,32
3,141,34321,-1190,-16301,2126,6,15,35
3,142,34326,-1182,-16280,2176,9,17,34
3,143,34331,-1269,-16295,2082,12,17,35
3,144,34336,-1355,-16267,1949,11,21,37
3,145,34341,-1365,-16262,1924,13,34,37
3,146,34346,-1390,-16330,2041,10,45,38
3,147,34351,-1389,-16398,2121,11,49,34
3,148,34356,-1442,-16418,2165,14,54,31
3,149,34361,-1509,-16448,2093,16,55,34
3,150,34366,-1570,-16434,2110,14,53,33
3,151,34371,-1535,-16422,2164,12,48,31
3,152,34376,-1508,-16410,2193,15,38,33
3,153,34381,-1548,-16418,2240,18,24,33
3,154,34386,-1570,-16388,2249,16,10,34
3,155,34391,-1631,-16376,2200,17,-3,30
3,156,34396,-1564,-16353,2150,19,-14,29
3,157,34401,-1500,-16325,2157,17,-20,32
3,158,34406,-1422,-16339,2194,19,-28,32
3,159,34411,-1408,-16343,2126,19,-32,30
3,160,34416,-1430,-16315,2076,22,-36,31
3,161,34421,-1451,-16251,2075,22,-33,32
3,162,34426,-1383,-16282,2092,18,-25,28
3,163,34431,-1396,-16269,2166,22,-19,28
3,164,34436,-1342,-16267,2135,22,-13,29
3,165,34441,-1364,-16217,2075,22,-7,29
3,166,34446,-1420,-16253,2183,25,-1,31
3,167,34451,-1414,-16239,2222,25,-1,32
3,168,34456,-1400,-16201,2210,22,1,29
3,169,34461,-1432,-16239,2122,21,12,29
3,170,34466,-1521,-16256,2176,25,21,30
3,171,34471,-1575,-16263,2266,23,15,30
3,172,34476,-1555,-16293,2235,22,8,29
3,173,34481,-1466,-16308,2200,24,-2,27
3,174,34486,-1429,-16285,2253,25,-7,27
3,175,34491,-1489,-16278,2229,27,-16,25
3,176,34496,-1508,-16281,2167,28,-25,25
3,177,34501,-1485,-16304,2093,27,-29,26
3,178,34506,-1405,-16264,2069,26,-28,27
3,179,34511,-1356,-16255,2135,28,-26,27
3,180,34516,-1371,-16228,2094,27,-22,26
3,181,34521,-1422,-16204,2064,28,-17,24
3,182,34526,-1418,-16211,2082,26,-11,28
3,183,34531,-1395,-16274,2095,27,-3,27
3,184,34536,-1337,-16269,2198,28,3,27
3,185,34541,-1389,-16275,2252,27,11,25
3,186,34546,-1442,-16301,2224,30,12,24
3,187,34551,-1461,-16296,2121,31,12,27
3,188,34556,-1474,-16320,2147,27,21,24
3,189,34561,-1488,-16361,2128,30,21,27
3,190,34566,-1520,-16367,2366,30,21,24
3,191,34571,-1446,-16310,2312,28,15,21
3,192,34576,-1543,-16319,2271,28,18,24
3,193,34581,-1526,-16357,2137,30,24,22
3,194,34586,-1559,-16302,2249,27,25,21
3,195,34591,-1543,-16341,2325,27,9,23
3,196,34596,-1603,-16382,2081,31,-13,21
3,197,34601,-1615,-16406,2030,28,-13,20
3,198,34606,-1524,-16402,2107,29,-13,21
3,199,34611,-1469,-16390,2158,31,-16,23
3,200,34616,-1376,-16359,2113,32,-18,21
3,201,34621,-1376,-16349,1976,33,-19,20
3,202,34626,-1438,-16316,1973,32,-11,18
3,203,34631,-1481,-16341,2005,31,1,17
3,204,34636,-1448,-16292,2008,32,19,19
3,205,34641,-1398,-16300,2043,29,40,20
3,206,34646,-1443,-16361,2204,30,58,14
3,207,34651,-1461,-16304,2265,30,68,13
3,208,34656,-1492,-16306,2261,31,70,17
3,209,34661,-1553,-16266,2307,30,66,18
3,210,34666,-1570,-16225,2331,28,60,17
3,211,34671,-1559,-16225,2315,25,49,17
3,212,34676,-1559,-16230,2253,25,42,14
3,213,34681,-1576,-16261,2246,26,40,12
3,214,34686,-1521,-16219,2252,28,35,16
3,215,34691,-1499,-16212,2205,25,33,17
3,216,34696,-1471,-16184,2173,25,38,14
3,217,34701,-1436,-16152,2127,26,42,14
3,218,34706,-1441,-16166,2203,26,48,15
3,219,34711,-1455,-16147,2215,24,50,14
3,220,34716,-1469,-16187,2253,26,50,14
3,221,34721,-1571,-16187,2288,22,52,11
3,222,34726,-1640,-16218,2269,21,50,10
3,223,34731,-1612,-16240,2239,22,40,11
3,224,34736,-1635,-16245,2315,23,30,13
3,225,34741,-1625,-16272,2317,22,20,13
3,226,34746,-1654,-16294,2327,21,8,10
3,227,34751,-1643,-16337,2232,22,-2,9
3,228,34756,-1649,-16338,2179,21,-5,9
3,229,34761,-1592,-16291,2135,20,-3,8
3,230,34766,-1501,-16234,2178,21,-7,9
3,231,34771,-1440,-16259,2183,23,-8,11
3,232,34776,-1468,-16239,2090,22,-3,9
3,233,34781,-1482,-16234,2043,18,9,7
3,234,34786,-1521,-16204,2135,21,20,9
3,235,34791,-1542,-16191,2162,20,28,9
3,236,34796,-1543,-16233,2192,20,34,8
3,237,34801,-1557,-16243,2231,20,37,7
3,238,34806,-1651,-16220,2226,16,42,5
3,239,34811,-1693,-16194,2322,17,37,4
3,240,34816,-1691,-16211,2379,16,26,3
3,241,34821,-1650,-16189,2388,16,18,3
3,242,34826,-1645,-16180,2363,13,10,6
3,243,34831,-1676,-16132,2300,11,3,3
3,244,34836,-1745,-16182,2295,15,-8,3
3,245,34841,-1725,-16213,2262,15,-13,2
3,246,34846,-1631,-16202,2220,14,-19,1
3,247,34851,-1618,-16220,2227,14,-17,1
3,248,34856,-1628,-16234,2239,12,-15,0
3,249,34861,-1646,-16234,2244,11,-15,-2
3,250,34866,-1631,-16246,2210,11,-13,-3
3,251,34871,-1616,-16252,2172,13,-9,-2
3,252,34876,-1666,-16254,2241,11,-4,-3
3,253,34881,-1686,-16214,2284,10,-6,-3
3,254,34886,-1680,-16209,2306,10,-9,-5
3,255,34891,-1592,-16261,2248,8,-6,-4
3,256,34896,-1549,-16256,2263,5,-8,-3
3,257,34901,-1554,-16261,2319,5,-15,-6
3,258,34906,-1621,-16302,2329,7,-22,-9
3,259,34911,-1663,-16272,2210,6,-25,-9
3,260,34916,-1651,-16302,2167,7,-23,-6
3,261,34921,-1724,-16322,2192,5,-13,-9
3,262,34926,-1698,-16271,2256,1,-5,-10
3,263,34931,-1734,-16286,2297,3,-1,-11
3,264,34936,-1714,-16280,2283,5,-3,-12
3,265,34941,-1704,-16295,2307,2,-3,-11
3,266,34946,-1711,-16297,2331,2,-7,-12
3,267,34951,-1704,-16296,2350,1,-19,-14
3,268,34956,-1652,-16260,2325,1,-30,-12
3,269,34961,-1613,-16210,2311,0,-48,-14
3,270,34966,-1583,-16180,2257,-2,-55,-13
3,271,34971,-1527,-16203,2197,-4,-57,-15
3,272,34976,-1573,-16205,2149,-3,-50,-16
3,273,34981,-1604,-16228,2073,-3,-42,-16
3,274,34986,-1611,-16264,2072,-3,-23,-15
3,275,34991,-1611,-16287,2125,-6,-6,-18
3,276,34996,-1602,-16316,2252,-7,10,-17
3,277,35001,-1647,-16317,2312,-8,20,-21
3,278,35006,-1678,-16304,2337,-11,22,-22
3,279,35011,-1668,-16308,2362,-6,19,-20
3,280,35016,-1709,-16334,2375,-10,12,-20
3,281,35021,-1686,-16361,2334,-9,5,-20
3,282,35026,-1724,-16364,2325,-10,-4,-20
3,283,35031,-1748,-16383,2291,-10,-12,-23
3,284,35036,-1720,-16396,2229,-10,-16,-25
3,285,35041,-1716,-16394,2239,-10,-19,-24
3,286,35046,-1670,-16380,2244,-10,-16,-25
3,287,35051,-1645,-16385,2206,-13,-16,-26
3,288,35056,-1585,-16376,2167,-11,-21,-23
3,289,35061,-1528,-16367,2131,-9,-21,-22
3,290,35066,-1481,-16328,2151,-11,-24,-23
3,291,35071,-1503,-16324,2222,-12,-27,-22
3,292,35076,-1489,-16326,2228,-10,-30,-23
3,293,35081,-1421,-16316,2170,-9,-34,-22
3,294,35086,-1355,-16322,2175,-10,-28,-20
3,295,35091,-1378,-16275,2171,-10,-21,-19
3,296,35096,-1406,-16259,2213,-12,-15,-20
3,297,35101,-1432,-16221,2174,-9,-9,-19
3,298,35106,-1452,-16199,2149,-9,2,-16
3,299,35111,-1444,-16178,2262,-12,16,-15
3,300,35116,-1499,-16179,2372,-12,25,-17
3,301,35121,-1533,-16144,2348,-13,30,-13
3,302,35126,-1514,-16143,2324,-13,30,-12
3,303,35131,-1588,-16148,2408,-15,28,-13
3,304,35136,-1596,-16179,2440,-16,15,-15
3,305,35141,-1558,-16181,2497,-17,-5,-14
3,306,35146,-1593,-16183,2426,-16,-18,-12
3,307,35151,-1598,-16232,2264,-12,-26,-10
3,308,35156,-1630,-16248,2198,-12,-25,-9
3,309,35161,-1574,-16279,2133,-11,-20,-10
3,310,35166,-1581,-16271,2247,-11,-15,-8
3,311,35171,-1507,-16243,2258,-10,-15,-6
3,312,35176,-1501,-16293,2278,-10,-11,-8
3,313,35181,-1546,-16276,2244,-9,-11,-8
3,314,35186,-1522,-16286,2296,-9,-14,-2
3,315,35191,-1465,-16317,2367,-9,-19,0
3,316,35196,-1432,-16238,2337,-10,-21,1
3,317,35201,-1479,-16252,2217,-7,-23,3
3,318,35206,-1555,-16286,2183,-7,-16,5
3,319,35211,-1479,-16296,2077,-5,-7,7
3,320,35216,-1441,-16319,2072,-4,5,10
3,321,35221,-1414,-16299,2126,-4,22,12
3,322,35226,-1446,-16249,2143,-2,34,12
3,323,35231,-1444,-16225,2143,1,47,16
3,324,35236,-1471,-16233,2198,0,61,15
3,325,35241,-1504,-16196,2274,1,78,18
3,326,35246,-1490,-16250,2307,4,74,25
3,327,35251,-1502,-16291,2250,8,73,26
3,328,35256,-1517,-16225,2335,7,68,29
3,329,35261,-1554,-16151,2540,8,49,34
3,330,35266,-1717,-16194,2579,11,28,40
3,331,35271,-1818,-16272,2336,17,-5,46
3,332,35276,-1691,-16293,2201,21,-27,53
3,333,35281,-1549,-16213,2497,20,-48,56
3,334,35286,-1415,-16193,2546,24,-86,61
3,335,35291,-1462,-16223,2453,30,-122,67
3,336,35296,-1496,-16255,2261,36,-143,77
3,337,35301,-1484,-16177,2029,40,-140,86
3,338,35306,-1418,-16173,1908,40,-107,87
3,339,35311,-1396,-16231,1927,45,-69,90
3,340,35316,-1119,-16189,1862,48,-39,103
3,341,35321,-1033,-16128,1945,50,3,111
3,342,35326,-1399,-16241,1867,65,92,122
3,343,35331,-1549,-16229,1807,66,140,129
3,344,35336,-1657,-16200,1944,72,191,136
3,345,35341,-1828,-16240,2217,78,223,144
3,346,35346,-1973,-16264,2403,85,223,152
3,347,35351,-2049,-16244,2539,91,206,160
3,348,35356,-2054,-16253,2744,97,175,173
3,349,35361,-1932,-16197,3070,101,129,183
3,350,35366,-1986,-16120,3139,107,66,192
3,351,35371,-2128,-16120,2996,115,2,208
3,352,35376,-2344,-16035,2776,120,-53,218
3,353,35381,-2378,-16119,2692,127,-88,233
3,354,35386,-2263,-16093,2593,133,-105,242
3,355,35391,-2181,-16051,2509,141,-104,251
3,356,35396,-2227,-16033,2449,145,-86,257
3,357,35401,-2260,-15994,2378,147,-62,265
3,358,35406,-2232,-15976,2413,153,-40,278
3,359,35411,-2124,-15938,2379,160,-7,286
3,360,35416,-2170,-15992,2475,165,31,293
3,361,35421,-2252,-15924,2714,166,62,299
3,362,35426,-2304,-15844,2691,174,81,311
3,363,35431,-2287,-15851,2726,180,95,323
3,364,35436,-2286,-15834,2727,184,106,332
3,365,35441,-2309,-15850,2826,190,113,344
3,366,35446,-2411,-15857,3063,195,108,352
3,367,35451,-2465,-15802,3056,199,96,366
3,368,35456,-2611,-15898,3002,205,89,379
3,369,35461,-2594,-15935,3108,213,79,386
3,370,35466,-2387,-15933,3070,217,58,400
3,371,35471,-2267,-15958,3182,222,31,412
3,372,35476,-2446,-15971,3271,227,-12,423
3,373,35481,-2661,-15923,2956,232,-50,434
3,374,35486,-2807,-16087,2709,241,-49,448
3,375,35491,-2811,-16102,2519,245,-15,457
3,376,35496,-2724,-16141,2727,247,24,467
3,377,35501,-2818,-16111,2939,252,47,469
3,378,35506,-2987,-16178,2774,263,49,478
3,379,35511,-3116,-16238,2680,268,64,490
3,380,35516,-3088,-16183,2782,270,97,500
3,381,35521,-3011,-16135,3000,273,115,510
3,382,35526,-3062,-16124,3124,282,118,513
3,383,35531,-3162,-16126,3142,288,103,521
3,384,35536,-3228,-16100,3194,290,87,533
3,385,35541,-3215,-16122,3095,295,79,542
3,386,35546,-3294,-16119,3076,301,84,550
3,387,35551,-3388,-16065,3083,304,95,554
3,388,35556,-3573,-16027,3264,303,99,559
3,389,35561,-3716,-15948,3343,308,95,566
3,390,35566,-3779,-15962,3313,317,88,576
3,391,35571,-3832,-16001,3323,319,87,581
3,392,35576,-3830,-15926,3475,321,79,585
3,393,35581,-3901,-15860,3756,323,56,590
3,394,35586,-4024,-15847,3847,325,23,594
3,395,35591,-4022,-15800,3592,329,-6,602
3,396,35596,-4088,-15790,3386,332,-8,606
3,397,35601,-4288,-15856,3461,331,4,606
3,398,35606,-4411,-15818,3466,334,7,607
3,399,35611,-4332,-15777,3481,338,14,610
3,400,35616,-4297,-15795,3464,341,32,612
3,401,35621,-4381,-15836,3637,338,55,608
3,402,35626,-4527,-15764,3824,340,62,608
3,403,35631,-4569,-15837,3925,344,43,614
3,404,35636,-4493,-15900,4064,345,8,616
3,405,35641,-4159,-15824,4081,343,-30,620
3,406,35646,-4186,-15753,4176,345,-61,624
3,407,35651,-4411,-15740,4024,349,-102,625
3,408,35656,-4631,-15724,3747,350,-131,623
3,409,35661,-4526,-15694,3702,347,-130,624
3,410,35666,-4409,-15748,3624,348,-105,624
3,411,35671,-4370,-15756,3655,348,-70,621
3,412,35676,-4608,-15743,3786,349,-48,621
3,413,35681,-4798,-15651,3777,352,-49,614
3,414,35686,-4747,-15606,3882,351,-43,616
3,415,35691,-4465,-15601,4022,350,-29,618
3,416,35696,-4748,-15548,4123,349,-40,608
3,417,35701,-5060,-15517,3987,350,-64,612
3,418,35706,-4973,-15515,3813,351,-72,614
3,419,35711,-4646,-15487,3726,347,-47,610
3,420,35716,-4581,-15443,3988,345,-18,605
3,421,35721,-4873,-15403,4343,346,-18,599
3,422,35726,-5021,-15308,4306,345,-52,596
3,423,35731,-4879,-15317,3999,346,-78,600
3,424,35736,-4743,-15330,3944,345,-75,598
3,425,35741,-4819,-15279,4264,334,-66,591
3,426,35746,-4971,-15225,4341,336,-81,587
3,427,35751,-5169,-15199,4009,339,-96,582
3,428,35756,-5164,-15171,3811,334,-80,574
3,429,35761,-5014,-15128,3931,330,-53,572
3,430,35766,-5016,-15085,4353,325,-38,563
3,431,35771,-5253,-15118,4459,325,-45,554
3,432,35776,-5417,-15124,4220,326,-62,556
3,433,35781,-5283,-15097,4076,322,-58,554
3,434,35786,-5171,-15055,4230,321,-57,542
3,435,35791,-5106,-14971,4529,315,-77,535
3,436,35796,-5150,-14977,4579,313,-117,532
3,437,35801,-5078,-14937,4364,311,-151,529
3,438,35806,-5025,-14874,4041,311,-151,524
3,439,35811,-5021,-14927,3938,304,-115,513
3,440,35816,-5214,-14912,4165,296,-76,499
3,441,35821,-5261,-14882,4038,294,-68,496
3,442,35826,-5422,-14903,4071,291,-33,487
3,443,35831,-5354,-14880,3950,288,11,478
3,444,35836,-5233,-14821,4123,279,60,465
3,445,35841,-5276,-14805,4297,273,82,457
3,446,35846,-5276,-14754,4685,265,78,449
3,447,35851,-5439,-14692,4735,262,54,444
3,448,35856,-5531,-14695,4574,261,42,436
3,449,35861,-5588,-14662,4450,253,64,429
3,450,35866,-5605,-14590,4526,247,79,417
3,451,35871,-5809,-14618,4802,240,65,405
3,452,35876,-5888,-14677,4787,235,15,402
3,453,35881,-5732,-14767,4558,230,-13,393
3,454,35886,-5759,-14794,4584,221,-10,381
3,455,35891,-5841,-14798,4580,213,-18,369
3,456,35896,-6024,-14725,4675,206,-46,358
3,457,35901,-6072,-14813,4625,200,-83,350
3,458,35906,-5914,-14830,4486,195,-103,339
3,459,35911,-5697,-14828,4464,182,-87,324
3,460,35916,-5671,-14857,4495,177,-66,309
3,461,35921,-5727,-14774,4449,168,-57,294
3,462,35926,-5846,-14694,4292,160,-49,283
3,463,35931,-5889,-14688,4198,152,-16,271
3,464,35936,-5950,-14678,4260,140,38,250
3,465,35941,-5938,-14691,4231,129,93,234
3,466,35946,-5937,-14654,4452,119,144,220
3,467,35951,-5852,-14640,4750,109,158,205
3,468,35956,-5777,-14586,4804,102,140,193
3,469,35961,-5855,-14641,4707,93,118,182
3,470,35966,-5959,-14687,4660,84,97,166
3,471,35971,-5989,-14713,4677,73,76,155
3,472,35976,-6007,-14746,4708,64,53,144
3,473,35981,-6070,-14799,4608,56,16,128
3,474,35986,-6341,-14852,4561,44,-18,110
3,475,35991,-6444,-14929,4530,36,-45,98
3,476,35996,-6400,-14958,4588,27,-60,79
3,477,36001,-6223,-14986,4618,18,-79,62
3,478,36006,-6072,-15011,4742,5,-109,46
3,479,36011,-6067,-14992,4807,-5,-159,27
3,480,36016,-6070,-14968,4684,-12,-211,14
3,481,36021,-6024,-14946,4446,-19,-236,2
3,482,36026,-5965,-14893,4203,-33,-223,-16
3,483,36031,-5908,-14803,4211,-48,-188,-39
3,484,36036,-5889,-14723,4421,-63,-149,-58
3,485,36041,-5968,-14623,4588,-72,-118,-74
3,486,36046,-6032,-14634,4433,-82,-86,-92
3,487,36051,-5909,-14653,4244,-92,-40,-110
3,488,36056,-5773,-14642,4831,-125,7,-148
3,489,36061,-5804,-14785,4965,-132,-42,-164
3,490,36066,-5692,-14795,4666,-137,-106,-172
3,491,36071,-5584,-14814,4403,-149,-133,-186
3,492,36076,-5557,-14870,4469,-166,-136,-207
3,493,36081,-5506,-14811,4469,-177,-153,-223
3,494,36086,-5469,-14842,4338,-182,-179,-232
3,495,36091,-5430,-14795,3951,-195,-184,-252
3,496,36096,-5469,-14723,4000,-207,-152,-267
3,497,36101,-5504,-14750,4013,-217,-118,-282
3,498,36106,-5344,-14718,4017,-229,-87,-304
3,499,36111,-5179,-14727,3990,-237,-59,-319
3,500,36116,-5159,-14767,4017,-249,-34,-339
3,501,36121,-5184,-14761,4131,-258,-24,-357
3,502,36126,-5128,-14753,4135,-268,-31,-366
3,503,36131,-4963,-14827,3885,-276,-32,-380
3,504,36136,-4805,-14741,3927,-286,-12,-401
3,505,36141,-4870,-14773,4049,-296,6,-411
3,506,36146,-4934,-14789,3972,-305,10,-426
3,507,36151,-4892,-14841,3775,-313,16,-438
3,508,36156,-4774,-14965,3740,-316,30,-446
3,509,36161,-4486,-14973,3804,-327,45,-464
3,510,36166,-4473,-14922,3974,-335,35,-482
3,511,36171,-4581,-14968,3895,-340,6,-492
3,512,36176,-4639,-15020,3788,-345,-20,-499
3,513,36181,-4454,-15005,3551,-351,-33,-505
3,514,36186,-4261,-15104,3449,-359,-19,-518
3,515,36191,-4290,-15135,3552,-365,-3,-537
3,516,36196,-4488,-15135,3503,-370,0,-551
3,517,36201,-4552,-15197,3354,-374,11,-561
3,518,36206,-4465,-15203,3283,-379,46,-571
3,519,36211,-4284,-15137,3380,-388,92,-583
3,520,36216,-4368,-15272,3658,-392,122,-593
3,521,36221,-4533,-15281,3747,-394,128,-608
3,522,36226,-4618,-15313,3703,-397,126,-613
3,523,36231,-4556,-15427,3671,-403,130,-620
3,524,36236,-4425,-15387,3772,-408,132,-634
3,525,36241,-4296,-15412,3937,-411,115,-643
3,526,36246,-4251,-15473,3976,-415,84,-648
3,527,36251,-4232,-15465,3717,-417,53,-651
3,528,36256,-4360,-15536,3422,-420,41,-662
3,529,36261,-4455,-15590,3277,-425,45,-672
3,530,36266,-4519,-15641,3339,-429,58,-679
3,531,36271,-4409,-15717,3363,-428,74,-686
3,532,36276,-4408,-15781,3298,-430,90,-699
3,533,36281,-4311,-15743,3416,-433,111,-709
3,534,36286,-4169,-15640,3499,-436,113,-716
3,535,36291,-4000,-15588,3512,-438,106,-720
3,536,36296,-4067,-15655,3428,-437,111,-729
3,537,36301,-4218,-15711,3410,-438,127,-735
3,538,36306,-4414,-15716,3400,-441,142,-741
3,539,36311,-4374,-15712,3326,-440,150,-746
3,540,36316,-4101,-15729,3378,-441,159,-750
3,541,36321,-3919,-15762,3558,-442,157,-753
3,542,36326,-3855,-15761,3776,-442,135,-760
3,543,36331,-3790,-15760,3705,-440,88,-763
3,544,36336,-3703,-15832,3444,-438,46,-762
3,545,36341,-3651,-15944,3302,-439,23,-763
3,546,36346,-3705,-15999,3268,-441,21,-763
3,547,36351,-3674,-15962,3115,-439,29,-766
3,548,36356,-3675,-15943,2938,-437,42,-771
3,549,36361,-3558,-15928,2931,-439,64,-773
3,550,36366,-3509,-15903,3071,-442,91,-779
3,551,36371,-3549,-15875,3227,-440,110,-781
3,552,36376,-3732,-15862,3137,-440,125,-785
3,553,36381,-3634,-15894,3152,-436,147,-785
3,554,36386,-3366,-15888,3170,-433,161,-782
3,555,36391,-3059,-15946,3333,-435,161,-785
3,556,36396,-3038,-15933,3502,-434,136,-788
3,557,36401,-3190,-15968,3247,-429,94,-786
3,558,36406,-3408,-15964,2879,-429,80,-786
3,559,36411,-3635,-16109,2694,-427,106,-786
3,560,36416,-3584,-16192,2777,-426,138,-785
3,561,36421,-3252,-16238,3073,-421,149,-783
3,562,36426,-2777,-16171,3475,-416,66,-780
3,563,36431,-2767,-16218,3204,-409,-18,-774
3,564,36436,-2824,-16252,2986,-410,-74,-771
3,565,36441,-2803,-16211,2693,-408,-97,-767
3,566,36446,-2721,-16226,2360,-405,-88,-762
3,567,36451,-2591,-16273,2289,-401,-56,-764
3,568,36456,-2501,-16244,2087,-397,-21,-764
3,569,36461,-2436,-16232,2102,-397,36,-761
3,570,36466,-2370,-16201,1942,-397,100,-766
3,571,36471,-2495,-16171,2059,-396,181,-767
3,572,36476,-2606,-16161,2132,-396,259,-770
3,573,36481,-2969,-16254,2454,-390,328,-769
3,574,36486,-3043,-16457,2555,-382,364,-764
3,575,36491,-2499,-16539,2596,-373,376,-761
3,576,36496,-1975,-16565,2897,-372,353,-756
3,577,36501,-1992,-16570,3462,-369,261,-753
3,578,36506,-2357,-16542,3534,-358,106,-745
3,579,36511,-2489,-16646,2706,-347,-46,-723
3,580,36516,-2237,-16680,1822,-342,-103,-712
3,581,36521,-2093,-16646,1797,-346,-89,-715
3,582,36526,-2069,-16517,2111,-343,-91,-718
3,583,36531,-2009,-16371,1885,-335,-119,-711
3,584,36536,-1844,-16279,1436,-327,-118,-706
3,585,36541,-1610,-16224,1221,-327,-49,-705
3,586,36546,-1362,-16185,1317,-329,48,-708
3,587,36551,-1285,-16122,1554,-330,136,-713
3,588,36556,-1258,-16053,1655,-327,203,-712
3,589,36561,-1509,-16019,1711,-326,289,-711
3,590,36566,-1782,-16110,1774,-326,387,-709
3,591,36571,-1867,-16270,1808,-321,474,-708
3,592,36576,-1722,-16457,2032,-318,526,-709
3,593,36581,-1575,-16500,2537,-318,518,-706
3,594,36586,-1307,-16643,3005,-306,425,-697
3,595,36591,-1199,-16653,3012,-295,275,-688
3,596,36596,-1155,-16695,2753,-291,114,-677
3,597,36601,-1359,-16194,2128,-286,-30,-666
3,598,36606,-206,-16263,-6468,-261,-114,-641
3,599,36611,-7928,-23877,-32768,-151,628,-729
3,600,36616,-32768,-16192,-14606,-208,4787,-666
3,601,36621,-7907,-16940,20592,-19,8182,27
3,602,36626,29611,-15232,32767,18,8438,-254
3,603,36631,30318,-16068,32132,247,4470,-559
3,604,36636,-5426,-15163,18756,331,-1828,-194
3,605,36641,-32768,-10407,15312,227,-6019,449
3,606,36646,-18601,-13285,-4712,269,-7904,1102
3,607,36651,10860,-19666,-19882,196,-5062,847
3,608,36656,16672,-23475,-24903,161,-519,139
3,609,36661,-8275,-17665,-492,-111,2050,-416
3,610,36666,-22773,-10318,21834,-83,387,-267
3,611,36671,-9381,-11336,8629,289,-3110,562
3,612,36676,16331,-19852,-18473,345,-2985,785
3,613,36681,11579,-20155,-10903,105,1171,-8
3,614,36686,-7140,-16376,9371,-110,3054,-501
3,615,36691,-18479,-12184,18945,-84,1138,-231
3,616,36696,-4168,-13743,-73,218,-2119,493
3,617,36701,11345,-18559,-12712,202,-1885,553
3,618,36706,6524,-17796,-298,49,899,-57
3,619,36711,-5360,-16157,13510,-7,1861,-293
3,620,36716,-10664,-13811,12528,83,390,-60
3,621,36721,-1103,-15120,-4905,215,-1555,333
3,622,36726,5969,-17008,-6459,108,-1265,313
3,623,36731,3153,-16970,4032,-20,-68,1
3,624,36736,-4162,-15570,9703,31,224,-97
3,625,36741,-4890,-15936,453,144,-377,85
3,626,36746,-526,-15928,-6819,144,-464,151
3,627,36751,2966,-16289,-2271,46,-24,93
3,628,36756,1315,-16205,7289,7,231,-6
3,629,36761,-1662,-16176,6066,79,-99,1
3,630,36766,-2064,-16216,-2255,138,-273,69
3,631,36771,-426,-16205,-4485,96,86,77
3,632,36776,650,-15987,1674,30,421,21
3,633,36781,348,-15950,7096,39,206,3
3,634,36786,-453,-16387,4011,103,-281,47
3,635,36791,-1180,-16495,-2063,81,41,37
3,636,36796,-876,-16148,2711,38,235,13
3,637,36801,-276,-16283,4584,58,-29,27
3,638,36806,-101,-16750,1489,104,-306,50
3,639,36811,-879,-16970,-1072,104,-191,35
3,640,36816,-1735,-16662,20,77,89,4
3,641,36821,-1557,-16347,2725,56,144,3
3,642,36826,-311,-16490,2858,69,-53,25
3,643,36831,290,-16786,1311,90,-165,29
3,644,36836,-383,-16823,703,85,-81,7
3,645,36841,-1496,-16549,1515,68,25,-8
3,646,36846,-1589,-16403,2022,64,-4,3
3,647,36851,-770,-16572,1641,70,-65,15
3,648,36856,-231,-16759,1237,74,-28,6
3,649,36861,-783,-16716,1730,66,56,-16
3,650,36866,-1541,-16534,2135,59,60,-21
3,651,36871,-1555,-16477,1882,61,2,-8
3,652,36876,-957,-16556,1591,59,-12,-4
3,653,36881,-631,-16609,1921,56,36,-16
3,654,36886,-901,-16572,2394,53,46,-23
3,655,36891,-1320,-16503,2330,49,-10,-22
3,656,36896,-1294,-16478,1785,50,-70,-17
3,657,36901,-1025,-16503,1613,45,-63,-14
3,658,36906,-911,-16594,2025,40,-26,-23
3,659,36911,-1024,-16632,2256,36,-31,-30
3,660,36916,-1143,-16671,2013,37,-74,-26
3,661,36921,-1140,-16681,1631,34,-93,-27
3,662,36926,-982,-16632,1632,30,-74,-28
3,663,36931,-887,-16614,2017,26,-56,-33
3,664,36936,-855,-16639,2017,24,-66,-31
3,665,36941,-907,-16676,1788,26,-71,-33
3,666,36946,-1039,-16668,1615,25,-54,-39
3,667,36951,-1098,-16596,1744,20,-32,-43
3,668,36956,-1037,-16555,1954,14,-20,-41
3,669,36961,-1022,-16540,2058,13,-25,-40
3,670,36966,-1029,-16582,1978,13,-27,-41
3,671,36971,-946,-16505,1922,13,-25,-41
3,672,36976,-888,-16405,1928,8,-32,-41
3,673,36981,-861,-16363,2042,4,-43,-44
3,674,36986,-866,-16339,2010,6,-63,-42
3,675,36991,-925,-16307,1889,1,-77,-39
3,676,36996,-877,-16314,1738,1,-64,-41
3,677,37001,-828,-16304,1731,-4,-40,-40
3,678,37006,-768,-16244,1877,-4,-26,-39
3,679,37011,-714,-16260,1903,-6,-25,-41
3,680,37016,-682,-16227,1835,-5,-24,-37
3,681,37021,-663,-16203,1722,-9,-14,-36
3,682,37026,-705,-16257,1647,-12,2,-38
3,683,37031,-844,-16322,1762,-12,11,-37
3,684,37036,-933,-16379,1794,-11,17,-38
3,685,37041,-973,-16419,1780,-11,18,-36
3,686,37046,-1017,-16419,1760,-10,19,-33
3,687,37051,-920,-16401,1952,-14,15,-32
3,688,37056,-838,-16405,2121,-15,-5,-31
3,689,37061,-836,-16420,2085,-14,-30,-30
3,690,37066,-860,-16445,1826,-9,-50,-28
3,691,37071,-863,-16414,1646,-10,-56,-25
3,692,37076,-913,-16371,1716,-13,-49,-24
3,693,37081,-1012,-16416,1828,-14,-45,-24
3,694,37086,-1022,-16420,1775,-10,-43,-24
3,695,37091,-889,-16423,1716,-10,-30,-20
3,696,37096,-796,-16365,1813,-15,-14,-21
3,697,37101,-715,-16321,2049,-13,-14,-20
3,698,37106,-650,-16274,2078,-13,-33,-15
3,699,37111,-604,-16285,1932,-13,-50,-11
3,700,37116,-621,-16253,1776,-14,-49,-10
3,701,37121,-679,-16232,1700,-13,-36,-8
3,702,37126,-710,-16292,1697,-12,-22,-3
3,703,37131,-764,-16316,1626,-13,-7,-2
3,704,37136,-793,-16350,1561,-14,23,-4
3,705,37141,-904,-16376,1637,-12,54,-2
3,706,37146,-972,-16340,1762,-10,75,-3
3,707,37151,-908,-16336,1890,-12,84,0
3,708,37156,-882,-16255,2087,-8,55,4
3,709,37161,-918,-16293,2058,-4,28,5
3,710,37166,-993,-16283,2012,-5,3,10
3,711,37171,-1009,-16273,1968,-4,-12,14
3,712,37176,-983,-16239,1945,-4,-20,13
3,713,37181,-915,-16221,1897,-4,-23,16
3,714,37186,-912,-16217,1807,-3,-20,17
3,715,37191,-950,-16225,1838,-2,-21,19
3,716,37196,-890,-16260,1804,0,-22,24
3,717,37201,-855,-16285,1813,0,-20,23
3,718,37206,-875,-16207,1822,-3,-15,23
3,719,37211,-935,-16219,1924,0,-8,23
3,720,37216,-903,-16235,1869,2,-4,28
3,721,37221,-776,-16259,1800,4,1,34
3,722,37226,-1186,-16001,3089,5,18,29
3,723,37231,-121,-16828,482,10,-30,43
3,724,37236,-1703,-15813,3048,-1,51,22
3,725,37241,-909,-16639,1685,5,-35,40
3,726,37246,-1384,-16189,1996,11,1,37
3,727,37251,-693,-16483,1398,11,7,46
3,728,37256,-1129,-16202,2307,2,54,35
3,729,37261,-845,-16366,2077,11,11,45
3,730,37266,-1261,-16304,2162,10,0,40
3,731,37271,-949,-16319,1604,19,-28,48
3,732,37276,-1049,-16436,1780,14,15,47
3,733,37281,-1224,-16290,1962,11,17,41
3,734,37286,-1013,-16364,2093,14,-9,49
3,735,37291,-1032,-16299,2007,16,-20,49
3,736,37296,-1013,-16351,1830,17,-13,52
3,737,37301,-1088,-16269,1898,15,16,49
3,738,37306,-1164,-16252,2051,15,29,46
3,739,37311,-1223,-16309,2090,15,22,49
3,740,37316,-1207,-16339,2054,15,17,47
3,741,37321,-1242,-16369,2115,17,18,47
3,742,37326,-1184,-16377,2234,17,17,51
3,743,37331,-1160,-16372,2310,17,2,52
3,744,37336,-1129,-16346,2269,16,-24,55
3,745,37341,-1140,-16362,2281,18,-51,57
3,746,37346,-1139,-16362,2211,19,-76,56
3,747,37351,-1131,-16400,2082,18,-86,60
3,748,37356,-1174,-16452,1945,19,-84,59
3,749,37361,-1222,-16456,1944,19,-78,59
3,750,37366,-1163,-16491,1947,19,-73,54
3,751,37371,-1129,-16509,1910,21,-74,57
3,752,37376,-1098,-16513,1864,21,-74,59
3,753,37381,-1158,-16514,1842,21,-69,56
3,754,37386,-1179,-16505,1903,21,-70,56
3,755,37391,-1133,-16531,1879,24,-66,59
3,756,37396,-1037,-16581,1823,22,-51,55
3,757,37401,-1091,-16506,1846,20,-35,53
3,758,37406,-1229,-16514,1979,21,-26,55
3,759,37411,-1236,-16476,1992,24,-34,54
3,760,37416,-1163,-16409,1865,26,-35,56
3,761,37421,-1044,-16403,1891,24,-22,54
3,762,37426,-1122,-16403,2018,23,-23,48
3,763,37431,-1170,-16374,2074,27,-40,50
3,764,37436,-1146,-16359,1935,29,-62,55
3,765,37441,-1031,-16337,1766,29,-62,59
3,766,37446,-1013,-16316,1867,24,-51,53
3,767,37451,-1000,-16253,1998,26,-50,51
3,768,37456,-910,-16239,1915,31,-59,55
3,769,37461,-852,-16230,1778,31,-63,55
3,770,37466,-884,-16234,1807,33,-54,57
3,771,37471,-960,-16263,1881,33,-45,55
3,772,37476,-1020,-16286,1887,32,-43,56
3,773,37481,-1000,-16292,1785,35,-35,58
3,774,37486,-988,-16283,1840,33,-16,56
3,775,37491,-1080,-16296,1941,32,-7,55
3,776,37496,-1111,-16282,2048,33,-11,52
3,777,37501,-1106,-16255,1999,36,-16,54
3,778,37506,-1124,-16227,2027,37,-18,55
3,779,37511,-1154,-16256,2013,33,-18,54
3,780,37516,-1174,-16240,2029,32,-23,49
3,781,37521,-1231,-16312,1980,36,-40,49
3,782,37526,-1263,-16249,2015,38,-38,47
3,783,37531,-1219,-16278,2056,39,-42,50
3,784,37536,-1176,-16250,2064,36,-49,45
3,785,37541,-1007,-16208,2057,36,-53,47
3,786,37546,-988,-16243,2050,37,-58,48
3,787,37551,-1059,-16252,2026,38,-60,43
3,788,37556,-1172,-16239,1913,37,-68,44
3,789,37561,-1177,-16273,1842,39,-65,46
3,790,37566,-1113,-16285,1805,39,-50,45
3,791,37571,-1109,-16331,1972,36,-32,43
3,792,37576,-1130,-16314,2080,34,-20,38
3,793,37581,-1183,-16306,2096,37,-18,39
3,794,37586,-1182,-16322,2041,39,-18,39
3,795,37591,-1227,-16302,2100,36,-21,37
3,796,37596,-1112,-16261,2178,36,-26,36
3,797,37601,-1107,-16223,2195,35,-35,36
3,798,37606,-1213,-16257,2110,35,-38,37
3,799,37611,-1327,-16244,2014,34,-36,35
3,800,37616,-1329,-16298,1990,35,-30,36
3,801,37621,-1314,-16327,2089,33,-24,32
3,802,37626,-1294,-16320,2198,33,-24,30
3,803,37631,-1237,-16337,2288,32,-32,29
3,804,37636,-1188,-16304,2246,29,-46,25
3,805,37641,-1174,-16256,2138,30,-59,29
3,806,37646,-1184,-16297,2119,30,-72,29
3,807,37651,-1184,-16314,2059,29,-81,26
3,808,37656,-1149,-16308,1922,29,-77,28
3,809,37661,-1175,-16366,1902,27,-66,27
3,810,37666,-1187,-16426,1874,26,-51,24
3,811,37671,-1112,-16360,1855,26,-37,21
3,812,37676,-1006,-16349,1886,24,-30,25
3,813,37681,-1022,-16366,1967,24,-25,20
3,814,37686,-1055,-16356,1942,25,-20,17
3,815,37691,-1155,-16373,1958,24,-16,19
3,816,37696,-1198,-16366,1896,23,-13,19
3,817,37701,-1179,-16409,1927,23,-1,19
3,818,37706,-1116,-16429,2005,23,5,20
3,819,37711,-1198,-16465,2061,24,1,17
3,820,37716,-1316,-16505,2057,24,-4,15
3,821,37721,-1354,-16546,2037,20,-8,13
3,822,37726,-1373,-16529,2051,22,-12,14
3,823,37731,-1361,-16477,2189,20,-9,8
3,824,37736,-1347,-16431,2250,20,-16,9
3,825,37741,-1334,-16426,2291,17,-28,9
3,826,37746,-1304,-16393,2273,17,-45,7
3,827,37751,-1261,-16359,2150,19,-56,5
3,828,37756,-1224,-16330,2103,17,-57,9
3,829,37761,-1170,-16309,2123,15,-56,10
3,830,37766,-1201,-16247,2081,13,-52,4
3,831,37771,-1275,-16252,2049,13,-44,1
3,832,37776,-1276,-16256,2117,11,-37,1
3,833,37781,-1265,-16230,2068,9,-21,1
3,834,37786,-1221,-16241,2099,5,-6,1
3,835,37791,-1187,-16256,2134,6,1,-3
3,836,37796,-1230,-16271,2143,5,-2,-4
3,837,37801,-1262,-16296,2178,3,-10,-2
3,838,37806,-1299,-16318,2180,4,-21,-1
3,839,37811,-1294,-16385,2119,4,-25,-3
3,840,37816,-1326,-16422,2099,3,-26,-4
3,841,37821,-1313,-16398,2112,3,-25,-4
3,842,37826,-1329,-16393,2158,1,-33,-9
3,843,37831,-1312,-16366,2152,1,-50,-9
3,844,37836,-1281,-16367,2134,0,-61,-6
3,845,37841,-1243,-16359,2062,-2,-63,-7
3,846,37846,-1296,-16389,2051,-3,-58,-13
3,847,37851,-1331,-16431,2084,-1,-56,-15
3,848,37856,-1280,-16376,2071,-3,-58,-13
3,849,37861,-1239,-16350,2083,-5,-59,-11
3,850,37866,-1228,-16318,2085,-8,-55,-15
3,851,37871,-1197,-16287,2136,-5,-48,-17
3,852,37876,-1165,-16268,2160,-6,-46,-13
3,853,37881,-1159,-16295,2133,-7,-42,-14
3,854,37886,-1126,-16307,2049,-7,-32,-17
3,855,37891,-1119,-16335,2047,-7,-24,-20
3,856,37896,-1145,-16306,2113,-11,-16,-19
3,857,37901,-1099,-16297,2092,-12,-14,-21
3,858,37906,-1081,-16310,2093,-12,-12,-19
3,859,37911,-1201,-16375,2100,-12,-6,-16
3,860,37916,-1328,-16434,2053,-11,-5,-21
3,861,37921,-1369,-16372,2080,-13,-8,-24
3,862,37926,-1391,-16391,2076,-12,-11,-21
3,863,37931,-1266,-16399,2187,-12,-17,-21
3,864,37936,-1226,-16369,2252,-16,-27,-20
3,865,37941,-1261,-16361,2255,-14,-40,-21
3,866,37946,-1255,-16322,2123,-9,-56,-21
3,867,37951,-1215,-16293,1987,-9,-69,-17
3,868,37956,-1223,-16243,1997,-11,-74,-21
3,869,37961,-1227,-16239,2088,-14,-73,-21
3,870,37966,-1173,-16223,2124,-12,-67,-18
3,871,37971,-1093,-16251,2117,-13,-54,-19
3,872,37976,-1009,-16215,2128,-13,-33,-20
3,873,37981,-951,-16207,2215,-14,-20,-19
3,874,37986,-923,-16252,2340,-17,-23,-21
3,875,37991,-914,-16284,2323,-17,-34,-16
3,876,37996,-964,-16330,2235,-17,-41,-15
3,877,38001,-1000,-16376,2085,-19,-34,-16
3,878,38006,-1105,-16436,2014,-21,-24,-16
3,879,38011,-1225,-16487,1995,-18,-18,-14
3,880,38016,-1310,-16552,1947,-16,-12,-12
3,881,38021,-1292,-16601,1907,-17,-6,-12
3,882,38026,-1201,-16610,1957,-16,1,-14
3,883,38031,-1156,-16530,2052,-14,-2,-15
3,884,38036,-1199,-16505,2149,-12,-19,-13
3,885,38041,-1263,-16470,2085,-12,-38,-10
3,886,38046,-1300,-16404,2046,-10,-49,-11
3,887,38051,-1266,-16353,2009,-9,-51,-9
3,888,38056,-1226,-16311,2081,-8,-54,-10
3,889,38061,-1143,-16226,2158,-11,-50,-10
3,890,38066,-1071,-16181,2141,-8,-48,-10
3,891,38071,-1106,-16201,2051,-7,-46,-9
3,892,38076,-1164,-16194,2034,-9,-35,-10
3,893,38081,-1129,-16119,2035,-6,-29,-12
3,894,38086,-1164,-16162,2043,-5,-16,-11
3,895,38091,-1190,-16208,2034,-4,-8,-8
3,896,38096,-1178,-16184,1992,0,-6,-7
3,897,38101,-1122,-16161,2047,-2,-7,-6
3,898,38106,-1105,-16138,2108,-3,-7,-7
3,899,38111,-1155,-16142,2085,-2,-10,-8
3,900,38116,-1206,-16221,1983,0,-10,-7
3,901,38121,-1234,-16227,1925,3,-5,-6
3,902,38126,-1185,-16244,1971,1,3,-4
3,903,38131,-1181,-16217,2069,4,6,-6
3,904,38136,-1176,-16264,2145,4,-1,-7
3,905,38141,-1215,-16247,2171,4,-4,-3
3,906,38146,-1284,-16313,2075,7,-5,-1
3,907,38151,-1385,-16395,2009,6,-8,-4
3,908,38156,-1392,-16453,2106,10,-14,-5
3,909,38161,-1279,-16379,2110,8,-26,0
3,910,38166,-1194,-16384,2165,10,-32,-1
3,911,38171,-1232,-16350,2193,12,-45,-2
3,912,38176,-1278,-16346,2142,11,-55,-4
3,913,38181,-1310,-16359,2074,13,-62,-2
3,914,38186,-1258,-16345,2037,15,-56,-3
3,915,38191,-1200,-16345,1973,17,-39,1
3,916,38196,-1190,-16342,2024,14,-21,-1
3,917,38201,-1282,-16301,2181,15,-10,-2
3,918,38206,-1238,-16293,2154,15,-3,4
3,919,38211,-1202,-16308,2007,15,9,1
3,920,38216,-1210,-16303,2066,12,28,0
3,921,38221,-1195,-16362,2235,12,34,-2
3,922,38226,-1273,-16318,2295,12,30,3
3,923,38231,-1348,-16403,2223,13,23,3
3,924,38236,-1360,-16432,2151,16,18,3
3,925,38241,-1409,-16432,2240,16,14,4
3,926,38246,-1371,-16434,2340,16,-6,6
3,927,38251,-1290,-16445,2337,18,-32,9
3,928,38256,-1308,-16439,2059,20,-50,8
3,929,38261,-1361,-16477,2066,20,-50,7
3,930,38266,-1373,-16465,2107,16,-49,6
3,931,38271,-1320,-16459,2089,18,-42,9
3,932,38276,-1363,-16467,2081,17,-32,7
3,933,38281,-1332,-16469,2073,20,-20,9
3,934,38286,-1310,-16393,2190,18,-16,10
3,935,38291,-1241,-16364,2308,19,-26,6
3,936,38296,-1154,-16332,2288,19,-42,8
3,937,38301,-1148,-16330,2181,19,-56,14
3,938,38306,-1143,-16329,2150,21,-64,16
3,939,38311,-1167,-16276,2150,21,-66,16
3,940,38316,-1227,-16289,2043,19,-65,18
3,941,38321,-1228,-16287,2027,22,-61,18
3,942,38326,-1104,-16325,2032,22,-53,18
3,943,38331,-1102,-16286,2058,20,-42,21
3,944,38336,-1082,-16251,2067,19,-29,21
3,945,38341,-1114,-16255,2139,20,-19,22
3,946,38346,-1093,-16193,2080,18,-9,21
3,947,38351,-1133,-16223,2080,19,6,24
3,948,38356,-1245,-16269,2080,20,17,24
3,949,38361,-1323,-16287,2102,18,24,22
3,950,38366,-1398,-16279,2134,21,25,24
3,951,38371,-1449,-16313,2171,22,20,24
3,952,38376,-1395,-16243,2254,20,8,24
3,953,38381,-1301,-16188,2401,20,-10,26
3,954,38386,-1269,-16183,2436,19,-37,28
3,955,38391,-1255,-16147,2351,17,-62,29
3,956,38396,-1351,-16102,2262,21,-82,31
3,957,38401,-1390,-16160,2115,22,-85,29
3,958,38406,-1440,-16139,1996,22,-76,28
3,959,38411,-1379,-16113,2010,18,-57,26
3,960,38416,-1248,-16159,2096,17,-40,25
3,961,38421,-1209,-16164,2102,16,-34,29
3,962,38426,-1205,-16141,2177,15,-32,26
3,963,38431,-1249,-16194,2121,15,-31,27
3,964,38436,-1222,-16179,2112,15,-27,28
3,965,38441,-1285,-16202,2160,15,-22,28
3,966,38446,-1317,-16252,2152,12,-16,29
3,967,38451,-1310,-16220,2124,15,-15,32
3,968,38456,-1268,-16279,2165,16,-19,29
3,969,38461,-1229,-16286,2174,13,-25,30
3,970,38466,-1198,-16309,2132,15,-32,31
3,971,38471,-1268,-16311,2112,15,-42,34
3,972,38476,-1326,-16314,2048,14,-43,33
3,973,38481,-1294,-16345,2000,16,-39,33
3,974,38486,-1274,-16340,1955,15,-32,35
3,975,38491,-1303,-16377,1985,11,-21,35
3,976,38496,-1261,-16356,2049,13,-13,35
3,977,38501,-1257,-16380,2049,13,-5,33
3,978,38506,-1271,-16438,2085,14,0,32
3,979,38511,-1330,-16437,2182,13,0,35
3,980,38516,-1413,-16466,2216,13,-6,33
3,981,38521,-1446,-16457,2183,12,-10,34
3,982,38526,-1458,-16491,2189,10,-17,34
3,983,38531,-1410,-16496,2214,10,-26,35
3,984,38536,-1336,-16457,2265,13,-39,35
3,985,38541,-1296,-16443,2236,15,-56,35
3,986,38546,-1303,-16468,2188,14,-71,36
3,987,38551,-1306,-16445,2029,13,-79,38
3,988,38556,-1351,-16449,1981,13,-75,34
3,989,38561,-1302,-16425,2015,12,-61,34
3,990,38566,-1280,-16399,2044,13,-50,35
3,991,38571,-1207,-16412,2030,12,-34,35
3,992,38576,-1264,-16387,2029,11,-11,33
3,993,38581,-1342,-16365,2077,9,7,32
3,994,38586,-1339,-16391,2090,10,13,31
3,995,38591,-1366,-16447,2132,9,18,35
3,996,38596,-1352,-16394,2242,8,24,32
3,997,38601,-1360,-16345,2332,7,27,31
3,998,38606,-1401,-16340,2364,7,21,29
3,999,38611,-1443,-16384,2249,8,10,27
4,0,42446,-1496,-16460,2001,0,-9,9
4,1,42451,-1502,-16461,2061,1,-3,8
4,2,42456,-1426,-16393,2228,4,-2,10
4,3,42461,-1304,-16368,2347,3,-9,9
4,4,42466,-1220,-16291,2383,3,-21,8
4,5,42471,-1214,-16292,2333,4,-31,10
4,6,42476,-1280,-16293,2249,3,-41,12
4,7,42481,-1281,-16260,2155,3,-46,12
4,8,42486,-1315,-16297,2092,0,-40,12
4,9,42491,-1262,-16341,2046,0,-24,10
4,10,42496,-1261,-16333,2043,-2,-2,11
4,11,42501,-1306,-16324,2057,2,18,9
4,12,42506,-1290,-16292,2100,1,32,6
4,13,42511,-1261,-16281,2200,-1,40,8
4,14,42516,-1232,-16262,2269,-1,41,10
4,15,42521,-1250,-16273,2337,1,39,10
4,16,42526,-1271,-16267,2313,1,37,6
4,17,42531,-1333,-16287,2240,2,32,8
4,18,42536,-1340,-16321,2161,2,30,8
4,19,42541,-1331,-16369,2069,1,30,9
4,20,42546,-1358,-16348,2110,0,33,9
4,21,42551,-1392,-16354,2068,1,35,9
4,22,42556,-1389,-16358,1980,0,45,9
4,23,42561,-1389,-16337,2006,2,59,9
4,24,42566,-1460,-16346,2063,1,67,8
4,25,42571,-1503,-16339,2162,1,72,6
4,26,42576,-1509,-16304,2233,4,71,6
4,27,42581,-1490,-16295,2311,4,66,6
4,28,42586,-1462,-16275,2311,3,60,6
4,29,42591,-1512,-16274,2294,3,48,5
4,30,42596,-1572,-16310,2314,5,31,4
4,31,42601,-1510,-16329,2351,2,8,3
4,32,42606,-1404,-16318,2315,2,-9,4
4,33,42611,-1394,-16383,2277,1,-16,4
