event_id,seq,ts_ms,ax,ay,az,gx,gy,gz
5,0,182836,-73,-16446,2437,-9,-14,-18
5,1,182841,17,-16427,2543,-8,-13,-16
5,2,182846,41,-16417,2571,-11,-16,-17
5,3,182851,33,-16387,2579,-10,-21,-19
5,4,182856,38,-16305,2533,-8,-27,-17
5,5,182861,43,-16279,2497,-10,-23,-19
5,6,182866,43,-16274,2434,-12,-16,-18
5,7,182871,18,-16225,2382,-12,-11,-18
5,8,182876,6,-16270,2290,-12,-3,-18
5,9,182881,-35,-16409,2258,-14,5,-19
5,10,182886,-68,-16508,2382,-14,12,-18
5,11,182891,-33,-16568,2476,-14,17,-16
5,12,182896,17,-16557,2492,-13,22,-17
5,13,182901,-19,-16555,2491,-12,27,-17
5,14,182906,-46,-16568,2552,-11,28,-20
5,15,182911,-100,-16512,2537,-16,20,-23
5,16,182916,-74,-16462,2561,-14,13,-21
5,17,182921,-92,-16414,2506,-16,9,-16
5,18,182926,-93,-16422,2463,-14,13,-20
5,19,182931,-74,-16400,2446,-13,14,-20
5,20,182936,16,-16356,2399,-15,14,-22
5,21,182941,46,-16371,2419,-16,13,-19
5,22,182946,44,-16446,2427,-13,16,-17
5,23,182951,15,-16473,2342,-13,19,-20
5,24,182956,45,-16478,2320,-11,25,-21
5,25,182961,33,-16433,2304,-15,34,-20
5,26,182966,40,-16361,2313,-15,40,-20
5,27,182971,94,-16304,2361,-15,48,-20
5,28,182976,45,-16276,2390,-15,52,-21
5,29,182981,-46,-16335,2359,-15,55,-21
5,30,182986,-29,-16355,2361,-14,54,-23
5,31,182991,-5,-16401,2457,-12,49,-22
5,32,182996,15,-16443,2569,-8,41,-23
5,33,183001,-8,-16450,2553,-10,29,-22
5,34,183006,-44,-16440,2433,-7,19,-22
5,35,183011,-137,-16398,2382,-5,15,-21
5,36,183016,-155,-16316,2378,-8,13,-20
5,37,183021,-117,-16245,2393,-6,9,-22
5,38,183026,-93,-16216,2362,-7,13,-23
5,39,183031,-113,-16221,2313,-9,18,-22
5,40,183036,-130,-16263,2400,-6,23,-23
5,41,183041,-114,-16280,2420,-3,27,-22
5,42,183046,-24,-16273,2426,-5,25,-25
5,43,183051,52,-16238,2434,-1,22,-25
5,44,183056,51,-16215,2452,-2,22,-25
5,45,183061,18,-16219,2393,-3,15,-26
5,46,183066,26,-16234,2349,0,5,-25
5,47,183071,18,-16251,2354,3,1,-22
5,48,183076,20,-16259,2342,5,-3,-24
5,49,183081,-21,-16275,2239,5,4,-25
5,50,183086,3,-16253,2222,5,11,-23
5,51,183091,26,-16232,2254,6,25,-21
5,52,183096,26,-16259,2309,6,37,-27
5,53,183101,-12,-16302,2273,5,50,-24
5,54,183106,-25,-16304,2287,5,58,-25
5,55,183111,-2,-16274,2299,6,65,-26
5,56,183116,33,-16266,2428,7,63,-26
5,57,183121,43,-16317,2493,10,52,-25
5,58,183126,51,-16314,2501,10,39,-24
5,59,183131,22,-16267,2489,11,30,-22
5,60,183136,-23,-16248,2499,12,21,-21
5,61,183141,-31,-16224,2497,13,12,-23
5,62,183146,-35,-16236,2449,17,3,-22
5,63,183151,-20,-16207,2419,18,-6,-22
5,64,183156,-21,-16213,2429,18,-8,-23
5,65,183161,-73,-16237,2406,18,-4,-23
5,66,183166,-79,-16237,2336,16,6,-24
5,67,183171,-108,-16225,2334,13,15,-24
5,68,183176,-89,-16190,2382,13,30,-24
5,69,183181,-65,-16182,2424,9,48,-26
5,70,183186,-94,-16173,2493,10,60,-23
5,71,183191,-83,-16234,2541,9,61,-26
5,72,183196,-60,-16254,2547,10,59,-26
5,73,183201,-42,-16274,2548,10,60,-27
5,74,183206,-90,-16295,2576,10,53,-27
5,75,183211,-118,-16346,2607,9,45,-26
5,76,183216,-86,-16380,2580,9,36,-27
5,77,183221,-51,-16337,2604,10,30,-27
5,78,183226,-75,-16335,2615,8,19,-27
5,79,183231,-90,-16377,2604,9,2,-21
5,80,183236,-74,-16373,2547,12,-10,-22
5,81,183241,-27,-16396,2495,9,-18,-24
5,82,183246,8,-16374,2469,6,-24,-25
5,83,183251,29,-16407,2421,10,-30,-24
5,84,183256,51,-16425,2373,12,-40,-24
5,85,183261,49,-16424,2320,10,-40,-23
5,86,183266,81,-16454,2265,13,-32,-20
5,87,183271,78,-16433,2229,12,-25,-21
5,88,183276,86,-16450,2221,11,-16,-21
5,89,183281,102,-16449,2200,9,-5,-22
5,90,183286,155,-16440,2238,6,6,-20
5,91,183291,161,-16432,2276,8,18,-19
5,92,183296,150,-16418,2259,6,24,-21
5,93,183301,148,-16387,2233,7,29,-19
5,94,183306,139,-16433,2243,9,31,-17
5,95,183311,112,-16440,2317,8,33,-17
5,96,183316,147,-16402,2380,10,33,-16
5,97,183321,143,-16406,2378,8,34,-14
5,98,183326,137,-16396,2358,8,33,-12
5,99,183331,86,-16401,2335,7,30,-10
5,100,183336,25,-16400,2380,8,29,-13
5,101,183341,60,-16382,2385,8,23,-10
5,102,183346,80,-16366,2370,5,21,-9
5,103,183351,90,-16354,2446,5,20,-6
5,104,183356,70,-16303,2416,6,19,-7
5,105,183361,39,-16285,2375,6,20,-8
5,106,183366,36,-16351,2428,5,19,-8
5,107,183371,39,-16336,2461,2,18,-8
5,108,183376,28,-16307,2516,3,18,-3
5,109,183381,20,-16309,2444,2,18,-4
5,110,183386,-55,-16312,2396,2,12,-4
5,111,183391,-123,-16297,2418,5,5,-4
5,112,183396,-118,-16288,2423,2,3,-3
5,113,183401,-88,-16318,2370,2,2,-1
5,114,183406,-131,-16306,2318,2,7,-5
5,115,183411,-175,-16355,2247,1,17,-5
5,116,183416,-239,-16334,2282,-1,25,-6
5,117,183421,-158,-16354,2388,-1,34,-6
5,118,183426,-105,-16356,2438,-1,39,-3
5,119,183431,-169,-16387,2425,-2,40,-2
5,120,183436,-174,-16389,2423,-3,42,-8
5,121,183441,-129,-16330,2492,-4,36,-8
5,122,183446,-100,-16315,2530,-4,25,-6
5,123,183451,-71,-16366,2545,-3,2,-6
5,124,183456,-48,-16386,2514,0,-7,-6
5,125,183461,-125,-16425,2397,-2,-19,-5
5,126,183466,-153,-16399,2420,-2,-26,-6
5,127,183471,-76,-16353,2405,-1,-32,-3
5,128,183476,-10,-16330,2366,-2,-36,-4
5,129,183481,-12,-16295,2335,-1,-40,-3
5,130,183486,-49,-16313,2305,-1,-43,0
5,131,183491,-67,-16324,2252,-1,-39,-2
5,132,183496,2,-16320,2236,-3,-31,-3
5,133,183501,-36,-16367,2275,0,-22,-3
5,134,183506,-58,-16368,2233,0,-11,-1
5,135,183511,-104,-16355,2158,-2,0,-3
5,136,183516,-4,-16342,2232,-3,6,-4
5,137,183521,21,-16340,2365,-5,4,-5
5,138,183526,62,-16360,2411,-3,-2,-1
5,139,183531,26,-16368,2377,-5,-6,0
5,140,183536,-43,-16400,2280,-3,-7,-2
5,141,183541,-90,-16445,2268,-1,-3,1
5,142,183546,-52,-16446,2281,-2,0,-3
5,143,183551,27,-16407,2364,-3,-7,-1
5,144,183556,63,-16374,2403,-1,-13,0
5,145,183561,9,-16393,2384,1,-19,0
5,146,183566,-29,-16401,2312,0,-25,1
5,147,183571,-56,-16410,2294,2,-28,2
5,148,183576,-68,-16430,2296,0,-21,1
5,149,183581,-40,-16419,2326,-1,-19,4
5,150,183586,-36,-16401,2379,0,-19,3
5,151,183591,-34,-16362,2317,-4,-13,3
5,152,183596,-45,-16363,2304,-1,-10,3
5,153,183601,-51,-16357,2320,1,-9,2
5,154,183606,-80,-16377,2300,-1,-6,5
5,155,183611,-67,-16391,2355,0,-8,5
5,156,183616,-31,-16438,2388,1,-8,4
5,157,183621,-11,-16425,2405,0,-8,3
5,158,183626,-88,-16374,2390,0,-12,2
5,159,183631,-67,-16360,2399,-1,-16,1
5,160,183636,-76,-16390,2378,0,-16,6
5,161,183641,-69,-16393,2363,0,-13,5
5,162,183646,-71,-16385,2305,-1,-12,3
5,163,183651,-76,-16406,2283,-3,-9,4
5,164,183656,-48,-16403,2284,-1,-5,5
5,165,183661,41,-16418,2294,-1,-5,6
5,166,183666,70,-16439,2255,0,-1,5
5,167,183671,30,-16440,2304,-2,5,3
5,168,183676,42,-16457,2306,-3,9,3
5,169,183681,29,-16425,2260,-2,13,8
5,170,183686,9,-16397,2254,-3,17,8
5,171,183691,13,-16424,2394,-2,19,8
5,172,183696,9,-16365,2400,-1,21,10
5,173,183701,-12,-16405,2363,-1,20,8
5,174,183706,3,-16465,2385,-2,17,7
5,175,183711,-28,-16416,2433,0,13,11
5,176,183716,-23,-16374,2455,-1,5,11
5,177,183721,-24,-16385,2507,-4,-2,10
5,178,183726,-49,-16399,2462,-2,-2,9
5,179,183731,-86,-16378,2469,0,-5,13
5,180,183736,-103,-16358,2506,0,-9,15
5,181,183741,-62,-16350,2426,-1,-14,14
5,182,183746,-45,-16318,2403,-1,-10,11
5,183,183751,-44,-16304,2364,-1,-12,12
5,184,183756,-57,-16311,2354,-3,-14,12
5,185,183761,-4,-16304,2362,-2,-13,12
5,186,183766,-22,-16260,2311,-1,-12,14
5,187,183771,-25,-16251,2314,-3,-1,13
5,188,183776,-30,-16248,2307,-2,9,13
5,189,183781,-26,-16274,2358,-5,14,12
5,190,183786,19,-16222,2426,-8,12,15
5,191,183791,10,-16222,2434,-6,17,16
5,192,183796,26,-16268,2379,-3,17,15
5,193,183801,-33,-16286,2418,-4,15,14
5,194,183806,-70,-16307,2443,-2,10,15
5,195,183811,-28,-16299,2502,-5,4,17
5,196,183816,38,-16312,2448,-5,-11,17
5,197,183821,2,-16274,2398,0,-16,17
5,198,183826,-40,-16288,2378,1,-19,18
5,199,183831,-3,-16278,2393,-3,-21,17
5,200,183836,4,-16276,2346,-1,-21,16
5,201,183841,-27,-16287,2296,-1,-17,19
5,202,183846,-28,-16313,2244,-2,-8,20
5,203,183851,-29,-16309,2226,-1,-2,19
5,204,183856,-15,-16282,2256,0,0,18
5,205,183861,7,-16288,2313,-4,4,19
5,206,183866,-6,-16300,2316,-5,11,21
5,207,183871,-46,-16334,2338,-4,14,19
5,208,183876,-18,-16330,2351,-2,16,19
5,209,183881,-12,-16329,2303,-2,18,20
5,210,183886,-47,-16338,2387,-4,16,20
5,211,183891,-67,-16329,2369,-3,16,18
5,212,183896,-14,-16376,2424,-2,10,20
5,213,183901,-46,-16345,2474,0,6,23
5,214,183906,-97,-16353,2412,-2,3,19
5,215,183911,-119,-16378,2346,-3,-1,16
5,216,183916,-143,-16365,2368,1,-9,19
5,217,183921,-111,-16357,2391,0,-13,19
5,218,183926,-53,-16321,2380,2,-20,19
5,219,183931,-13,-16329,2361,2,-21,20
5,220,183936,-80,-16321,2317,1,-20,18
5,221,183941,-160,-16319,2326,4,-17,20
5,222,183946,-177,-16287,2383,4,-6,17
5,223,183951,-144,-16294,2368,1,5,17
5,224,183956,-134,-16289,2350,0,11,17
5,225,183961,-166,-16315,2310,1,18,14
5,226,183966,-194,-16348,2364,-2,23,14
5,227,183971,-237,-16349,2434,0,24,14
5,228,183976,-159,-16358,2501,0,20,15
5,229,183981,-170,-16346,2534,1,11,11
5,230,183986,-202,-16341,2534,2,3,11
5,231,183991,-239,-16333,2462,5,-5,9
5,232,183996,-259,-16327,2483,0,-12,8
5,233,184001,-205,-16344,2455,4,-21,11
5,234,184006,-149,-16334,2433,6,-27,13
5,235,184011,-138,-16340,2446,3,-31,8
5,236,184016,-140,-16332,2376,2,-31,6
5,237,184021,-170,-16325,2342,3,-29,6
5,238,184026,-150,-16347,2352,3,-25,5
5,239,184031,-117,-16372,2361,4,-21,4
5,240,184036,-139,-16380,2326,4,-14,2
5,241,184041,-147,-16415,2300,1,-1,2
5,242,184046,-111,-16409,2276,3,2,4
5,243,184051,-49,-16387,2383,2,4,3
5,244,184056,-24,-16347,2468,1,1,3
5,245,184061,-55,-16326,2445,1,-4,0
5,246,184066,-98,-16346,2425,1,-5,1
5,247,184071,-160,-16323,2382,5,-8,1
5,248,184076,-156,-16307,2371,5,-6,2
5,249,184081,-116,-16344,2390,1,-10,0
5,250,184086,-47,-16356,2450,1,-14,0
5,251,184091,-17,-16364,2464,3,-18,-2
5,252,184096,-101,-16337,2405,4,-16,-1
5,253,184101,-174,-16332,2347,2,-12,0
5,254,184106,-183,-16303,2378,3,-5,-1
5,255,184111,-191,-16269,2400,3,3,-1
5,256,184116,-162,-16242,2461,2,2,-3
5,257,184121,-120,-16232,2494,0,4,-4
5,258,184126,-147,-16204,2554,0,4,-5
5,259,184131,-187,-16204,2545,0,0,-4
5,260,184136,-193,-16132,2601,-2,-6,-4
5,261,184141,-180,-16131,2619,-2,-13,-4
5,262,184146,-226,-16132,2609,-2,-22,-6
5,263,184151,-299,-16146,2597,-2,-27,-9
5,264,184156,-303,-16126,2550,-1,-26,-9
5,265,184161,-284,-16112,2517,-6,-25,-8
5,266,184166,-246,-16153,2482,-9,-24,-9
5,267,184171,-142,-16227,2436,-5,-26,-11
5,268,184176,-214,-16270,2391,-7,-28,-12
5,269,184181,-64,-16270,2367,-5,-29,-11
5,270,184186,-73,-16283,2345,-5,-33,-11
5,271,184191,-21,-16318,2309,-5,-33,-10
5,272,184196,9,-16329,2303,-6,-34,-13
5,273,184201,32,-16379,2252,-4,-35,-13
5,274,184206,95,-16361,2275,-4,-37,-10
5,275,184211,98,-16407,2187,-1,-36,-10
5,276,184216,63,-16416,2151,-3,-31,-11
5,277,184221,20,-16404,2142,-4,-23,-9
5,278,184226,26,-16449,2143,-5,-19,-10
5,279,184231,5,-16431,2167,-4,-15,-9
5,280,184236,39,-16475,2227,-3,-12,-9
5,281,184241,39,-16483,2266,-6,-7,-9
5,282,184246,10,-16456,2248,-3,-2,-8
5,283,184251,-58,-16438,2264,-3,4,-8
5,284,184256,-69,-16430,2268,-7,12,-8
5,285,184261,-112,-16479,2307,-3,15,-7
5,286,184266,-112,-16462,2350,-3,17,-9
5,287,184271,-38,-16460,2387,-4,15,-8
5,288,184276,-43,-16421,2427,-3,10,-5
5,289,184281,-85,-16398,2420,-1,4,-6
5,290,184286,-116,-16386,2435,-6,-4,-8
5,291,184291,-125,-16378,2452,-5,-9,-9
5,292,184296,-162,-16337,2485,-5,-12,-7
5,293,184301,-159,-16321,2450,-4,-16,-7
5,294,184306,-219,-16310,2424,-6,-16,-9
5,295,184311,-264,-16316,2367,-6,-16,-8
5,296,184316,-197,-16326,2370,-3,-13,-9
5,297,184321,-198,-16297,2411,-6,-7,-9
5,298,184326,-189,-16271,2464,-10,-10,-10
5,299,184331,-186,-16248,2472,-8,-14,-10
5,300,184336,-258,-16234,2433,-8,-11,-11
5,301,184341,-245,-16214,2461,-10,-13,-12
5,302,184346,-271,-16230,2461,-9,-15,-11
5,303,184351,-214,-16254,2454,-10,-15,-12
5,304,184356,-158,-16270,2371,-8,-17,-12
5,305,184361,-152,-16289,2383,-10,-19,-13
5,306,184366,-136,-16286,2408,-10,-24,-13
5,307,184371,-205,-16303,2417,-12,-29,-13
5,308,184376,-188,-16288,2388,-12,-26,-15
5,309,184381,-209,-16319,2367,-12,-20,-17
5,310,184386,-211,-16281,2423,-10,-19,-17
5,311,184391,-205,-16232,2439,-11,-18,-16
5,312,184396,-185,-16186,2464,-13,-22,-19
5,313,184401,-191,-16219,2448,-12,-28,-18
5,314,184406,-186,-16309,2432,-13,-33,-20
5,315,184411,-208,-16293,2447,-13,-37,-19
5,316,184416,-185,-16300,2469,-9,-43,-16
5,317,184421,-192,-16289,2451,-12,-46,-18
5,318,184426,-194,-16309,2396,-13,-48,-20
5,319,184431,-226,-16268,2351,-11,-51,-19
5,320,184436,-241,-16265,2341,-14,-57,-19
5,321,184441,-232,-16357,2336,-11,-62,-19
5,322,184446,-194,-16390,2353,-8,-66,-14
5,323,184451,-89,-16329,2335,-9,-64,-18
5,324,184456,-96,-16282,2281,-8,-62,-18
5,325,184461,-187,-16301,2216,-9,-63,-23
5,326,184466,-191,-16324,2166,-9,-65,-23
5,327,184471,-102,-16351,2124,-9,-64,-20
5,328,184476,25,-16378,2099,-7,-56,-18
5,329,184481,50,-16436,2086,-7,-53,-18
5,330,184486,-2,-16513,2149,-7,-52,-20
5,331,184491,-78,-16516,2182,-5,-55,-17
5,332,184496,-35,-16538,2254,-5,-58,-10
5,333,184501,124,-16515,2265,-2,-59,-9
5,334,184506,234,-16479,2288,0,-72,-11
5,335,184511,186,-16449,2345,7,-94,-9
5,336,184516,121,-16474,2262,6,-118,-3
5,337,184521,100,-16462,2133,8,-135,4
5,338,184526,109,-16472,2027,9,-132,2
5,339,184531,178,-16516,1947,11,-122,4
5,340,184536,100,-16546,1799,12,-104,4
5,341,184541,65,-16519,1739,12,-78,5
5,342,184546,137,-16512,1842,10,-20,8
5,343,184551,100,-16502,1830,8,14,8
5,344,184556,32,-16522,1896,8,42,10
5,345,184561,-4,-16494,2058,8,62,11
5,346,184566,29,-16500,2191,9,77,16
5,347,184571,48,-16489,2332,8,87,16
5,348,184576,38,-16463,2422,8,86,16
5,349,184581,-2,-16434,2465,9,78,17
5,350,184586,-57,-16409,2491,11,63,20
5,351,184591,-152,-16412,2509,11,47,25
5,352,184596,-166,-16446,2477,11,36,27
5,353,184601,-149,-16459,2449,14,30,30
5,354,184606,-196,-16445,2422,14,22,28
5,355,184611,-213,-16442,2380,13,17,28
5,356,184616,-231,-16413,2404,12,7,28
5,357,184621,-252,-16429,2451,18,-2,29
5,358,184626,-280,-16437,2360,16,-5,32
5,359,184631,-259,-16440,2365,17,-8,32
5,360,184636,-226,-16413,2435,17,-9,32
5,361,184641,-252,-16423,2453,17,-9,32
5,362,184646,-268,-16362,2456,15,-7,29
5,363,184651,-222,-16317,2445,14,-4,28
5,364,184656,-250,-16286,2448,15,-1,32
5,365,184661,-229,-16245,2453,11,-2,33
5,366,184666,-212,-16268,2483,11,-1,28
5,367,184671,-209,-16252,2491,15,1,28
5,368,184676,-193,-16252,2479,11,3,30
5,369,184681,-190,-16228,2486,9,5,29
5,370,184686,-230,-16184,2421,9,9,29
5,371,184691,-228,-16199,2481,9,9,30
5,372,184696,-200,-16248,2533,7,8,31
5,373,184701,-184,-16276,2548,7,2,29
5,374,184706,-187,-16247,2535,8,-4,26
5,375,184711,-217,-16251,2557,6,-15,29
5,376,184716,-200,-16247,2498,8,-23,29
5,377,184721,-157,-16257,2496,8,-34,30
5,378,184726,-128,-16244,2453,7,-43,30
5,379,184731,-109,-16260,2411,8,-50,29
5,380,184736,-174,-16275,2325,5,-52,27
5,381,184741,-169,-16302,2252,6,-47,30
5,382,184746,-180,-16362,2222,6,-37,31
5,383,184751,-161,-16333,2277,3,-24,28
5,384,184756,-111,-16314,2298,3,-11,28
5,385,184761,-71,-16283,2334,1,-6,31
5,386,184766,-22,-16283,2362,-1,-3,29
5,387,184771,-2,-16323,2423,0,-3,26
5,388,184776,33,-16299,2422,2,-6,28
5,389,184781,22,-16365,2438,1,-9,30
5,390,184786,18,-16343,2361,1,-12,28
5,391,184791,-61,-16345,2356,2,-12,31
5,392,184796,-48,-16377,2305,3,-14,32
5,393,184801,-88,-16370,2257,2,-10,32
5,394,184806,-138,-16422,2302,-1,0,31
5,395,184811,-150,-16425,2354,-1,10,31
5,396,184816,-184,-16402,2448,-2,12,30
5,397,184821,-216,-16415,2561,-3,12,30
5,398,184826,-347,-16400,2814,-2,10,30
5,399,184831,-449,-16322,3035,-2,-10,36
5,400,184836,-398,-16166,3266,1,-44,43
5,401,184841,-272,-15965,3344,5,-92,50
5,402,184846,-258,-15754,3146,12,-167,56
5,403,184851,-18,-15556,2934,21,-251,62
5,404,184856,194,-15454,2962,23,-334,74
5,405,184861,534,-15335,2841,24,-394,92
5,406,184866,597,-15319,2168,27,-393,95
5,407,184871,429,-15493,970,30,-321,97
5,408,184876,62,-15722,420,19,-176,98
5,409,184881,-36,-15943,334,5,-17,100
5,410,184886,41,-16047,478,-8,154,107
5,411,184891,-17,-16161,636,-15,347,110
5,412,184896,-89,-16322,791,-26,536,113
5,413,184901,-467,-16412,1358,-31,686,122
5,414,184906,-655,-16566,2308,-33,759,139
5,415,184911,154,-16328,4028,-14,663,181
5,416,184916,421,-16122,4696,5,489,207
5,417,184921,-138,-16072,4959,26,216,233
5,418,184926,-556,-16107,4389,49,-102,265
5,419,184931,-592,-16053,3515,74,-356,302
5,420,184936,-581,-16061,2781,88,-493,331
5,421,184941,-822,-16183,2286,104,-542,349
5,422,184946,-1216,-16217,1568,111,-535,364
5,423,184951,-1528,-16137,655,111,-465,380
5,424,184956,-1494,-16104,256,101,-302,395
5,425,184961,-1465,-15959,649,91,-84,407
5,426,184966,-1362,-16026,937,86,98,427
5,427,184971,-1252,-15840,1251,79,257,438
5,428,184976,-1198,-15832,1348,75,388,464
5,429,184981,-1425,-15748,1717,71,505,481
5,430,184986,-1810,-15770,2227,70,595,505
5,431,184991,-1895,-15886,2183,70,652,539
5,432,184996,-1599,-15928,2377,72,711,569
5,433,185001,-1593,-15883,2836,72,736,595
5,434,185006,-1801,-15858,3222,78,690,616
5,435,185011,-2496,-15879,3266,86,609,648
5,436,185016,-2715,-15919,2936,97,543,678
5,437,185021,-2739,-15962,2909,100,523,709
5,438,185026,-2754,-16025,3136,99,503,739
5,439,185031,-2982,-16093,3285,108,450,760
5,440,185036,-3396,-16172,2992,114,389,781
5,441,185041,-3685,-16117,2901,119,364,809
5,442,185046,-3723,-16081,3010,119,362,837
5,443,185051,-3670,-16069,3318,120,356,857
5,444,185056,-3824,-16259,3403,124,309,880
5,445,185061,-4077,-16284,3285,129,259,901
5,446,185066,-4112,-16145,3373,130,226,919
5,447,185071,-4182,-16182,3667,135,187,948
5,448,185076,-4062,-16168,3673,140,125,965
5,449,185081,-4130,-16188,3302,143,62,986
5,450,185086,-4438,-16376,3159,142,29,1006
5,451,185091,-4598,-16220,3312,147,21,1015
5,452,185096,-4601,-16189,3424,152,3,1046
5,453,185101,-4368,-16098,3334,155,-36,1061
5,454,185106,-4315,-16165,3289,159,-74,1075
5,455,185111,-4410,-16209,3249,162,-116,1093
5,456,185116,-4565,-16230,3182,164,-143,1105
5,457,185121,-4512,-16222,3020,167,-152,1115
5,458,185126,-4398,-16257,2912,171,-144,1132
5,459,185131,-4275,-16309,2935,172,-130,1144
5,460,185136,-4322,-16355,3054,173,-128,1152
5,461,185141,-4380,-16417,3140,177,-140,1159
5,462,185146,-4377,-16376,3177,177,-150,1168
5,463,185151,-4396,-16369,3236,178,-154,1175
5,464,185156,-4379,-16366,3398,180,-174,1182
5,465,185161,-4381,-16392,3484,185,-209,1188
5,466,185166,-4474,-16400,3435,189,-252,1191
5,467,185171,-4592,-16370,3256,193,-276,1192
5,468,185176,-4688,-16350,3024,193,-275,1187
5,469,185181,-4793,-16298,2847,195,-251,1183
5,470,185186,-4967,-16257,2738,194,-217,1175
5,471,185191,-5378,-16228,2690,187,-168,1164
5,472,185196,-5650,-16231,2786,183,-101,1155
5,473,185201,-5560,-16222,3259,177,-41,1143
5,474,185206,-5195,-16084,3880,171,-11,1133
5,475,185211,-4952,-16064,4403,176,-50,1120
5,476,185216,-5033,-15988,4493,179,-154,1102
5,477,185221,-5376,-15938,4150,186,-286,1088
5,478,185226,-5502,-15933,3977,193,-398,1073
5,479,185231,-5440,-15946,3864,196,-475,1057
5,480,185236,-5277,-15954,3765,204,-523,1039
5,481,185241,-5311,-16097,3632,204,-557,1016
5,482,185246,-5379,-16209,3454,206,-591,985
5,483,185251,-5356,-16299,3497,212,-619,960
5,484,185256,-5321,-16283,3401,210,-655,935
5,485,185261,-5340,-16325,3271,215,-688,906
5,486,185266,-5267,-16203,3148,218,-717,883
5,487,185271,-5085,-16342,3117,219,-739,856
5,488,185276,-5291,-16345,3184,221,-753,820
5,489,185281,-5061,-16323,2812,224,-747,763
5,490,185286,-4784,-16266,2888,222,-727,731
5,491,185291,-4681,-16229,3059,219,-717,697
5,492,185296,-4642,-16208,2965,219,-721,664
5,493,185301,-4680,-16140,2866,218,-707,632
5,494,185306,-4570,-15980,2960,213,-684,597
5,495,185311,-4303,-15920,3138,212,-661,571
5,496,185316,-4032,-15799,3160,210,-654,540
5,497,185321,-3845,-15729,3121,205,-652,506
5,498,185326,-3901,-15641,3139,202,-643,475
5,499,185331,-3858,-15544,3098,196,-623,447
5,500,185336,-3790,-15430,3007,191,-593,418
5,501,185341,-3612,-15369,3021,185,-554,388
5,502,185346,-3462,-15311,3079,178,-516,357
5,503,185351,-3413,-15312,3237,172,-485,326
5,504,185356,-3437,-15333,3376,163,-455,296
5,505,185361,-3485,-15345,3360,151,-419,266
5,506,185366,-3456,-15279,3391,145,-390,237
5,507,185371,-3416,-15127,3441,139,-373,210
5,508,185376,-3353,-15007,3531,134,-366,182
5,509,185381,-3383,-14810,3600,125,-370,153
5,510,185386,-3392,-14614,3617,119,-370,125
5,511,185391,-3503,-14532,3539,110,-357,95
5,512,185396,-3569,-14443,3420,100,-336,67
5,513,185401,-3496,-14413,3359,91,-308,41
5,514,185406,-3379,-14391,3439,82,-283,14
5,515,185411,-3448,-14406,3296,71,-255,-16
5,516,185416,-3414,-14467,3145,60,-220,-45
5,517,185421,-3210,-14175,3766,53,-170,-85
5,518,185426,-3384,-14448,2773,35,-144,-93
5,519,185431,-3731,-14685,3541,31,-18,-138
5,520,185436,-3918,-14309,3120,18,-19,-179
5,521,185441,-3370,-14767,3301,9,-51,-170
5,522,185446,-3308,-14615,3461,-4,-1,-219
5,523,185451,-3653,-14644,3970,-8,57,-255
5,524,185456,-4170,-14703,3895,-12,37,-277
5,525,185461,-4045,-14833,3395,-18,-7,-294
5,526,185466,-3640,-14664,3449,-30,-19,-328
5,527,185471,-3639,-14804,4208,-36,-30,-351
5,528,185476,-3941,-14834,4446,-38,-82,-382
5,529,185481,-3926,-14883,3733,-40,-138,-411
5,530,185486,-3864,-14953,3161,-47,-144,-436
5,531,185491,-3771,-14925,3507,-61,-123,-462
5,532,185496,-3765,-14949,3861,-69,-131,-491
5,533,185501,-3897,-15019,3546,-75,-162,-519
5,534,185506,-3925,-15070,3203,-83,-132,-550
5,535,185511,-4147,-15127,3123,-96,-77,-576
5,536,185516,-3767,-15089,3661,-106,-41,-601
5,537,185521,-3625,-15168,3460,-115,-55,-626
5,538,185526,-3592,-15144,3514,-122,-43,-657
5,539,185531,-3575,-15223,3513,-130,-16,-681
5,540,185536,-3379,-15260,3602,-143,3,-711
5,541,185541,-4175,-15121,3315,-152,18,-744
5,542,185546,-3417,-15279,3447,-156,18,-746
5,543,185551,-2601,-15428,3734,-165,6,-779
5,544,185556,-3593,-15460,3203,-176,19,-828
5,545,185561,-3705,-15493,3963,-177,63,-841
5,546,185566,-3664,-15679,3445,-177,-19,-838
5,547,185571,-2957,-15200,3091,-198,-25,-888
5,548,185576,-3473,-15287,3862,-197,36,-907
5,549,185581,-3336,-15555,3755,-202,-39,-919
5,550,185586,-2980,-15568,3713,-211,-70,-950
5,551,185591,-3366,-15897,3360,-209,-79,-967
5,552,185596,-2664,-15748,3940,-225,-86,-991
5,553,185601,-2785,-15874,4191,-221,-93,-1010
5,554,185606,-3019,-16038,3083,-232,-120,-1039
5,555,185611,-3242,-15808,3390,-242,-67,-1061
5,556,185616,-3104,-15964,3063,-244,-91,-1061
5,557,185621,-2532,-15952,3427,-251,-82,-1085
5,558,185626,-2650,-16125,3275,-257,-67,-1108
5,559,185631,-2648,-16299,2905,-268,-53,-1135
5,560,185636,-2965,-16500,2885,-276,17,-1151
5,561,185641,-2879,-16435,3077,-278,74,-1177
5,562,185646,-2491,-16515,2991,-289,122,-1210
5,563,185651,-2430,-16496,3178,-293,139,-1235
5,564,185656,-2348,-16534,3255,-295,134,-1248
5,565,185661,-2437,-16596,3322,-299,139,-1264
5,566,185666,-2310,-16633,3140,-300,142,-1281
5,567,185671,-2171,-16738,3196,-299,162,-1294
5,568,185676,-2010,-16671,3277,-299,167,-1310
5,569,185681,-1806,-16650,3262,-299,142,-1323
5,570,185686,-1654,-16581,3183,-298,115,-1336
5,571,185691,-1576,-16617,3112,-296,101,-1344
5,572,185696,-1671,-16718,3085,-294,105,-1358
5,573,185701,-1649,-16812,2919,-290,118,-1365
5,574,185706,-1467,-16828,2783,-293,141,-1375
5,575,185711,-1188,-16818,2805,-292,162,-1386
5,576,185716,-1043,-16737,2974,-292,171,-1393
5,577,185721,-1033,-16673,2946,-287,166,-1401
5,578,185726,-921,-16632,2750,-285,170,-1410
5,579,185731,-844,-16653,2760,-282,193,-1416
5,580,185736,-777,-16717,2812,-280,215,-1418
5,581,185741,-695,-16743,2864,-276,234,-1422
5,582,185746,-530,-16803,2873,-272,251,-1422
5,583,185751,-340,-16716,2964,-270,274,-1424
5,584,185756,-264,-16693,3035,-269,292,-1427
5,585,185761,-241,-16708,2976,-263,292,-1426
5,586,185766,-163,-16708,2819,-258,299,-1425
5,587,185771,-147,-16759,2676,-257,321,-1426
5,588,185776,-152,-16831,2669,-252,359,-1425
5,589,185781,-44,-16891,2697,-249,398,-1422
5,590,185786,-43,-16871,2727,-245,429,-1423
5,591,185791,15,-16885,2858,-240,454,-1421
5,592,185796,68,-16862,3025,-234,465,-1416
5,593,185801,108,-16849,3356,-226,459,-1410
5,594,185806,652,-16746,3036,-217,429,-1399
5,595,185811,844,-16859,2942,-215,414,-1389
5,596,185816,104,-16917,3452,-211,395,-1391
5,597,185821,-197,-17062,3450,-201,355,-1383
5,598,185826,-13,-16941,2827,-193,343,-1369
5,599,185831,-1,-18054,2106,-186,385,-1361
5,600,185836,-10518,-24148,9190,-163,507,-1399
5,601,185841,-32768,-4622,2990,-29,408,-1014
5,602,185846,-13299,-19914,-32768,411,746,-137
5,603,185851,4560,-28884,-22058,-545,9925,413
5,604,185856,16332,-18625,30582,-1087,19353,-570
5,605,185861,-22402,300,32767,-848,15957,-1875
5,606,185866,-17324,-10474,28207,726,-1376,-302
5,607,185871,-7991,-19877,-7054,1767,-12969,1337
5,608,185876,4845,-20075,-32768,779,-11140,1144
5,609,185881,-7289,-14208,-2486,323,-3107,456
5,610,185886,-12075,-12854,31112,484,-857,347
5,611,185891,-7379,-15651,23910,554,-3339,556
5,612,185896,3962,-20625,-19856,673,-5737,834
5,613,185901,1392,-18949,-25820,533,-4041,555
5,614,185906,-7040,-14673,-4064,321,-2316,367
5,615,185911,-8696,-14280,10657,362,-1647,464
5,616,185916,-1837,-15444,-1535,450,-1222,495
5,617,185921,5270,-18288,-18994,350,157,436
5,618,185926,3428,-17463,-9320,85,2037,245
5,619,185931,-1647,-16151,10428,-26,2315,207
5,620,185936,-3984,-14492,16102,128,1207,242
5,621,185941,1071,-14688,2405,289,261,363
5,622,185946,4303,-16901,-5226,260,966,432
5,623,185951,3174,-17030,3131,107,1908,339
5,624,185956,-347,-16693,16264,102,1449,353
5,625,185961,-345,-16380,8589,137,-167,365
5,626,185966,392,-15454,3093,291,-575,390
5,627,185971,363,-18089,-1412,284,-316,503
5,628,185976,97,-16487,4054,219,239,376
5,629,185981,-493,-16926,6893,210,15,431
5,630,185986,85,-16813,4322,224,-533,415
5,631,185991,-156,-16740,58,223,-669,384
5,632,185996,-1165,-16770,969,195,-262,370
5,633,186001,-1561,-16666,3568,175,11,377
5,634,186006,-813,-16634,4355,179,-14,377
5,635,186011,-118,-16533,2036,167,-99,326
5,636,186016,-936,-16334,3625,134,2,311
5,637,186021,-1128,-16300,4812,133,1,323
5,638,186026,-399,-16242,3901,144,-100,323
5,639,186031,256,-16406,2458,145,-164,317
5,640,186036,109,-16533,2997,128,-129,301
5,641,186041,-475,-16411,4072,119,-139,292
5,642,186046,-625,-16370,3829,125,-217,291
5,643,186051,-350,-16527,2366,127,-258,293
5,644,186056,-117,-16641,1760,112,-187,290
5,645,186061,-88,-16734,2987,95,-95,280
5,646,186066,-54,-16506,3627,93,-120,267
5,647,186071,129,-16345,3055,97,-175,268
5,648,186076,39,-16299,2357,92,-148,261
5,649,186081,-183,-16311,2720,77,-74,251
5,650,186086,-230,-16200,3304,68,-59,250
5,651,186091,-105,-16183,3320,64,-88,250
5,652,186096,-29,-16154,2994,57,-79,236
5,653,186101,-274,-16074,3114,51,-24,228
5,654,186106,-279,-15951,3438,42,0,226
5,655,186111,-200,-15843,3686,36,-20,223
5,656,186116,-27,-15704,3475,29,-54,216
5,657,186121,-13,-15750,3422,23,-57,211
5,658,186126,-204,-15764,3414,15,-42,202
5,659,186131,-269,-15808,3608,11,-36,195
5,660,186136,-744,-15789,4168,10,-36,192
5,661,186141,276,-15768,1785,7,-55,187
5,662,186146,335,-16211,2738,-22,34,183
5,663,186151,-985,-15773,5106,-28,28,151
5,664,186156,-686,-15786,4313,-15,-92,165
5,665,186161,-154,-16097,2084,-9,-85,177
5,666,186166,297,-15923,2630,-31,61,144
5,667,186171,-297,-16071,4260,-44,63,147
5,668,186176,-644,-15851,4610,-40,-74,133
5,669,186181,-716,-15734,3182,-37,-161,127
5,670,186186,-503,-15839,2526,-45,-89,126
5,671,186191,-268,-15683,3441,-59,17,114
5,672,186196,-234,-15678,4113,-63,-9,110
5,673,186201,-194,-15712,3605,-59,-96,106
5,674,186206,-449,-15668,2931,-65,-95,89
5,675,186211,-642,-15710,3020,-79,-14,82
5,676,186216,-598,-15724,3567,-86,37,77
5,677,186221,-284,-15801,3496,-89,19,71
5,678,186226,-219,-15856,3221,-91,7,64
5,679,186231,-468,-15978,3325,-98,38,54
5,680,186236,-683,-16108,3659,-102,64,44
5,681,186241,-696,-16160,3647,-104,51,41
5,682,186246,-495,-16191,3376,-104,27,39
5,683,186251,-415,-16184,3443,-109,15,28
5,684,186256,-537,-16190,3797,-111,-3,21
5,685,186261,-662,-16162,3792,-110,-41,15
5,686,186266,-667,-16196,3431,-109,-79,14
5,687,186271,-619,-16204,3204,-109,-87,8
5,688,186276,-664,-16228,3361,-111,-75,-5
5,689,186281,-670,-16224,3504,-115,-81,-8
5,690,186286,-703,-16226,3378,-117,-87,-13
5,691,186291,-713,-16206,3214,-117,-72,-22
5,692,186296,-748,-16172,3140,-122,-35,-33
5,693,186301,-752,-16162,3273,-126,-10,-40
5,694,186306,-758,-16128,3356,-129,0,-45
5,695,186311,-714,-16153,3368,-130,8,-50
5,696,186316,-674,-16168,3365,-136,21,-57
5,697,186321,-689,-16255,3577,-135,33,-63
5,698,186326,-675,-16234,3661,-135,27,-68
5,699,186331,-598,-16206,3693,-132,2,-71
5,700,186336,-503,-16238,3716,-131,-34,-73
5,701,186341,-507,-16263,3734,-128,-70,-76
5,702,186346,-583,-16355,3669,-123,-97,-82
5,703,186351,-631,-16364,3463,-122,-118,-84
5,704,186356,-596,-16279,3369,-122,-133,-88
5,705,186361,-604,-16171,3405,-125,-134,-89
5,706,186366,-573,-16130,3387,-123,-132,-94
5,707,186371,-467,-16113,3286,-118,-132,-95
5,708,186376,-401,-16040,3200,-120,-103,-98
5,709,186381,-454,-16006,3159,-121,-77,-104
5,710,186386,-379,-16013,3060,-121,-50,-108
5,711,186391,-382,-15974,2945,-124,-18,-108
5,712,186396,-399,-15964,3045,-124,16,-113
5,713,186401,-467,-15968,3100,-126,49,-114
5,714,186406,-421,-15994,3084,-124,73,-116
5,715,186411,-349,-15952,3113,-125,95,-117
5,716,186416,-327,-15966,3171,-122,114,-121
5,717,186421,-333,-16032,3236,-122,129,-121
5,718,186426,-415,-16068,3334,-120,134,-123
5,719,186431,-364,-16078,3344,-118,132,-125
5,720,186436,-363,-16073,3427,-114,128,-126
5,721,186441,-292,-16050,3551,-113,118,-124
5,722,186446,-303,-16049,3497,-108,95,-124
5,723,186451,-362,-16065,3444,-103,69,-124
5,724,186456,-495,-16068,3415,-101,45,-123
5,725,186461,-562,-16107,3344,-97,32,-123
5,726,186466,-592,-16088,3285,-91,24,-120
5,727,186471,-494,-16085,3199,-89,27,-120
5,728,186476,-458,-16086,3207,-89,35,-123
5,729,186481,-465,-16061,3236,-89,36,-125
5,730,186486,-591,-16074,3174,-86,37,-126
5,731,186491,-550,-16040,3061,-86,50,-127
5,732,186496,-607,-16024,3030,-83,72,-126
5,733,186501,-586,-16036,2903,-81,99,-126
5,734,186506,-380,-16163,2896,-84,132,-129
5,735,186511,-327,-16189,2945,-82,161,-135
5,736,186516,-473,-16277,3203,-82,182,-139
5,737,186521,-748,-16195,3256,-81,185,-143
5,738,186526,-761,-16250,3346,-76,177,-134
5,739,186531,-486,-16164,3369,-70,169,-130
5,740,186536,-192,-16194,3484,-67,158,-131
5,741,186541,-280,-16231,3673,-64,123,-130
5,742,186546,-581,-16202,3602,-60,68,-133
5,743,186551,-752,-16312,3305,-52,30,-127
5,744,186556,-592,-16294,3123,-53,26,-126
5,745,186561,-398,-16286,3283,-51,37,-127
5,746,186566,-327,-16272,3496,-48,16,-126
5,747,186571,-409,-16249,3355,-42,-19,-126
5,748,186576,-473,-16260,3137,-40,-34,-122
5,749,186581,-464,-16286,3098,-39,-25,-122
5,750,186586,-390,-16248,3184,-38,-12,-120
5,751,186591,-296,-16245,3125,-37,-5,-118
5,752,186596,-325,-16263,2978,-37,4,-117
5,753,186601,-445,-16253,2929,-38,23,-121
5,754,186606,-435,-16271,3003,-34,42,-119
5,755,186611,-356,-16245,3072,-33,65,-117
5,756,186616,-233,-16232,3077,-35,85,-116
5,757,186621,-285,-16254,3081,-34,103,-114
5,758,186626,-368,-16301,3161,-36,112,-114
5,759,186631,-429,-16296,3186,-33,109,-115
5,760,186636,-468,-16300,3202,-28,106,-109
5,761,186641,-362,-16333,3168,-30,107,-109
5,762,186646,-289,-16339,3214,-27,109,-111
5,763,186651,-355,-16334,3340,-23,98,-105
5,764,186656,-403,-16301,3301,-22,79,-107
5,765,186661,-445,-16315,3214,-20,63,-102
5,766,186666,-412,-16299,3256,-17,58,-100
5,767,186671,-420,-16289,3249,-16,50,-99
5,768,186676,-352,-16252,3200,-13,42,-97
5,769,186681,-264,-16195,3179,-10,31,-95
5,770,186686,-225,-16253,3168,-9,18,-91
5,771,186691,-211,-16271,3132,-7,15,-91
5,772,186696,-230,-16278,3013,-8,18,-87
5,773,186701,-260,-16281,2911,-7,29,-88
5,774,186706,-301,-16273,2930,-5,49,-85
5,775,186711,-320,-16290,2980,-9,68,-84
5,776,186716,-262,-16226,3000,-9,85,-82
5,777,186721,-253,-16185,3057,-7,103,-78
5,778,186726,-245,-16204,3071,-7,113,-77
5,779,186731,-250,-16186,3147,-6,121,-75
5,780,186736,-286,-16151,3201,-8,126,-75
5,781,186741,-332,-16286,3252,-6,137,-69
5,782,186746,-376,-16307,3222,-6,142,-68
5,783,186751,-326,-16233,3224,-6,141,-69
5,784,186756,-372,-16206,3345,-5,129,-64
5,785,186761,-382,-16184,3398,-4,112,-59
5,786,186766,-407,-16243,3314,-1,95,-60
5,787,186771,-512,-16256,3272,1,86,-61
5,788,186776,-576,-16303,3246,0,84,-58
5,789,186781,-624,-16325,3277,1,79,-56
5,790,186786,-581,-16311,3342,4,66,-54
5,791,186791,-376,-16317,3393,5,51,-51
5,792,186796,-232,-16299,3419,4,29,-52
5,793,186801,-249,-16240,3359,7,-1,-50
5,794,186806,-363,-16307,3172,11,-28,-46
5,795,186811,-514,-16285,2977,13,-35,-46
5,796,186816,-518,-16313,2848,11,-24,-46
5,797,186821,-371,-16317,2808,7,-2,-44
5,798,186826,-272,-16275,2824,7,16,-42
5,799,186831,-264,-16332,2786,8,29,-44
5,800,186836,-287,-16344,2771,8,48,-43
5,801,186841,-261,-16298,2775,8,68,-40
5,802,186846,-251,-16249,2801,6,85,-38
5,803,186851,-203,-16251,2879,7,99,-37
5,804,186856,-251,-16286,2949,8,104,-36
5,805,186861,-327,-16364,2980,8,107,-32
5,806,186866,-291,-16421,3098,8,112,-31
5,807,186871,-289,-16404,3145,7,113,-29
5,808,186876,-281,-16323,3215,9,106,-29
5,809,186881,-322,-16270,3303,10,82,-24
5,810,186886,-303,-16268,3388,11,52,-21
5,811,186891,-326,-16263,3156,12,29,-20
5,812,186896,-337,-16227,3028,13,17,-14
5,813,186901,-363,-16292,3068,12,8,-14
5,814,186906,-378,-16208,2982,13,0,-15
5,815,186911,-319,-16264,2801,13,8,-13
5,816,186916,-342,-16289,2853,13,31,-15
5,817,186921,-348,-16299,2839,11,40,-11
5,818,186926,-333,-16368,2777,9,43,-9
5,819,186931,-293,-16387,2784,8,50,-11
5,820,186936,-299,-16351,2877,10,62,-11
5,821,186941,-248,-16349,3003,11,71,-9
5,822,186946,-255,-16408,2890,13,67,-4
5,823,186951,-257,-16426,2849,13,64,-6
5,824,186956,-281,-16383,2908,13,61,-7
5,825,186961,-248,-16342,2987,13,61,-1
5,826,186966,-165,-16336,2996,12,61,0
5,827,186971,-195,-16290,2946,13,61,-3
5,828,186976,-276,-16295,2935,14,63,-1
5,829,186981,-297,-16352,2895,11,67,1
5,830,186986,-324,-16381,2924,10,69,3
5,831,186991,-347,-16425,2907,11,73,3
5,832,186996,-339,-16403,2953,10,73,2
5,833,187001,-322,-16346,3041,12,67,6
5,834,187006,-236,-16324,3116,12,51,6
5,835,187011,-158,-16306,3097,10,40,8
5,836,187016,-186,-16288,3043,14,34,7
5,837,187021,-305,-16315,2964,16,29,8
5,838,187026,-382,-16337,2878,12,28,11
5,839,187031,-404,-16335,2931,12,31,11
5,840,187036,-306,-16314,2988,12,39,10
5,841,187041,-224,-16214,2998,13,45,11
5,842,187046,-225,-16173,3031,11,48,9
5,843,187051,-266,-16112,2995,8,45,10
5,844,187056,-320,-16188,2934,13,41,12
5,845,187061,-294,-16203,2957,8,44,11
5,846,187066,-285,-16140,2989,6,50,13
5,847,187071,-240,-16124,3024,8,52,14
5,848,187076,-261,-16112,3001,7,51,13
5,849,187081,-223,-16079,3030,8,46,12
5,850,187086,-206,-16106,3050,7,42,15
5,851,187091,-236,-16152,3030,6,39,16
5,852,187096,-271,-16205,3079,6,34,17
5,853,187101,-298,-16172,3053,6,31,17
5,854,187106,-285,-16192,3065,7,33,18
5,855,187111,-324,-16203,3075,3,24,18
5,856,187116,-301,-16207,3079,3,16,18
5,857,187121,-257,-16172,3110,2,4,17
5,858,187126,-267,-16187,3078,3,-12,19
5,859,187131,-287,-16237,2940,4,-23,18
5,860,187136,-308,-16273,2912,5,-26,18
5,861,187141,-296,-16279,2804,3,-19,20
5,862,187146,-316,-16271,2795,3,-8,19
5,863,187151,-340,-16258,2798,2,0,18
5,864,187156,-295,-16213,2799,0,9,18
5,865,187161,-293,-16162,2819,-1,23,17
5,866,187166,-277,-16186,2890,-2,33,16
5,867,187171,-247,-16153,2997,0,42,15
5,868,187176,-216,-16160,2998,-1,47,14
5,869,187181,-240,-16203,2942,-3,48,17
5,870,187186,-269,-16225,3049,-3,52,17
5,871,187191,-247,-16221,3027,-2,49,17
5,872,187196,-216,-16227,3065,-3,37,18
5,873,187201,-156,-16225,3137,-1,21,20
5,874,187206,-125,-16281,3142,-1,7,21
5,875,187211,-169,-16286,3122,0,-5,19
5,876,187216,-228,-16240,3045,-1,-12,21
5,877,187221,-315,-16210,2966,-1,-16,22
5,878,187226,-332,-16200,2983,-4,-5,17
5,879,187231,-270,-16216,2892,-5,3,17
5,880,187236,-285,-16207,2874,-5,9,16
5,881,187241,-346,-16246,2961,-7,17,14
5,882,187246,-235,-16207,3052,-8,17,18
5,883,187251,-224,-16179,3088,-3,15,18
5,884,187256,-229,-16162,3101,-6,21,15
5,885,187261,-265,-16202,3110,-8,15,17
5,886,187266,-272,-16169,3077,-7,0,19
5,887,187271,-216,-16138,3043,-4,-8,19
5,888,187276,-163,-16151,3059,-8,-11,19
5,889,187281,-192,-16118,3044,-7,-12,17
5,890,187286,-266,-16173,2962,-8,-15,17
5,891,187291,-285,-16153,2912,-9,-14,17
5,892,187296,-233,-16159,2893,-13,-4,15
5,893,187301,-188,-16197,3008,-11,5,14
5,894,187306,-234,-16184,3054,-11,13,14
5,895,187311,-237,-16185,2944,-13,16,13
5,896,187316,-277,-16184,2988,-14,17,12
5,897,187321,-270,-16194,3049,-13,17,17
5,898,187326,-268,-16283,3033,-13,10,15
5,899,187331,-233,-16283,2995,-9,5,13
5,900,187336,-253,-16300,2977,-10,-2,10
5,901,187341,-235,-16250,2988,-13,-6,11
5,902,187346,-300,-16282,2992,-11,-7,10
5,903,187351,-330,-16306,2934,-10,-10,11
5,904,187356,-303,-16340,2840,-12,-6,11
5,905,187361,-262,-16333,2817,-13,-4,10
5,906,187366,-249,-16354,2911,-12,0,9
5,907,187371,-225,-16311,2941,-13,2,8
5,908,187376,-209,-16238,2906,-12,6,5
5,909,187381,-192,-16203,2857,-13,10,4
5,910,187386,-196,-16159,2946,-12,20,5
5,911,187391,-212,-16137,3032,-14,16,3
5,912,187396,-310,-16236,2942,-12,13,1
5,913,187401,-315,-16321,2865,-12,19,1
5,914,187406,-289,-16358,2903,-13,23,3
5,915,187411,-198,-16304,3008,-13,23,3
5,916,187416,-147,-16282,3036,-13,12,2
5,917,187421,-228,-16330,3012,-11,3,2
5,918,187426,-318,-16348,2937,-8,0,0
5,919,187431,-352,-16377,2866,-9,8,-1
5,920,187436,-343,-16355,2884,-10,17,-2
5,921,187441,-337,-16378,2981,-11,21,-5
5,922,187446,-339,-16357,3031,-13,24,-6
5,923,187451,-358,-16258,3030,-14,24,-7
5,924,187456,-382,-16279,3017,-14,20,-4
5,925,187461,-412,-16289,3055,-13,14,-6
5,926,187466,-415,-16263,3049,-10,4,-9
5,927,187471,-410,-16239,2979,-8,1,-8
5,928,187476,-386,-16260,2980,-11,7,-13
5,929,187481,-486,-16273,2944,-14,7,-14
5,930,187486,-424,-16292,2935,-9,8,-17
5,931,187491,-272,-16275,2971,-11,12,-19
5,932,187496,-227,-16242,3061,-13,12,-21
5,933,187501,-217,-16241,2984,-12,5,-20
5,934,187506,-279,-16270,2882,-10,-2,-21
5,935,187511,-258,-16284,2871,-10,2,-20
5,936,187516,-179,-16237,2935,-13,8,-21
5,937,187521,-111,-16245,2997,-13,11,-23
5,938,187526,-140,-16290,2985,-12,8,-27
5,939,187531,-230,-16310,2869,-12,4,-28
5,940,187536,-251,-16302,2825,-10,-1,-23
5,941,187541,-159,-16240,2871,-10,5,-22
5,942,187546,-129,-16191,2942,-12,4,-24
5,943,187551,-191,-16234,2921,-9,0,-24
5,944,187556,-262,-16285,2795,-8,2,-25
5,945,187561,-309,-16365,2662,-9,12,-25
5,946,187566,-307,-16419,2663,-11,24,-26
5,947,187571,-284,-16436,2728,-7,34,-29
5,948,187576,-244,-16431,2830,-6,38,-31
5,949,187581,-278,-16429,2898,-8,42,-30
5,950,187586,-260,-16407,2910,-5,48,-32
5,951,187591,-277,-16359,2928,-8,52,-35
5,952,187596,-313,-16364,3053,-6,47,-35
5,953,187601,-273,-16346,3083,-8,41,-35
5,954,187606,-280,-16362,3048,-6,34,-35
5,955,187611,-273,-16306,3051,-7,27,-37
5,956,187616,-192,-16196,3070,-7,15,-37
5,957,187621,-195,-16139,3014,-3,2,-37
5,958,187626,-241,-16125,2936,-4,-10,-38
5,959,187631,-284,-16132,2854,-4,-5,-36
5,960,187636,-340,-16174,2850,-5,6,-40
5,961,187641,-293,-16205,2885,-6,17,-41
5,962,187646,-216,-16218,2901,-6,28,-43
5,963,187651,-195,-16168,2907,-7,38,-44
5,964,187656,-266,-16118,3008,-7,46,-44
5,965,187661,-318,-16087,2969,-7,47,-47
5,966,187666,-302,-16093,3007,-11,48,-47
5,967,187671,-264,-16106,2999,-11,51,-49
5,968,187676,-291,-16222,3007,-9,54,-51
5,969,187681,-317,-16279,3119,-10,46,-50
5,970,187686,-256,-16232,3125,-11,37,-50
5,971,187691,-283,-16241,3099,-11,29,-50
5,972,187696,-268,-16247,3121,-9,18,-53
5,973,187701,-257,-16188,3084,-11,5,-53
5,974,187706,-232,-16134,3027,-9,-7,-49
5,975,187711,-207,-16144,2931,-6,-14,-53
5,976,187716,-159,-16167,2948,-6,-21,-50
5,977,187721,-114,-16221,2927,-7,-28,-50
5,978,187726,-57,-16267,2848,-9,-30,-51
5,979,187731,-29,-16250,2801,-9,-25,-50
5,980,187736,-68,-16248,2758,-8,-15,-53
5,981,187741,-84,-16254,2663,-8,0,-52
5,982,187746,-58,-16241,2611,-10,13,-55
5,983,187751,70,-16272,2643,-9,26,-52
5,984,187756,31,-16311,2717,-9,38,-52
5,985,187761,2,-16343,2823,-11,38,-51
5,986,187766,15,-16333,2829,-11,34,-52
5,987,187771,1,-16352,2866,-10,35,-49
5,988,187776,-58,-16330,2868,-8,34,-49
5,989,187781,-93,-16336,2857,-9,35,-51
5,990,187786,-160,-16333,2829,-7,37,-48
5,991,187791,-229,-16355,2768,-7,41,-52
5,992,187796,-230,-16361,2770,-7,46,-52
5,993,187801,-233,-16353,2819,-10,49,-48
5,994,187806,-171,-16326,2932,-11,47,-49
5,995,187811,-80,-16307,3000,-6,40,-46
5,996,187816,-76,-16299,3003,-5,31,-49
5,997,187821,-180,-16294,2929,-6,24,-52
5,998,187826,-210,-16246,2912,-7,19,-49
5,999,187831,-168,-16194,2955,-7,12,-47