event_id,seq,ts_ms,ax,ay,az,gx,gy,gz
1,0,30671,-856,-15547,-2925,55,42,-353
1,1,30676,-307,-15458,-2865,53,65,-347
1,2,30681,-282,-15505,-2768,57,109,-351
1,3,30686,-712,-15472,-2614,59,120,-354
1,4,30691,-942,-15424,-2534,58,73,-348
1,5,30696,-711,-15394,-2509,58,-1,-337
1,6,30701,-419,-15431,-2395,59,-55,-328
1,7,30706,-487,-15578,-2357,63,-77,-321
1,8,30711,-848,-15771,-2536,63,-95,-316
1,9,30716,-894,-15910,-2679,62,-122,-309
1,10,30721,-731,-15995,-2769,56,-142,-303
1,11,30726,-661,-15972,-2649,48,-132,-299
1,12,30731,-803,-15869,-2631,46,-105,-297
1,13,30736,-1232,-15807,-2763,46,-86,-297
1,14,30741,-1439,-15761,-3033,45,-86,-290
1,15,30746,-1180,-15638,-3190,41,-87,-283
1,16,30751,-762,-15598,-3087,40,-71,-280
1,17,30756,-634,-15590,-3210,42,-48,-279
1,18,30761,-904,-15563,-3439,48,-34,-278
1,19,30766,-1307,-15587,-3529,49,-42,-275
1,20,30771,-1434,-15626,-3517,47,-68,-261
1,21,30776,-1078,-15628,-3512,42,-74,-250
1,22,30781,-663,-15580,-3649,42,-39,-248
1,23,30786,-639,-15509,-3824,44,29,-251
1,24,30791,-881,-15514,-3854,47,91,-253
1,25,30796,-1002,-15602,-3621,46,115,-245
1,26,30801,-789,-15634,-3085,44,103,-231
1,27,30806,-750,-15620,-2528,43,68,-224
1,28,30811,-894,-15545,-2620,46,17,-219
1,29,30816,-1015,-15501,-3233,48,-23,-210
1,30,30821,-932,-15439,-3711,46,-33,-201
1,31,30826,-760,-15326,-3549,42,-20,-190
1,32,30831,-606,-15288,-3236,43,-12,-185
1,33,30836,-574,-15211,-3145,47,-19,-181
1,34,30841,-648,-15209,-3332,49,-29,-173
1,35,30846,-851,-15211,-3394,52,-53,-163
1,36,30851,-1062,-15347,-3344,50,-84,-155
1,37,30856,-1011,-15454,-3451,48,-118,-146
1,38,30861,-647,-15473,-3800,45,-111,-140
1,39,30866,-344,-15470,-4044,42,-44,-137
1,40,30871,-539,-15452,-3753,40,48,-138
1,41,30876,-944,-15548,-3164,40,90,-133
1,42,30881,-1036,-15681,-2762,42,66,-126
1,43,30886,-691,-15834,-2699,40,11,-116
1,44,30891,-995,-15783,-1288,37,18,-107
1,45,30896,-2024,-16951,-3537,27,-57,-114
1,46,30901,-1435,-16408,-4781,27,47,-117
1,47,30906,973,-16299,-4209,24,175,-91
1,48,30911,-1470,-15469,-1581,3,287,-119
1,49,30916,-1039,-16362,-1499,18,117,-110
1,50,30921,-1777,-16080,-1845,18,-9,-90
1,51,30926,-373,-16300,-2956,26,-88,-83
1,52,30931,-838,-16436,-2349,17,-53,-69
1,53,30936,-538,-16414,-1908,13,-86,-68
1,54,30941,-761,-16343,-2089,11,-183,-58
1,55,30946,-822,-16331,-2702,13,-271,-54
1,56,30951,-990,-16442,-3260,7,-297,-50
1,57,30956,-1585,-16463,-2796,6,-244,-47
1,58,30961,-1703,-16686,-2714,7,-211,-41
1,59,30966,-1747,-16876,-2898,2,-179,-43
1,60,30971,-1362,-17165,-3364,-1,-143,-49
1,61,30976,-1498,-17192,-3079,-12,-76,-57
1,62,30981,-1411,-17161,-2553,-25,16,-68
1,63,30986,-1215,-17208,-2625,-26,40,-68
1,64,30991,-1144,-17108,-2610,-28,45,-65
1,65,30996,-1089,-16944,-2331,-33,23,-65
1,66,31001,-969,-16939,-2484,-34,-21,-63
1,67,31006,-802,-16943,-2915,-35,-37,-61
1,68,31011,-556,-16874,-3151,-38,-10,-60
1,69,31016,-457,-16790,-2911,-42,35,-57
1,70,31021,-321,-16720,-2803,-43,47,-55
1,71,31026,-289,-16586,-2757,-39,23,-53
1,72,31031,-283,-16434,-2806,-40,-22,-49
1,73,31036,-348,-16358,-2790,-41,-56,-44
1,74,31041,-311,-16301,-2796,-40,-84,-36
1,75,31046,-376,-16359,-2779,-36,-103,-31
1,76,31051,-610,-16400,-2844,-38,-126,-30
1,77,31056,-812,-16372,-2956,-38,-155,-30
1,78,31061,-810,-16238,-3322,-41,-160,-27
1,79,31066,-631,-16069,-3754,-40,-116,-30
1,80,31071,-696,-16042,-3781,-42,-35,-33
1,81,31076,-1058,-16045,-3429,-43,34,-38
1,82,31081,-1276,-15974,-3205,-45,51,-43
1,83,31086,-1004,-15872,-3370,-46,49,-42
1,84,31091,-487,-15759,-3482,-47,87,-44
1,85,31096,-322,-15710,-3168,-47,153,-46
1,86,31101,-464,-15691,-2743,-44,173,-49
1,87,31106,-649,-15727,-2512,-45,119,-48
1,88,31111,-525,-15764,-2653,-45,29,-41
1,89,31116,-350,-15797,-2762,-44,-36,-38
1,90,31121,-344,-15792,-2800,-41,-54,-34
1,91,31126,-417,-15768,-2923,-38,-52,-33
1,92,31131,-540,-15832,-3159,-37,-54,-30
1,93,31136,-368,-15780,-3332,-40,-56,-29
1,94,31141,-120,-15728,-3187,-41,-53,-22
1,95,31146,44,-15771,-2960,-39,-50,-22
1,96,31151,-45,-15814,-2944,-32,-53,-21
1,97,31156,-332,-15815,-2975,-32,-67,-19
1,98,31161,-476,-15750,-2978,-34,-95,-15
1,99,31166,-290,-15706,-2905,-32,-127,-7
1,100,31171,-254,-15796,-2973,-28,-144,-4
1,101,31176,-608,-15976,-3091,-24,-144,-3
1,102,31181,-934,-16143,-3204,-25,-136,-6
1,103,31186,-1026,-16225,-3458,-30,-114,-8
1,104,31191,-817,-16392,-3582,-32,-59,-9
1,105,31196,-642,-16523,-3476,-32,22,-12
1,106,31201,-595,-16654,-3075,-34,102,-18
1,107,31206,-602,-16706,-2772,-38,136,-23
1,108,31211,-519,-16620,-2610,-36,120,-21
1,109,31216,-326,-16498,-2554,-35,84,-16
1,110,31221,-102,-16410,-2468,-31,37,-11
1,111,31226,0,-16349,-2391,-27,-14,-4
1,112,31231,94,-16332,-2492,-23,-78,4
1,113,31236,21,-16361,-2728,-18,-147,10
1,114,31241,-115,-16333,-2940,-16,-207,15
1,115,31246,-137,-16305,-3142,-18,-231,19
1,116,31251,-164,-16298,-3331,-13,-213,22
1,117,31256,-312,-16315,-3484,-13,-158,23
1,118,31261,-413,-16303,-3401,-15,-100,23
1,119,31266,-380,-16131,-3268,-16,-56,22
1,120,31271,-196,-16060,-3228,-18,-26,19
1,121,31276,-95,-15995,-3219,-19,0,17
1,122,31281,-178,-15941,-3132,-12,19,17
1,123,31286,-290,-15848,-2879,-10,22,20
1,124,31291,-319,-15782,-2700,-12,0,21
1,125,31296,-269,-15896,-2706,-8,-36,26
1,126,31301,-196,-16089,-2806,-4,-66,31
1,127,31306,-102,-16111,-2811,-5,-80,30
1,128,31311,-99,-16095,-2765,-4,-84,31
1,129,31316,-181,-16088,-2846,-2,-90,30
1,130,31321,-289,-16195,-3047,1,-87,33
1,131,31326,-374,-16261,-3028,0,-83,37
1,132,31331,-382,-16231,-2865,-2,-80,33
1,133,31336,-512,-16189,-2828,1,-89,27
1,134,31341,-599,-16172,-3157,5,-93,25
1,135,31346,-712,-16055,-3367,7,-25,20
1,136,31351,-694,-15991,-3204,7,15,15
1,137,31356,-612,-15993,-3124,13,50,13
1,138,31361,-520,-16002,-3088,14,80,9
1,139,31366,-566,-16042,-2939,14,99,3
1,140,31371,-691,-16122,-2726,11,105,0
1,141,31376,-719,-16110,-2641,12,101,-5
1,142,31381,-568,-16100,-2778,14,101,-5
1,143,31386,-472,-16164,-2898,15,120,-11
1,144,31391,-431,-16266,-2805,13,137,-12
1,145,31396,-450,-16305,-2598,15,136,-12
1,146,31401,-333,-16315,-2572,18,108,-11
1,147,31406,-189,-16362,-2776,21,79,-12
1,148,31411,-195,-16359,-2862,25,58,-11
1,149,31416,-258,-16286,-2633,25,36,-12
1,150,31421,-352,-16260,-2569,30,-7,-11
1,151,31426,-286,-16263,-2780,31,-52,-10
1,152,31431,-168,-16256,-2923,33,-75,-6
1,153,31436,-202,-16159,-2821,37,-76,-8
1,154,31441,-380,-16111,-2730,41,-87,-9
1,155,31446,-416,-16134,-2784,44,-112,-5
1,156,31451,-359,-16129,-3008,42,-126,-10
1,157,31456,-407,-16235,-3123,41,-111,-14
1,158,31461,-545,-16285,-3081,37,-74,-16
1,159,31466,-474,-16221,-3157,36,-30,-21
1,160,31471,-115,-16181,-3342,38,22,-24
1,161,31476,-8,-16201,-3241,37,90,-26
1,162,31481,-83,-16221,-2752,35,134,-29
1,163,31486,-201,-16212,-2406,32,121,-29
1,164,31491,-154,-16174,-2558,34,82,-30
1,165,31496,-7,-16149,-2906,34,50,-28
1,166,31501,55,-16131,-2970,34,53,-25
1,167,31506,30,-16088,-2812,33,55,-24
1,168,31511,-7,-16018,-2815,35,32,-22
1,169,31516,-59,-16045,-2944,37,-5,-22
1,170,31521,-192,-16114,-3022,39,-33,-22
1,171,31526,-216,-16127,-2944,38,-45,-17
1,172,31531,-112,-16089,-2804,38,-38,-12
1,173,31536,-140,-16172,-2914,38,-35,-15
1,174,31541,-282,-16227,-3027,37,-40,-18
1,175,31546,-422,-16194,-3014,36,-47,-18
1,176,31551,-363,-16211,-2956,33,-47,-17
1,177,31556,-334,-16185,-2967,30,-32,-20
1,178,31561,-303,-16138,-3060,30,-3,-20
1,179,31566,-471,-16080,-3014,31,21,-24
1,180,31571,-572,-16090,-2989,28,22,-27
1,181,31576,-452,-16077,-3056,26,9,-29
1,182,31581,-223,-16063,-3122,25,16,-28
1,183,31586,-130,-15997,-3122,25,38,-29
1,184,31591,-252,-16003,-3033,26,58,-32
1,185,31596,-287,-15989,-2969,25,57,-32
1,186,31601,-244,-15924,-2961,24,31,-25
1,187,31606,-68,-15900,-2920,22,5,-25
1,188,31611,-48,-15947,-2886,28,-15,-23
1,189,31616,-275,-16078,-2887,30,-37,-22
1,190,31621,-407,-16104,-2915,27,-66,-19
1,191,31626,-322,-16093,-2920,23,-91,-14
1,192,31631,-165,-16100,-2990,23,-94,-13
1,193,31636,-317,-16125,-3163,25,-77,-18
1,194,31641,-522,-16138,-3276,27,-55,-24
1,195,31646,-623,-16124,-3325,26,-36,-20
1,196,31651,-490,-16123,-3251,23,-15,-18
1,197,31656,-280,-16182,-3131,22,15,-20
1,198,31661,-282,-16271,-3034,23,46,-26
1,199,31666,-464,-16236,-2857,25,61,-29
1,200,31671,-529,-16225,-2827,20,59,-28
1,201,31676,-331,-16209,-2937,15,53,-27
1,202,31681,-114,-16148,-2930,17,66,-27
1,203,31686,-213,-16146,-2764,20,83,-26
1,204,31691,-450,-16178,-2769,19,82,-24
1,205,31696,-390,-16168,-2853,17,67,-23
1,206,31701,-201,-16136,-2935,17,50,-20
1,207,31706,-117,-16114,-2861,15,44,-17
1,208,31711,-199,-15996,-2840,24,18,-12
1,209,31716,-275,-15973,-2899,23,-7,-14
1,210,31721,-224,-15935,-2940,19,-31,-12
1,211,31726,-174,-15925,-2843,25,-46,-9
1,212,31731,-153,-15932,-2819,26,-52,-6
1,213,31736,-203,-15908,-2916,27,-58,-5
1,214,31741,-380,-15904,-2912,25,-62,-3
1,215,31746,-514,-16035,-2879,23,-60,-4
1,216,31751,-405,-16112,-2895,22,-49,-3
1,217,31756,-144,-16148,-2945,20,-13,-4
1,218,31761,-68,-16165,-2863,17,33,-6
1,219,31766,-171,-16201,-2718,15,66,-8
1,220,31771,-209,-16156,-2647,16,60,-6
1,221,31776,-190,-16150,-2671,14,40,-3
1,222,31781,-123,-16153,-2723,12,25,1
1,223,31786,-113,-16198,-2675,14,17,1
1,224,31791,-248,-16258,-2693,17,8,0
1,225,31796,-319,-16253,-2818,18,-8,5
1,226,31801,-292,-16276,-2917,16,-21,5
1,227,31806,-273,-16317,-2960,16,-24,7
1,228,31811,-250,-16385,-2951,17,-17,5
1,229,31816,-293,-16487,-2967,16,-10,8
1,230,31821,-352,-16509,-2899,17,-4,10
1,231,31826,-339,-16587,-2848,17,-3,5
1,232,31831,-273,-16627,-2855,12,-3,5
1,233,31836,-223,-16581,-2773,11,3,8
1,234,31841,-207,-16549,-2700,11,5,9
1,235,31846,-254,-16456,-2693,12,2,6
1,236,31851,-268,-16386,-2754,14,-8,7
1,237,31856,-306,-16324,-2816,12,-19,8
1,238,31861,-345,-16293,-2864,13,-26,11
1,239,31866,-317,-16249,-2924,14,-30,12
1,240,31871,-228,-16212,-3076,12,-26,9
1,241,31876,-240,-16149,-3132,11,-10,12
1,242,31881,-366,-16131,-3150,12,3,8
1,243,31886,-339,-16076,-3065,8,17,9
1,244,31891,-121,-16019,-2982,9,26,11
1,245,31896,-30,-16051,-2974,8,35,11
1,246,31901,-71,-16148,-2862,10,31,16
1,247,31906,-187,-16174,-2737,7,11,17
1,248,31911,-240,-16183,-2638,8,-21,15
1,249,31916,-232,-16349,-2774,9,-41,15
1,250,31921,-173,-16416,-2935,6,-35,16
1,251,31926,-163,-16430,-2920,5,-11,20
1,252,31931,-215,-16476,-2725,3,7,18
1,253,31936,-290,-16522,-2645,0,4,14
1,254,31941,-270,-16521,-2654,0,-21,19
1,255,31946,-289,-16445,-2667,-3,-42,21
1,256,31951,-219,-16374,-2690,-4,-50,21
1,257,31956,-194,-16311,-2744,-5,-55,24
1,258,31961,-268,-16256,-2891,-8,-61,22
1,259,31966,-269,-16166,-3035,-5,-64,23
1,260,31971,-129,-16117,-3162,-9,-55,23
1,261,31976,-111,-16116,-3144,-8,-35,22
1,262,31981,-165,-16192,-3070,-7,-14,22
1,263,31986,-232,-16217,-2958,-14,1,21
1,264,31991,-223,-16152,-2940,-16,4,19
1,265,31996,-130,-16120,-2941,-18,3,23
1,266,32001,-93,-16120,-2916,-18,11,24
1,267,32006,-162,-16072,-2810,-19,14,22
1,268,32011,-213,-16131,-2794,-18,8,23
1,269,32016,-195,-16176,-2863,-21,-11,25
1,270,32021,-196,-16208,-2860,-23,-27,26
1,271,32026,-233,-16233,-2845,-21,-32,26
1,272,32031,-307,-16218,-2868,-21,-35,29
1,273,32036,-366,-16233,-2955,-24,-35,29
1,274,32041,-388,-16240,-3095,-25,-36,28
1,275,32046,-338,-16181,-3096,-26,-36,27
1,276,32051,-306,-16197,-3045,-24,-34,28
1,277,32056,-304,-16163,-3062,-26,-28,26
1,278,32061,-370,-16212,-3110,-28,-16,23
1,279,32066,-272,-16243,-3087,-29,0,26
1,280,32071,-207,-16208,-2997,-29,19,27
1,281,32076,-145,-16121,-2857,-32,26,29
1,282,32081,-202,-16072,-2963,-32,33,22
1,283,32086,-241,-16024,-2928,-32,27,23
1,284,32091,-304,-16037,-2820,-31,15,29
1,285,32096,-294,-16083,-2770,-30,-6,30
1,286,32101,-372,-16092,-2772,-33,-25,29
1,287,32106,-456,-16102,-3029,-29,-32,27
1,288,32111,-416,-16112,-3139,-30,-20,28
1,289,32116,-378,-16102,-3113,-30,-7,30
1,290,32121,-360,-16123,-2838,-29,-8,31
1,291,32126,-425,-16120,-2646,-28,-25,31
1,292,32131,-524,-16184,-2808,-28,-51,30
1,293,32136,-499,-16214,-2982,-27,-70,31
1,294,32141,-467,-16265,-2988,-25,-66,34
1,295,32146,-514,-16315,-2875,-27,-56,34
1,296,32151,-476,-16319,-2873,-28,-50,31
1,297,32156,-398,-16239,-3080,-28,-41,25
1,298,32161,-388,-16249,-3141,-28,-14,26
1,299,32166,-452,-16247,-3009,-28,16,25
1,300,32171,-490,-16172,-2757,-27,31,27
1,301,32176,-434,-16137,-2695,-27,25,25
1,302,32181,-349,-16106,-2796,-28,6,25
1,303,32186,-377,-16123,-2929,-25,-6,23
1,304,32191,-470,-16097,-2927,-25,-13,22
1,305,32196,-460,-16058,-2849,-27,-11,23
1,306,32201,-403,-16072,-2925,-24,-10,24
1,307,32206,-348,-16130,-2908,-24,-3,22
1,308,32211,-397,-16162,-2814,-24,3,29
1,309,32216,-389,-16182,-2794,-24,-5,25
1,310,32221,-408,-16177,-2713,-21,-22,26
1,311,32226,-432,-16193,-2718,-19,-37,26
1,312,32231,-404,-16215,-2846,-21,-46,26
1,313,32236,-479,-16219,-2871,-19,-43,29
1,314,32241,-440,-16191,-2864,-17,-34,27
1,315,32246,-352,-16203,-3017,-18,-21,23
1,316,32251,-375,-16227,-2969,-14,-11,25
1,317,32256,-490,-16253,-2904,-18,-8,24
1,318,32261,-521,-16254,-2906,-19,-16,21
1,319,32266,-397,-16240,-2975,-19,-15,22
1,320,32271,-200,-16218,-3062,-17,4,23
1,321,32276,-171,-16174,-2957,-15,29,26
1,322,32281,-331,-16143,-2758,-15,27,20
1,323,32286,-488,-16107,-2749,-13,-6,19
1,324,32291,-408,-16143,-2946,-11,-33,25
1,325,32296,-260,-16140,-3020,-12,-34,23
1,326,32301,-268,-16112,-2974,-12,-16,23
1,327,32306,-381,-16109,-2866,-7,-6,24
1,328,32311,-466,-16105,-2872,-9,-20,25
1,329,32316,-469,-16099,-2865,-11,-48,26
1,330,32321,-385,-16087,-2891,-8,-60,28
1,331,32326,-314,-16100,-2868,-5,-55,32
1,332,32331,-390,-16140,-2877,-7,-46,26
1,333,32336,-498,-16125,-2924,-5,-52,25
1,334,32341,-527,-16113,-2952,-5,-68,26
1,335,32346,-473,-16175,-2981,-5,-79,25
1,336,32351,-433,-16241,-3016,-3,-77,23
1,337,32356,-484,-16264,-3053,-2,-58,21
1,338,32361,-603,-16258,-3127,-5,-31,17
1,339,32366,-609,-16224,-3022,-6,-12,14
1,340,32371,-458,-16185,-3045,-6,-3,13
1,341,32376,-282,-16129,-3057,-5,3,12
1,342,32381,-396,-16109,-2880,-3,6,9
1,343,32386,-651,-16068,-2711,-3,-10,8
1,344,32391,-696,-16021,-2757,-1,-43,11
1,345,32396,-465,-16056,-2984,2,-70,13
1,346,32401,-287,-16155,-3081,-1,-63,12
1,347,32406,-380,-16242,-3020,-4,-47,8
1,348,32411,-589,-16219,-2917,-4,-41,2
1,349,32416,-515,-16203,-2959,-3,-47,5
1,350,32421,-351,-16202,-3102,-1,-39,6
1,351,32426,-273,-16208,-2999,-6,-13,4
1,352,32431,-348,-16242,-2653,-8,-2,3
1,353,32436,-453,-16211,-2569,-4,-33,5
1,354,32441,-408,-16153,-2769,-3,-83,4
1,355,32446,-370,-16023,-3189,-3,-100,1
1,356,32451,-501,-16016,-3114,2,-78,3
1,357,32456,-651,-16067,-3107,-2,-66,-1
1,358,32461,-552,-16077,-3246,-3,-64,-5
1,359,32466,-435,-16063,-3256,-3,-50,-5
1,360,32471,-501,-16031,-3200,-1,-27,-8
1,361,32476,-687,-16078,-3099,0,-12,-11
1,362,32481,-665,-16161,-3029,-3,-2,-13
1,363,32486,-447,-16209,-3025,-8,7,-15
1,364,32491,-357,-16199,-2956,-8,20,-13
1,365,32496,-430,-16235,-2872,-5,27,-16
1,366,32501,-412,-16281,-2858,-2,19,-17
1,367,32506,-355,-16331,-2881,-4,1,-15
1,368,32511,-302,-16300,-2857,-7,-10,-15
1,369,32516,-310,-16242,-2814,-5,-27,-14
1,370,32521,-377,-16268,-2909,-6,-45,-17
1,371,32526,-441,-16247,-3069,-8,-61,-16
1,372,32531,-379,-16171,-3088,-8,-71,-14
1,373,32536,-374,-16171,-3068,-7,-70,-15
1,374,32541,-451,-16149,-3063,-3,-73,-15
1,375,32546,-541,-16192,-3164,-3,-73,-14
1,376,32551,-512,-16186,-3208,-4,-70,-15
1,377,32556,-425,-16204,-3232,-4,-53,-17
1,378,32561,-360,-16232,-3202,-5,-31,-19
1,379,32566,-453,-16247,-3108,-5,-13,-23
1,380,32571,-536,-16261,-3059,-8,-1,-25
1,381,32576,-522,-16276,-3035,-7,5,-26
1,382,32581,-358,-16308,-3014,-6,10,-25
1,383,32586,-269,-16275,-2962,-10,15,-24
1,384,32591,-359,-16211,-2859,-8,12,-26
1,385,32596,-446,-16188,-2828,-5,-7,-28
1,386,32601,-463,-16177,-2939,-6,-37,-23
1,387,32606,-409,-16194,-2984,-9,-60,-19
1,388,32611,-394,-16106,-2997,-6,-74,-20
1,389,32616,-413,-16102,-3068,-5,-74,-21
1,390,32621,-535,-16127,-3146,-9,-71,-26
1,391,32626,-556,-16138,-3188,-11,-76,-26
1,392,32631,-434,-16086,-3157,-10,-76,-25
1,393,32636,-319,-16054,-3133,-6,-69,-23
1,394,32641,-444,-16101,-3162,-6,-57,-23
1,395,32646,-614,-16115,-3156,-6,-51,-26
1,396,32651,-664,-16109,-3084,-8,-52,-26
1,397,32656,-479,-16109,-3018,-9,-50,-28
1,398,32661,-373,-16146,-3133,-12,-31,-29
1,399,32666,-388,-16055,-3154,-8,-2,-26
1,400,32671,-547,-15991,-3014,-6,16,-32
1,401,32676,-588,-16059,-2909,-9,7,-33
1,402,32681,-454,-16099,-3003,-10,-15,-31
1,403,32686,-262,-16154,-3031,-9,-23,-31
1,404,32691,-272,-16171,-2977,-8,-20,-28
1,405,32696,-491,-16178,-2925,-8,-21,-30
1,406,32701,-602,-16148,-2896,-9,-32,-30
1,407,32706,-539,-16106,-3007,-10,-41,-28
1,408,32711,-473,-16138,-3038,-9,-45,-29
1,409,32716,-451,-16226,-3021,-9,-39,-28
1,410,32721,-463,-16259,-3055,-7,-37,-27
1,411,32726,-441,-16232,-3008,-8,-36,-28
1,412,32731,-439,-16187,-3062,-6,-37,-29
1,413,32736,-435,-16165,-3105,-7,-33,-27
1,414,32741,-413,-16164,-3100,-4,-25,-25
1,415,32746,-416,-16137,-2987,-3,-15,-26
1,416,32751,-487,-16084,-2941,-4,-23,-24
1,417,32756,-488,-16043,-2981,-4,-32,-25
1,418,32761,-478,-16028,-3114,-2,-33,-24
1,419,32766,-471,-16060,-3140,0,-23,-23
1,420,32771,-458,-16115,-3038,2,-14,-21
1,421,32776,-505,-16069,-2969,3,-16,-19
1,422,32781,-457,-16019,-3061,2,-19,-20
1,423,32786,-402,-15902,-3028,4,-16,-17
1,424,32791,-485,-15993,-3005,7,-7,-17
1,425,32796,-557,-16002,-2869,4,-4,-11
1,426,32801,-572,-16037,-2732,4,-21,-8
1,427,32806,-449,-16125,-2796,8,-47,3
1,428,32811,-160,-16087,-2902,5,-54,9
1,429,32816,-235,-16038,-2508,4,-32,20
1,430,32821,-563,-15957,-2529,5,-58,22
1,431,32826,-709,-15913,-2809,4,-101,30
1,432,32831,-846,-15884,-2861,5,-127,42
1,433,32836,-837,-15872,-2857,4,-138,49
1,434,32841,-872,-15816,-2938,6,-129,57
1,435,32846,-913,-15773,-3201,9,-119,65
1,436,32851,-1106,-15759,-3245,8,-102,68
1,437,32856,-1340,-15739,-3193,7,-85,73
1,438,32861,-1296,-15671,-2952,5,-69,84
1,439,32866,-1131,-15778,-2808,3,-56,98
1,440,32871,-1244,-16006,-2717,7,-58,112
1,441,32876,-1291,-16245,-2583,5,-91,125
1,442,32881,-1118,-16215,-2368,2,-150,146
1,443,32886,-1050,-16225,-2459,2,-210,157
1,444,32891,-1271,-16332,-2946,7,-243,171
1,445,32896,-1593,-16413,-3364,5,-232,186
1,446,32901,-1734,-16376,-3294,5,-198,199
1,447,32906,-1680,-16381,-3136,4,-178,212
1,448,32911,-1632,-16400,-3149,4,-174,224
1,449,32916,-1649,-16479,-3279,10,-174,240
1,450,32921,-1782,-16481,-3229,3,-160,256
1,451,32926,-1811,-16481,-3047,-1,-144,275
1,452,32931,-1605,-16412,-2970,-4,-128,295
1,453,32936,-1283,-16269,-3076,-3,-111,317
1,454,32941,-1450,-16172,-3106,-3,-100,332
1,455,32946,-2100,-16231,-3108,-4,-112,351
1,456,32951,-2291,-16302,-3063,-9,-131,377
1,457,32956,-1757,-16300,-3415,-15,-119,401
1,458,32961,-1225,-16263,-3569,-14,-36,422
1,459,32966,-1483,-16246,-3205,-15,54,438
1,460,32971,-2140,-16250,-2682,-17,63,455
1,461,32976,-2244,-16203,-2492,-19,-27,482
1,462,32981,-1980,-16145,-2560,-23,-123,512
1,463,32986,-1853,-16215,-2958,-18,-175,538
1,464,32991,-2084,-16227,-3118,-14,-170,562
1,465,32996,-2356,-16256,-3047,-18,-164,584
1,466,33001,-2360,-16233,-3113,-31,-184,605
1,467,33006,-1897,-16153,-3321,-34,-197,628
1,468,33011,-1628,-16049,-3474,-34,-166,651
1,469,33016,-1847,-16012,-3322,-36,-107,671
1,470,33021,-2378,-15895,-2914,-42,-79,688
1,471,33026,-2471,-15807,-2666,-48,-105,715
1,472,33031,-2213,-15674,-2810,-53,-141,741
1,473,33036,-2172,-15661,-2977,-53,-151,763
1,474,33041,-2582,-15675,-3084,-60,-137,778
1,475,33046,-2835,-15668,-3180,-66,-130,797
1,476,33051,-2520,-15580,-3264,-73,-120,820
1,477,33056,-2078,-15507,-3432,-79,-92,838
1,478,33061,-2159,-15527,-3233,-82,-53,857
1,479,33066,-2721,-15551,-2916,-85,-58,872
1,480,33071,-3206,-15603,-2870,-86,-140,889
1,481,33076,-3254,-15600,-3369,-92,-227,907
1,482,33081,-3018,-15464,-3908,-97,-246,921
1,483,33086,-2971,-15367,-4023,-100,-183,930
1,484,33091,-3243,-15445,-3774,-100,-109,938
1,485,33096,-3552,-15536,-3620,-103,-89,948
1,486,33101,-3428,-15472,-3622,-111,-109,959
1,487,33106,-3055,-15228,-3579,-115,-127,973
1,488,33111,-2894,-15066,-3575,-118,-107,976
1,489,33116,-3093,-14955,-3612,-116,-76,982
1,490,33121,-3432,-14891,-3514,-113,-80,991
1,491,33126,-3393,-14915,-3287,-114,-133,1003
1,492,33131,-3118,-15046,-3079,-114,-217,1016
1,493,33136,-3198,-15352,-3058,-113,-293,1018
1,494,33141,-3623,-15513,-3157,-110,-349,1020
1,495,33146,-3920,-15479,-3476,-112,-380,1023
1,496,33151,-3790,-15455,-4008,-112,-373,1025
1,497,33156,-3446,-15599,-4351,-113,-319,1020
1,498,33161,-3513,-15774,-4086,-119,-241,1010
1,499,33166,-3882,-15792,-3625,-124,-195,1001
1,500,33171,-3983,-15748,-3618,-122,-179,995
1,501,33176,-3786,-15675,-3853,-121,-155,987
1,502,33181,-4189,-15530,-3343,-125,-97,965
1,503,33186,-4363,-15463,-3311,-124,-128,955
1,504,33191,-4022,-15386,-3898,-125,-157,944
1,505,33196,-3580,-15304,-4214,-126,-128,934
1,506,33201,-3553,-15261,-3711,-125,-64,921
1,507,33206,-3799,-15212,-3006,-123,-48,904
1,508,33211,-4063,-15190,-2888,-117,-119,890
1,509,33216,-3944,-15238,-3383,-112,-222,880
1,510,33221,-3819,-15406,-3588,-110,-253,867
1,511,33226,-4042,-15591,-3262,-112,-237,850
1,512,33231,-4286,-15827,-3084,-111,-238,832
1,513,33236,-4269,-15945,-3469,-114,-241,810
1,514,33241,-3925,-15997,-3811,-116,-196,791
1,515,33246,-3823,-16048,-3529,-123,-115,766
1,516,33251,-4033,-16069,-3038,-126,-57,736
1,517,33256,-4339,-16120,-2864,-122,-49,709
1,518,33261,-4321,-16125,-2986,-121,-72,689
1,519,33266,-4086,-16109,-3132,-123,-106,667
1,520,33271,-4004,-16129,-3028,-120,-128,642
1,521,33276,-4095,-16143,-3007,-119,-151,613
1,522,33281,-4285,-16087,-3291,-113,-181,582
1,523,33286,-4322,-16068,-3651,-114,-199,558
1,524,33291,-4315,-16000,-3629,-115,-192,531
1,525,33296,-4199,-15854,-3285,-112,-174,503
1,526,33301,-4270,-15836,-3160,-107,-177,472
1,527,33306,-4568,-16018,-3254,-101,-199,443
1,528,33311,-4640,-16056,-3525,-102,-222,413
1,529,33316,-4327,-15947,-3614,-107,-214,383
1,530,33321,-4016,-15800,-3583,-104,-174,350
1,531,33326,-4104,-15746,-3562,-98,-119,313
1,532,33331,-4411,-15681,-3664,-96,-83,273
1,533,33336,-4536,-15640,-3668,-95,-74,240
1,534,33341,-4205,-15673,-3616,-95,-68,208
1,535,33346,-3839,-15682,-3531,-94,-46,176
1,536,33351,-3645,-15606,-3505,-89,-8,137
1,537,33356,-3748,-15547,-3513,-84,22,96
1,538,33361,-3959,-15460,-3349,-76,21,63
1,539,33366,-4167,-15520,-3110,-75,-24,30
1,540,33371,-4219,-15676,-2911,-66,-84,-1
1,541,33376,-4206,-15752,-3011,-56,-137,-34
1,542,33381,-4270,-15826,-3336,-44,-156,-72
1,543,33386,-4343,-15950,-3678,-39,-152,-107
1,544,33391,-4308,-16014,-3716,-38,-136,-146
1,545,33396,-4121,-15930,-3539,-36,-129,-183
1,546,33401,-4112,-15881,-3432,-28,-116,-220
1,547,33406,-4061,-15798,-3584,-21,-102,-258
1,548,33411,-3964,-15738,-3784,-14,-79,-297
1,549,33416,-3837,-15663,-3745,-6,-62,-333
1,550,33421,-3794,-15649,-3593,-2,-59,-371
1,551,33426,-3743,-15655,-3666,5,-74,-412
1,552,33431,-3719,-15710,-3854,19,-75,-453
1,553,33436,-3942,-15846,-3977,30,-46,-501
1,554,33441,-3992,-16013,-3978,37,-16,-541
1,555,33446,-3818,-16104,-3653,44,20,-581
1,556,33451,-3767,-16176,-3253,55,46,-621
1,557,33456,-3945,-16269,-3021,68,48,-664
1,558,33461,-4211,-16458,-3066,78,28,-705
1,559,33466,-4119,-16648,-3184,84,8,-744
1,560,33471,-3701,-16736,-3142,90,10,-783
1,561,33476,-3343,-16768,-3059,96,40,-825
1,562,33481,-3443,-16728,-3008,102,82,-870
1,563,33486,-3675,-16604,-3155,108,111,-915
1,564,33491,-3515,-16555,-3361,118,131,-954
1,565,33496,-3197,-16588,-3469,126,152,-994
1,566,33501,-3150,-16743,-3343,136,181,-1043
1,567,33506,-3360,-16715,-3502,146,197,-1091
1,568,33511,-3295,-16549,-3772,157,219,-1135
1,569,33516,-2991,-16445,-4022,163,273,-1178
1,570,33521,-2900,-16618,-3871,171,356,-1223
1,571,33526,-3343,-16663,-3399,177,416,-1274
1,572,33531,-3710,-16463,-3117,183,439,-1324
1,573,33536,-3192,-16093,-3763,188,468,-1368
1,574,33541,-2211,-15983,-4237,198,579,-1408
1,575,33546,-2467,-16002,-2501,215,815,-1500
1,576,33551,-2867,-15974,-2013,226,752,-1544
1,577,33556,-2731,-16225,-2570,236,645,-1576
1,578,33561,-2308,-16539,-3314,236,621,-1611
1,579,33566,-1856,-16684,-3450,231,723,-1653
1,580,33571,-1636,-16686,-2984,232,854,-1691
1,581,33576,-1646,-16746,-2623,237,919,-1732
1,582,33581,-1754,-16778,-2392,241,893,-1769
1,583,33586,-1961,-16606,-1992,251,811,-1801
1,584,33591,-2144,-16477,-2197,263,698,-1833
1,585,33596,-2349,-16817,-2931,273,607,-1856
1,586,33601,-2159,-17272,-3779,263,596,-1880
1,587,33606,-1466,-17390,-3964,248,670,-1905
1,588,33611,-1111,-17314,-3446,235,803,-1938
1,589,33616,-1054,-17383,-3312,229,946,-1974
1,590,33621,-1092,-17411,-3179,228,1067,-1990
1,591,33626,-1099,-17276,-2160,219,1116,-1994
1,592,33631,-864,-17182,-1383,213,1030,-1993
1,593,33636,-68,-17133,-1714,211,871,-1988
1,594,33641,593,-17148,-2239,203,756,-1979
1,595,33646,174,-17158,-1961,191,677,-1968
1,596,33651,-975,-17394,-1373,182,556,-1951
1,597,33656,-1149,-17579,-1768,176,371,-1926
1,598,33661,2149,-14620,-2559,166,234,-1895
1,599,33666,11516,-13405,-1849,210,559,-1846
1,600,33671,-24234,-5384,13302,217,-1034,-1784
1,601,33676,17668,-21312,-19143,267,-4092,-855
1,602,33681,19206,-19540,-23201,54,476,-949
1,603,33686,13371,-24304,-2500,-216,2859,-1738
1,604,33691,-28956,-12769,28632,-258,3951,-2186
1,605,33696,-23604,-13692,4894,261,662,-1319
1,606,33701,9270,-21217,-23728,176,-1192,-554
1,607,33706,26119,-20028,-4100,-100,334,-889
1,608,33711,9668,-20301,13982,-191,460,-1268
1,609,33716,-22195,-15195,12451,0,-643,-1383
1,610,33721,-13718,-18215,-22998,99,-2154,-952
1,611,33726,3127,-18926,-26044,-115,-646,-625
1,612,33731,17639,-19807,10,-352,1395,-743
1,613,33736,2809,-16408,17451,-313,1865,-966
1,614,33741,-9016,-16436,7284,-25,555,-940
1,615,33746,-9849,-17468,-16732,8,-1225,-615
1,616,33751,2041,-18118,-14457,-181,-985,-379
1,617,33756,7192,-16576,3023,-370,-154,-366
1,618,33761,2138,-15690,8206,-274,118,-442
1,619,33766,-4096,-15904,-1378,-69,-40,-478
1,620,33771,-22903,-3556,-15894,-362,-71,-432
1,621,33776,3706,-10052,-716,-541,922,312
1,622,33781,2420,-8814,20187,-594,1799,574
1,623,33786,21313,-17496,9508,-123,-54,361
1,624,33791,-7156,-17097,-12916,108,-2151,149
1,625,33796,-18206,-17219,-22425,-273,-2432,110
1,626,33801,-15721,-10901,-4465,-685,-1660,449
1,627,33806,10149,-11953,3848,-590,-882,804
1,628,33811,17441,-14951,1390,-339,953,596
1,629,33816,-1312,-13757,-10511,-246,1151,224
1,630,33821,-17594,-14306,-8366,-307,397,444
1,631,33826,-15278,-10900,6000,-384,-686,798
1,632,33831,8762,-13260,-2911,-355,-2055,1070
1,633,33836,12742,-14670,-6795,-277,-1153,898
1,634,33841,-564,-15284,-10329,-313,-161,587
1,635,33846,-17711,-11541,-5400,-373,123,588
1,636,33851,-10824,-11594,-2475,-347,-495,986
1,637,33856,5159,-12814,-3883,-324,-804,1168
1,638,33861,10920,-14308,-4578,-298,-384,1005
1,639,33866,-1376,-13774,-3261,-274,-89,781
1,640,33871,-13328,-12240,-2271,-248,-483,803
1,641,33876,-9385,-12240,-7161,-235,-1256,1062
1,642,33881,2369,-13600,-8055,-248,-1096,1204
1,643,33886,6921,-14667,-3810,-266,-255,1064
1,644,33891,-479,-14281,-1182,-232,188,877
1,645,33896,-7893,-13992,-3041,-182,-144,875
1,646,33901,-6652,-14248,-7222,-178,-724,1020
1,647,33906,788,-14900,-6489,-210,-729,1098
1,648,33911,3796,-15459,-1977,-227,-258,1029
1,649,33916,-4879,-15503,-4153,-130,-51,866
1,650,33921,-4585,-15690,-7474,-138,-290,928
1,651,33926,-7,-15800,-5934,-191,-269,976
1,652,33931,3249,-15843,-1376,-206,25,931
1,653,33936,1756,-15951,-770,-157,240,830
1,654,33941,-1965,-16113,-4029,-112,227,770
1,655,33946,-3028,-16053,-5943,-125,70,800
1,656,33951,-475,-15727,-3712,-164,-33,835
1,657,33956,2445,-15622,-815,-171,-15,819
1,658,33961,2356,-15918,-1715,-132,54,752
1,659,33966,-479,-16142,-4761,-93,109,683
1,660,33971,-2527,-16133,-5968,-103,101,668
1,661,33976,-1297,-15951,-4211,-136,61,689
1,662,33981,1448,-15948,-2601,-142,68,677
1,663,33986,2212,-16241,-3159,-121,193,616
1,664,33991,29,-16378,-4850,-103,331,540
1,665,33996,-2218,-16355,-5249,-109,360,515
1,666,34001,-1458,-16040,-4149,-138,296,522
1,667,34006,1406,-15897,-3189,-149,278,520
1,668,34011,2604,-16003,-3044,-134,386,465
1,669,34016,671,-16179,-3523,-120,478,398
1,670,34021,-1703,-16071,-3701,-121,407,369
1,671,34026,-1356,-15845,-3557,-139,214,379
1,672,34031,977,-15825,-3425,-143,86,384
1,673,34036,2314,-16042,-3505,-133,134,348
1,674,34041,831,-16054,-3442,-127,233,285
1,675,34046,-1245,-15912,-3746,-121,172,257
1,676,34051,-1394,-15826,-4214,-127,6,261
1,677,34056,278,-15947,-4326,-136,-88,266
1,678,34061,1503,-16145,-3929,-139,-27,236
1,679,34066,675,-16308,-3845,-131,70,180
1,680,34071,-1010,-16334,-4437,-121,76,141
1,681,34076,-1512,-16319,-5172,-129,17,131
1,682,34081,-579,-16363,-4977,-144,10,122
1,683,34086,549,-16419,-4455,-155,83,98
1,684,34091,441,-16466,-4178,-146,195,60
1,685,34096,-300,-16478,-4476,-143,249,22
1,686,34101,-883,-16489,-4559,-147,216,9
1,687,34106,-582,-16550,-4058,-156,141,7
1,688,34111,228,-16527,-3535,-163,81,-1
1,689,34116,685,-16492,-3635,-159,71,-19
1,690,34121,456,-16395,-4137,-149,89,-38
1,691,34126,-229,-16251,-4430,-150,83,-55
1,692,34131,-497,-16090,-4320,-158,20,-60
1,693,34136,26,-15950,-4089,-155,-55,-58
1,694,34141,613,-15819,-4239,-148,-86,-66
1,695,34146,410,-15765,-4561,-137,-75,-79
1,696,34151,-267,-15663,-4825,-132,-76,-94
1,697,34156,-893,-15684,-4633,-133,-132,-99
1,698,34161,-965,-15880,-4653,-137,-217,-97
1,699,34166,-582,-15911,-4968,-140,-234,-102
1,700,34171,-295,-15775,-5309,-146,-144,-112
1,701,34176,-621,-15576,-5287,-149,11,-131
1,702,34181,-1175,-15498,-5070,-150,121,-146
1,703,34186,-1023,-15446,-4916,-153,150,-142
1,704,34191,-219,-15410,-4562,-156,152,-135
1,705,34196,274,-15366,-4190,-154,153,-134
1,706,34201,-157,-15320,-3942,-146,141,-139
1,707,34206,-878,-15344,-4049,-139,75,-134
1,708,34211,-928,-15406,-4449,-136,-23,-118
1,709,34216,-562,-15589,-4423,-139,-94,-102
1,710,34221,-515,-15715,-4348,-136,-123,-99
1,711,34226,-1105,-15776,-4550,-127,-123,-104
1,712,34231,-1631,-15805,-5166,-125,-118,-101
1,713,34236,-1552,-15712,-5453,-129,-87,-88
1,714,34241,-1088,-15575,-5082,-133,-45,-78
1,715,34246,-910,-15486,-4573,-126,-29,-75
1,716,34251,-1274,-15475,-4523,-115,-55,-74
1,717,34256,-1892,-15513,-4775,-105,-119,-64
1,718,34261,-2158,-15514,-4979,-104,-181,-52
1,719,34266,-1864,-15505,-4905,-107,-201,-38
1,720,34271,-1472,-15483,-4968,-103,-169,-27
1,721,34276,-1556,-15431,-5175,-96,-114,-30
1,722,34281,-2516,-15159,-5420,-90,-77,-29
1,723,34286,-2403,-15128,-5131,-88,-91,-17
1,724,34291,-1897,-15105,-4985,-87,-84,-6
1,725,34296,-1739,-15098,-4959,-80,-49,-5
1,726,34301,-2277,-15064,-5039,-73,-34,-6
1,727,34306,-2707,-15042,-5158,-69,-61,-3
1,728,34311,-2680,-15088,-5268,-66,-109,10
1,729,34316,-2201,-15192,-5409,-64,-111,25
1,730,34321,-1883,-15241,-5400,-62,-52,22
1,731,34326,-2047,-15257,-5256,-59,25,19
1,732,34331,-2338,-15345,-5209,-55,60,20
1,733,34336,-2213,-15342,-5124,-53,45,25
1,734,34341,-1847,-15286,-4974,-52,30,33
1,735,34346,-1689,-15273,-4757,-48,34,32
1,736,34351,-1822,-15290,-4789,-38,32,36
1,737,34356,-2032,-15331,-4930,-33,8,41
1,738,34361,-2072,-15369,-5073,-32,-26,47
1,739,34366,-1867,-15362,-5037,-32,-48,55
1,740,34371,-1738,-15414,-5005,-27,-39,58
1,741,34376,-1735,-15449,-5092,-25,-8,55
1,742,34381,-1698,-15463,-5148,-25,26,57
1,743,34386,-1613,-15377,-4939,-25,45,62
1,744,34391,-1569,-15321,-4683,-25,32,66
1,745,34396,-1557,-15242,-4588,-23,7,69
1,746,34401,-1504,-15181,-4796,-18,-13,75
1,747,34406,-1544,-15157,-4988,-14,-19,77
1,748,34411,-1714,-15225,-4821,-11,-26,79
1,749,34416,-1753,-15290,-4739,-9,-50,85
1,750,34421,-1579,-15365,-4990,-6,-75,85
1,751,34426,-1463,-15356,-5242,-4,-69,81
1,752,34431,-1664,-15278,-5304,0,-33,78
1,753,34436,-1949,-15295,-5068,-3,0,79
1,754,34441,-1913,-15281,-4912,-7,12,80
1,755,34446,-1536,-15228,-4826,-4,16,82
1,756,34451,-1363,-15205,-4760,2,23,78
1,757,34456,-1640,-15345,-4667,4,20,70
1,758,34461,-2176,-15575,-4683,5,-11,72
1,759,34466,-2323,-15806,-4910,4,-57,73
1,760,34471,-1867,-15884,-5206,-4,-65,73
1,761,34476,-1386,-15890,-5350,-5,3,67
1,762,34481,-1357,-15752,-5320,-8,108,54
1,763,34486,-1691,-15667,-5024,-9,193,41
1,764,34491,-1780,-15630,-4803,-11,214,41
