event_id,seq,ts_ms,ax,ay,az,gx,gy,gz
1,0,181064,-2323,-16249,-1324,1,-8,-3
1,1,181069,-2358,-16226,-1293,3,-8,-4
1,2,181074,-2296,-16222,-1271,1,-8,-3
1,3,181079,-2272,-16214,-1313,1,-8,-5
1,4,181084,-2274,-16232,-1352,1,-8,-4
1,5,181089,-2287,-16209,-1299,4,-9,-1
1,6,181094,-2337,-16189,-1289,2,-8,-4
1,7,181099,-2335,-16213,-1258,3,-10,-4
1,8,181104,-2373,-16214,-1228,5,-12,-3
1,9,181109,-2414,-16207,-1231,2,-9,-4
1,10,181114,-2362,-16250,-1226,1,-13,-6
1,11,181119,-2375,-16192,-1257,0,-9,-6
1,12,181124,-2343,-16197,-1231,1,-5,-5
1,13,181129,-2319,-16213,-1203,-1,-5,-7
1,14,181134,-2279,-16230,-1269,0,-8,-9
1,15,181139,-2285,-16269,-1320,0,-9,-6
1,16,181144,-2277,-16224,-1350,0,-7,-6
1,17,181149,-2259,-16186,-1344,2,-9,-6
1,18,181154,-2282,-16204,-1404,2,-9,-5
1,19,181159,-2275,-16248,-1391,2,-8,-3
1,20,181164,-2293,-16242,-1399,1,-7,-4
1,21,181169,-2296,-16247,-1450,4,-7,-3
1,22,181174,-2312,-16233,-1373,3,-8,-4
1,23,181179,-2322,-16220,-1324,4,-9,-2
1,24,181184,-2292,-16200,-1329,3,-10,-3
1,25,181189,-2295,-16196,-1267,4,-9,-6
1,26,181194,-2326,-16234,-1292,4,-8,-5
1,27,181199,-2337,-16220,-1264,3,-6,-2
1,28,181204,-2321,-16193,-1222,1,-8,-6
1,29,181209,-2331,-16243,-1250,0,-9,-3
1,30,181214,-2300,-16203,-1267,0,-7,-4
1,31,181219,-2290,-16224,-1281,-1,-5,-4
1,32,181224,-2301,-16207,-1322,1,-9,-1
1,33,181229,-2305,-16180,-1303,2,-10,-1
1,34,181234,-2313,-16221,-1297,1,-8,-3
1,35,181239,-2326,-16267,-1316,0,-6,-6
1,36,181244,-2324,-16235,-1316,0,-7,-5
1,37,181249,-2347,-16197,-1353,2,-8,-5
1,38,181254,-2305,-16211,-1361,1,-7,-7
1,39,181259,-2307,-16245,-1315,1,-6,-7
1,40,181264,-2345,-16207,-1302,4,-7,-4
1,41,181269,-2272,-16227,-1250,2,-8,-5
1,42,181274,-2319,-16228,-1295,3,-9,-4
1,43,181279,-2290,-16199,-1274,2,-10,-6
1,44,181284,-2298,-16214,-1248,2,-7,-6
1,45,181289,-2311,-16222,-1274,1,-7,-4
1,46,181294,-2318,-16225,-1286,3,-11,-4
1,47,181299,-2293,-16244,-1282,2,-9,-5
1,48,181304,-2302,-16211,-1322,2,-6,-2
1,49,181309,-2319,-16245,-1325,1,-7,-6
1,50,181314,-2355,-16252,-1330,1,-9,-4
1,51,181319,-2337,-16240,-1349,2,-7,-3
1,52,181324,-2295,-16207,-1326,5,-7,-3
1,53,181329,-2299,-16203,-1332,2,-8,-3
1,54,181334,-2276,-16207,-1306,1,-7,-3
1,55,181339,-2293,-16226,-1322,3,-9,-5
1,56,181344,-2270,-16222,-1313,3,-11,-4
1,57,181349,-2274,-16208,-1324,4,-8,-5
1,58,181354,-2295,-16205,-1344,3,-7,-6
1,59,181359,-2289,-16221,-1338,3,-5,-4
1,60,181364,-2291,-16214,-1367,3,-7,-5
1,61,181369,-2281,-16191,-1319,3,-11,-5
1,62,181374,-2275,-16196,-1335,5,-8,-7
1,63,181379,-2303,-16204,-1298,3,-7,-4
1,64,181384,-2330,-16222,-1347,1,-7,-5
1,65,181389,-2298,-16192,-1347,2,-7,-7
1,66,181394,-2298,-16196,-1322,3,-9,-6
1,67,181399,-2296,-16201,-1311,4,-6,-2
1,68,181404,-2328,-16203,-1294,6,-10,-5
1,69,181409,-2319,-16233,-1298,3,-11,-5
1,70,181414,-2306,-16226,-1332,3,-9,-1
1,71,181419,-2331,-16217,-1303,1,-9,-2
1,72,181424,-2314,-16201,-1292,2,-10,-3
1,73,181429,-2341,-16183,-1274,3,-9,-3
1,74,181434,-2312,-16237,-1299,4,-7,-4
1,75,181439,-2323,-16200,-1292,2,-8,-6
1,76,181444,-2299,-16209,-1333,1,-10,-6
1,77,181449,-2282,-16221,-1298,2,-8,-3
1,78,181454,-2289,-16195,-1308,0,-8,-4
1,79,181459,-2309,-16231,-1276,2,-8,-3
1,80,181464,-2315,-16239,-1308,2,-8,-5
1,81,181469,-2347,-16188,-1286,0,-7,-5
1,82,181474,-2301,-16219,-1288,3,-10,-3
1,83,181479,-2312,-16231,-1311,5,-12,-4
1,84,181484,-2309,-16216,-1295,1,-6,-6
1,85,181489,-2338,-16235,-1293,0,-7,-5
1,86,181494,-2319,-16235,-1292,4,-8,-4
1,87,181499,-2317,-16244,-1282,1,-5,-4
1,88,181504,-2323,-16220,-1314,0,-8,-6
1,89,181509,-2318,-16193,-1302,3,-8,-5
1,90,181514,-2285,-16207,-1313,1,-8,-5
1,91,181519,-2313,-16235,-1329,2,-8,-4
1,92,181524,-2311,-16247,-1310,3,-10,-6
1,93,181529,-2289,-16222,-1335,1,-11,-3
1,94,181534,-2293,-16215,-1297,3,-8,-5
1,95,181539,-2331,-16254,-1308,1,-6,-6
1,96,181544,-2290,-16208,-1288,-2,-7,-6
1,97,181549,-2298,-16234,-1292,3,-8,-2
1,98,181554,-2295,-16223,-1299,4,-6,-4
1,99,181559,-2314,-16225,-1330,1,-8,-5
1,100,181564,-2308,-16239,-1345,5,-8,-3
1,101,181569,-2317,-16212,-1310,5,-8,-6
1,102,181574,-2308,-16236,-1323,4,-9,-3
1,103,181579,-2291,-16232,-1298,2,-8,-2
1,104,181584,-2341,-16215,-1305,2,-7,-4
1,105,181589,-2338,-16208,-1310,2,-7,-2
1,106,181594,-2338,-16210,-1317,6,-7,-1
1,107,181599,-2317,-16219,-1274,4,-5,-3
1,108,181604,-2341,-16230,-1301,2,-9,-5
1,109,181609,-2323,-16224,-1303,2,-11,-4
1,110,181614,-2335,-16198,-1306,3,-9,-3
1,111,181619,-2327,-16196,-1315,2,-8,-3
1,112,181624,-2305,-16239,-1304,-1,-6,-5
1,113,181629,-2307,-16216,-1335,0,-7,-8
1,114,181634,-2302,-16205,-1369,0,-9,-4
1,115,181639,-2285,-16236,-1351,1,-7,-5
1,116,181644,-2261,-16206,-1320,-1,-5,-6
1,117,181649,-2294,-16212,-1281,-1,-5,-4
1,118,181654,-2318,-16239,-1278,3,-10,-6
1,119,181659,-2303,-16219,-1331,2,-9,-2
1,120,181664,-2331,-16221,-1333,2,-5,-3
1,121,181669,-2345,-16238,-1287,3,-8,-4
1,122,181674,-2307,-16217,-1286,1,-7,-5
1,123,181679,-2297,-16208,-1292,0,-6,-6
1,124,181684,-2269,-16258,-1328,0,-9,-4
1,125,181689,-2305,-16189,-1323,-1,-10,-2
1,126,181694,-2358,-16214,-1324,2,-9,-4
1,127,181699,-2307,-16213,-1326,2,-10,-3
1,128,181704,-2309,-16184,-1308,1,-10,-4
1,129,181709,-2324,-16214,-1247,2,-7,-4
1,130,181714,-2335,-16200,-1257,0,-8,-5
1,131,181719,-2345,-16210,-1329,-1,-9,-7
1,132,181724,-2338,-16225,-1342,2,-9,-6
1,133,181729,-2328,-16192,-1329,0,-7,-4
1,134,181734,-2296,-16200,-1271,1,-7,-5
1,135,181739,-2333,-16229,-1283,4,-7,-5
1,136,181744,-2319,-16239,-1328,4,-8,-6
1,137,181749,-2299,-16263,-1299,0,-9,-6
1,138,181754,-2309,-16226,-1282,2,-10,-4
1,139,181759,-2315,-16232,-1292,3,-8,-2
1,140,181764,-2285,-16211,-1297,1,-9,-4
1,141,181769,-2240,-16236,-1297,1,-10,-5
1,142,181774,-2324,-16259,-1305,2,-9,-4
1,143,181779,-2332,-16227,-1305,1,-7,-2
1,144,181784,-2314,-16221,-1361,1,-8,-6
1,145,181789,-2367,-16223,-1326,1,-7,-6
1,146,181794,-2344,-16242,-1315,1,-9,-8
1,147,181799,-2302,-16201,-1301,2,-7,-5
1,148,181804,-2319,-16228,-1302,2,-7,-4
1,149,181809,-2342,-16241,-1274,0,-7,-5
1,150,181814,-2291,-16214,-1263,4,-8,-3
1,151,181819,-2262,-16231,-1263,4,-8,-5
1,152,181824,-2290,-16217,-1308,1,-11,-7
1,153,181829,-2296,-16177,-1342,0,-9,-4
1,154,181834,-2306,-16218,-1310,2,-9,-4
1,155,181839,-2344,-16223,-1311,0,-7,-4
1,156,181844,-2328,-16222,-1302,1,-7,-4
1,157,181849,-2301,-16226,-1370,4,-9,-5
1,158,181854,-2300,-16228,-1348,4,-10,-3
1,159,181859,-2311,-16217,-1358,2,-7,-4
1,160,181864,-2343,-16191,-1370,1,-5,-5
1,161,181869,-2314,-16207,-1327,2,-8,-4
1,162,181874,-2304,-16226,-1302,2,-11,-4
1,163,181879,-2302,-16219,-1338,6,-10,-3
1,164,181884,-2298,-16200,-1355,6,-8,-2
1,165,181889,-2341,-16195,-1301,5,-6,-7
1,166,181894,-2349,-16225,-1273,3,-7,-7
1,167,181899,-2339,-16204,-1292,3,-8,-5
1,168,181904,-2334,-16193,-1275,4,-6,-5
1,169,181909,-2311,-16236,-1312,2,-7,-3
1,170,181914,-2325,-16236,-1314,2,-7,-7
1,171,181919,-2286,-16201,-1292,2,-7,-6
1,172,181924,-2269,-16181,-1271,0,-10,-6
1,173,181929,-2273,-16246,-1296,2,-8,-4
1,174,181934,-2313,-16243,-1323,3,-9,-5
1,175,181939,-2328,-16242,-1322,1,-9,-4
1,176,181944,-2328,-16230,-1320,2,-9,-2
1,177,181949,-2327,-16240,-1339,2,-9,-4
1,178,181954,-2311,-16258,-1344,4,-8,-3
1,179,181959,-2307,-16232,-1283,1,-7,-4
1,180,181964,-2317,-16252,-1248,1,-7,-6
1,181,181969,-2288,-16210,-1307,4,-7,-5
1,182,181974,-2290,-16223,-1287,1,-6,-5
1,183,181979,-2297,-16197,-1301,2,-7,-4
1,184,181984,-2303,-16197,-1320,2,-7,-1
1,185,181989,-2255,-16222,-1300,1,-8,-5
1,186,181994,-2278,-16225,-1323,2,-7,-2
1,187,181999,-2329,-16228,-1331,2,-6,-2
1,188,182004,-2333,-16242,-1321,0,-11,-1
1,189,182009,-2323,-16218,-1322,2,-11,-3
1,190,182014,-2283,-16220,-1366,4,-9,-5
1,191,182019,-2296,-16185,-1299,2,-5,-5
1,192,182024,-2300,-16210,-1296,3,-7,-2
1,193,182029,-2285,-16239,-1352,3,-12,-4
1,194,182034,-2359,-16196,-1372,3,-11,-4
1,195,182039,-2333,-16217,-1310,5,-9,-3
1,196,182044,-2279,-16232,-1285,1,-7,-2
1,197,182049,-2286,-16229,-1291,3,-7,-3
1,198,182054,-2311,-16260,-1322,0,-7,-5
1,199,182059,-2330,-16247,-1314,3,-6,-4
1,200,182064,-2322,-16214,-1252,0,-9,-4
1,201,182069,-2323,-16248,-1318,2,-9,-8
1,202,182074,-2323,-16248,-1301,1,-8,-3
1,203,182079,-2319,-16200,-1317,2,-6,-5
1,204,182084,-2310,-16217,-1287,2,-7,-6
1,205,182089,-2303,-16230,-1314,2,-10,-2
1,206,182094,-2320,-16221,-1270,2,-11,-3
1,207,182099,-2314,-16210,-1303,0,-9,-3
1,208,182104,-2298,-16190,-1321,2,-7,-4
1,209,182109,-2318,-16214,-1306,2,-6,-4
1,210,182114,-2326,-16171,-1312,3,-5,-5
1,211,182119,-2321,-16182,-1309,1,-5,-5
1,212,182124,-2298,-16238,-1291,1,-6,-7
1,213,182129,-2313,-16208,-1323,2,-10,-6
1,214,182134,-2311,-16199,-1325,2,-10,-7
1,215,182139,-2309,-16211,-1312,2,-9,-5
1,216,182144,-2320,-16252,-1302,1,-8,-2
1,217,182149,-2305,-16248,-1302,2,-10,-5
1,218,182154,-2330,-16227,-1340,-1,-11,-5
1,219,182159,-2355,-16237,-1288,1,-6,-6
1,220,182164,-2331,-16208,-1254,1,-8,-6
1,221,182169,-2297,-16218,-1312,0,-9,-4
1,222,182174,-2274,-16184,-1315,2,-10,-2
1,223,182179,-2308,-16231,-1276,4,-9,-4
1,224,182184,-2338,-16238,-1311,1,-8,-4
1,225,182189,-2322,-16220,-1281,1,-6,-5
1,226,182194,-2342,-16200,-1321,0,-8,-4
1,227,182199,-2271,-16224,-1342,0,-4,-6
1,228,182204,-2308,-16190,-1270,3,-8,-5
1,229,182209,-2328,-16195,-1285,3,-11,-5
1,230,182214,-2276,-16233,-1302,2,-9,-6
1,231,182219,-2320,-16219,-1317,1,-7,-4
1,232,182224,-2321,-16229,-1314,3,-7,-6
1,233,182229,-2309,-16246,-1252,2,-7,-2
1,234,182234,-2325,-16231,-1312,1,-8,-5
1,235,182239,-2303,-16229,-1363,2,-8,-4
1,236,182244,-2297,-16213,-1336,4,-5,-2
1,237,182249,-2326,-16200,-1314,3,-7,-5
1,238,182254,-2299,-16210,-1303,2,-8,-7
1,239,182259,-2287,-16203,-1298,2,-7,-6
1,240,182264,-2285,-16208,-1321,3,-7,-6
1,241,182269,-2120,-16188,-1211,0,-9,-5
1,242,182274,-1804,-16166,-1144,0,-3,-3
1,243,182279,-2247,-16180,-887,-3,-2,2
1,244,182284,-2875,-16251,-1141,-7,-31,-5
1,245,182289,-2770,-16315,-1926,0,-47,-10
1,246,182294,-2506,-16213,-1865,2,-10,3
1,247,182299,-1933,-16247,-1253,-3,29,6
1,248,182304,-1725,-16199,-677,-1,28,-13
1,249,182309,-2278,-16070,-1113,6,-11,-16
1,250,182314,-2704,-16306,-1773,10,-46,10
1,251,182319,-2648,-16396,-1577,4,-41,5
1,252,182324,-2311,-16093,-1153,-3,-16,-12
1,253,182329,-2162,-16114,-1104,-1,10,-5
1,254,182334,-2137,-16343,-1395,5,18,2
1,255,182339,-2290,-16265,-1514,6,5,-10
1,256,182344,-2299,-16185,-1319,3,-18,-8
1,257,182349,-2251,-16189,-1162,5,-27,5
1,258,182354,-2261,-16246,-1235,4,-23,0
1,259,182359,-2455,-16291,-1428,4,-14,-10
1,260,182364,-3322,-16020,-1529,4,-1,-7
1,261,182369,-2048,-16721,-998,6,1,-9
1,262,182374,-2433,-15641,-1340,-3,5,-10
1,263,182379,-1612,-16543,-1235,6,19,14
1,264,182384,-2229,-16238,-1144,-1,10,-24
1,265,182389,-2501,-16079,-1414,1,-30,-18
1,266,182394,-2503,-16298,-1357,8,-37,9
1,267,182399,-2482,-16287,-1462,4,-18,2
1,268,182404,-2228,-16269,-1138,-5,6,-19
1,269,182409,-2243,-15999,-1327,4,10,-13
1,270,182414,-2152,-16321,-1424,4,14,7
1,271,182419,-2297,-16314,-1228,1,-3,-6
1,272,182424,-2340,-16108,-1163,2,-20,-18
1,273,182429,-2287,-16323,-1389,2,-16,7
1,274,182434,-2261,-16258,-1374,2,0,-12
1,275,182439,-2358,-16136,-1272,3,7,-8
1,276,182444,-2376,-16254,-1207,3,6,4
1,277,182449,-2245,-16331,-1270,4,-14,-5
1,278,182454,-2273,-16175,-1326,4,-22,-11
1,279,182459,-2276,-16183,-1423,2,-13,-4
1,280,182464,-2356,-16253,-1335,1,0,0
1,281,182469,-2361,-16225,-1235,0,1,-9
1,282,182474,-2335,-16185,-1290,4,-9,-7
1,283,182479,-2274,-16225,-1312,5,-13,0
1,284,182484,-2252,-16251,-1346,4,-7,-2
1,285,182489,-2316,-16200,-1294,2,-4,-7
1,286,182494,-2361,-16196,-1274,2,-5,-3
1,287,182499,-2365,-16261,-1309,4,-12,-1
1,288,182504,-2321,-16233,-1289,4,-14,-6
1,289,182509,-2280,-16211,-1301,1,-12,-5
1,290,182514,-2343,-16219,-1276,5,-2,-2
1,291,182519,-2316,-16261,-1310,2,-3,-5
1,292,182524,-2340,-16247,-1307,0,-7,-7
1,293,182529,-2266,-16218,-1307,2,-15,-6
1,294,182534,-2289,-16217,-1317,3,-13,-2
1,295,182539,-2291,-16214,-1318,3,-7,-4
1,296,182544,-2319,-16226,-1338,1,-6,-5
1,297,182549,-2365,-16251,-1297,3,-6,-6
1,298,182554,-2314,-16235,-1340,4,-7,-4
1,299,182559,-2283,-16210,-1331,3,-7,-3
1,300,182564,-2267,-16189,-1326,2,-7,-4
1,301,182569,-1864,-16189,-1846,6,-11,-1
1,302,182574,740,-16431,-3404,14,14,3
1,303,182579,951,-16055,-1932,14,119,6
1,304,182584,-2769,-15829,1165,-14,78,14
1,305,182589,-1885,-16787,-1153,20,-195,-14
1,306,182594,-2506,-15890,-3479,37,-168,1
1,307,182599,-1850,-16421,-3707,11,43,83
1,308,182604,-1541,-16493,-188,1,196,28
1,309,182609,-1922,-15540,707,17,70,-8
1,310,182614,-1873,-16255,-1969,36,-122,99
1,311,182619,-1948,-16617,-2644,31,-55,86
1,312,182624,-3029,-16530,-1657,17,42,19
1,313,182629,-2479,-15893,-1471,11,31,14
1,314,182634,-2050,-16723,-1277,25,52,62
1,315,182639,-2116,-16057,-1223,13,94,-4
1,316,182644,-2342,-16056,-1289,22,130,20
1,317,182649,-2214,-16584,-1853,28,164,35
1,318,182654,-2898,-16399,-2012,17,217,2
1,319,182659,-2948,-16053,-1467,10,255,-8
1,320,182664,-2635,-15940,-1425,18,269,5
1,321,182669,-2964,-16115,-610,12,284,-8
1,322,182674,-2890,-16123,-1114,7,237,-12
1,323,182679,-2835,-16113,-994,7,227,17
1,324,182684,-3172,-16317,-314,7,214,11
1,325,182689,-3135,-16153,-147,13,159,-17
1,326,182694,-2857,-16097,-1131,8,102,7
1,327,182699,-3290,-16275,-925,4,120,15
1,328,182704,-3513,-16266,-395,7,100,-18
1,329,182709,-3141,-16117,-780,9,36,-9
1,330,182714,-3226,-16245,-853,-1,29,15
1,331,182719,-3301,-16288,-600,-1,28,-3
1,332,182724,-2545,-16143,-989,6,-9,-19
1,333,182729,-1838,-16219,-1889,2,-17,2
1,334,182734,-1706,-16276,-1812,1,28,2
1,335,182739,-1917,-16211,-1157,0,36,-19
1,336,182744,-2280,-16133,-1087,2,-15,-14
1,337,182749,-2537,-16217,-1358,4,-43,5
1,338,182754,-2607,-16343,-1392,3,-30,0
1,339,182759,-2557,-16197,-1346,-1,-4,-14
1,340,182764,-2409,-16157,-1496,1,10,-8
1,341,182769,-2292,-16278,-1396,6,24,-2
1,342,182774,-2321,-16253,-1275,5,13,-10
1,343,182779,-2395,-16187,-1321,1,-7,-13
1,344,182784,-2414,-16241,-1352,4,-8,-3
1,345,182789,-2456,-16277,-1419,4,13,-4
1,346,182794,-2571,-16188,-1429,0,57,-14
1,347,182799,-2597,-16262,-1372,3,73,-10
1,348,182804,-2627,-16258,-1451,2,84,-14
1,349,182809,-2715,-16226,-1365,-2,109,-18
1,350,182814,-2810,-16228,-1273,-2,133,-18
1,351,182819,-2734,-16283,-1362,-1,158,-24
1,352,182824,-2633,-16214,-1519,-2,190,-31
1,353,182829,-2419,-16202,-1528,-3,227,-33
1,354,182834,-2144,-16259,-1513,-4,247,-34
1,355,182839,-1823,-16156,-1270,-4,251,-41
1,356,182844,-1450,-16097,-941,-9,224,-42
1,357,182849,-1432,-16215,-817,-5,159,-32
1,358,182854,-1089,-16233,-1344,1,58,-11
1,359,182859,-1298,-16213,-1423,2,7,-1
1,360,182864,-2226,-16184,-775,2,-26,0
1,361,182869,-3060,-16167,-1013,4,-88,5
1,362,182874,-3171,-16360,-1632,6,-98,12
1,363,182879,-3071,-16283,-1687,-1,-21,-3
1,364,182884,-2585,-16169,-1336,-2,60,-17
1,365,182889,-2055,-16220,-1077,0,67,-11
1,366,182894,-1844,-16215,-1042,3,23,-11
1,367,182899,-2136,-16164,-1162,4,-33,-8
1,368,182904,-2091,-16265,-1691,1,-64,-1
1,369,182909,-1801,-16253,-1887,3,-36,1
1,370,182914,-1810,-16212,-1562,-2,15,-2
1,371,182919,-2394,-16202,-1019,-2,23,-6
1,372,182924,-2891,-16208,-923,3,-25,-6
1,373,182929,-2829,-16256,-1283,4,-60,-2
1,374,182934,-2153,-16256,-1763,1,-39,1
1,375,182939,-1614,-16218,-1571,-3,21,-1
1,376,182944,-1654,-16203,-1074,-5,34,-5
1,377,182949,-2083,-16164,-911,4,-31,2
1,378,182954,-2532,-16228,-1095,10,-110,10
1,379,182959,-2943,-16275,-1098,5,-151,9
1,380,182964,-2772,-16212,-940,2,-163,6
1,381,182969,-2259,-16120,-813,3,-171,12
1,382,182974,-1887,-16095,-732,6,-205,15
1,383,182979,-1969,-16165,-525,6,-285,15
1,384,182984,-2721,-16179,-254,5,-409,16
1,385,182989,-3161,-16125,-601,10,-552,25
1,386,182994,-3385,-16128,-1243,15,-626,37
1,387,182999,-4330,-16169,-1998,25,-610,45
1,388,183004,-4319,-16099,-4081,37,-524,69
1,389,183009,-1593,-17406,-5861,25,-338,56
1,390,183014,-2665,-16383,-3164,-20,-28,-36
1,391,183019,-3828,-15898,-534,1,-96,-20
1,392,183024,-2428,-16497,-2340,46,-425,33
1,393,183029,-2278,-16663,-3136,42,-468,5
1,394,183034,-2173,-16276,-3613,28,-365,-15
1,395,183039,-2558,-16260,-1675,21,-232,-4
1,396,183044,-2611,-16221,-1161,33,-304,3
1,397,183049,-2169,-16278,-1360,56,-461,10
1,398,183054,-1817,-16320,-1841,59,-536,19
1,399,183059,-1981,-16279,-1466,46,-541,18
1,400,183064,-2308,-16190,-914,40,-592,18
1,401,183069,-2471,-16159,-769,44,-703,31
1,402,183074,-2561,-16156,-1029,58,-802,47
1,403,183079,-2368,-16274,-2152,67,-831,58
1,404,183084,-3212,-16408,-1494,58,-771,49
1,405,183089,-3158,-16474,-2001,58,-808,58
1,406,183094,-2915,-16481,-1958,59,-911,71
1,407,183099,-2914,-16327,-1709,59,-1017,72
1,408,183104,-2916,-16321,-1505,67,-1116,83
1,409,183109,-3229,-16176,-484,59,-1152,82
1,410,183114,-3610,-15905,-361,59,-1200,85
1,411,183119,-3753,-16062,11,71,-1239,93
1,412,183124,-3805,-16127,-377,73,-1267,95
1,413,183129,-4034,-16389,-968,73,-1297,107
1,414,183134,-4466,-16191,-1810,72,-1319,86
1,415,183139,-5091,-16326,-2735,82,-1323,84
1,416,183144,-5366,-16537,-3471,86,-1304,77
1,417,183149,-4866,-16744,-2864,76,-1196,63
1,418,183154,-4274,-16349,-1489,70,-1068,33
1,419,183159,-4057,-15717,412,75,-912,-6
1,420,183164,-3648,-15928,-216,90,-897,-21
1,421,183169,-3085,-16243,-1844,100,-814,-28
1,422,183174,-2530,-16498,-2176,85,-607,-40
1,423,183179,-2203,-16611,-1097,82,-480,-63
1,424,183184,-2064,-16418,-1370,78,-498,-73
1,425,183189,-2236,-16568,-1689,86,-553,-57
1,426,183194,-2198,-16601,-2463,83,-527,-54
1,427,183199,-2389,-16459,-2473,77,-430,-68
1,428,183204,-2845,-16548,-1635,80,-329,-72
1,429,183209,-2719,-16640,-1697,88,-331,-65
1,430,183214,-2205,-16873,-1246,87,-365,-60
1,431,183219,-1848,-17310,509,86,-400,-64
1,432,183224,-1657,-17900,1596,109,-498,-63
1,433,183229,-1547,-18376,-435,138,-643,-52
1,434,183234,-1946,-18414,-1797,136,-674,-49
1,435,183239,-2653,-18187,-1126,121,-689,-50
1,436,183244,-2859,-18238,396,123,-790,-36
1,437,183249,-2183,-18483,304,144,-943,-8
1,438,183254,-1438,-18780,-805,157,-997,8
1,439,183259,-1925,-18969,-1089,159,-975,-6
1,440,183264,-2979,-19052,-759,160,-1036,-9
1,441,183269,-3612,-19104,-831,166,-1214,15
1,442,183274,-3161,-19295,-1608,181,-1336,37
1,443,183279,-2681,-19402,-2088,188,-1272,35
1,444,183284,-2706,-19121,-1627,186,-1117,24
1,445,183289,-3165,-18980,-1029,191,-1029,38
1,446,183294,-3672,-19015,-1350,204,-1042,57
1,447,183299,-3362,-18922,-1799,212,-1010,67
1,448,183304,-3219,-19054,-1385,210,-873,79
1,449,183309,-3048,-19004,-216,204,-732,63
1,450,183314,-3117,-18806,455,212,-687,64
1,451,183319,-3174,-18812,118,226,-741,95
1,452,183324,-3103,-18746,26,232,-795,110
1,453,183329,-3049,-18440,458,231,-825,123
1,454,183334,-3066,-18222,861,229,-858,141
1,455,183339,-3137,-17966,711,237,-889,162
1,456,183344,-3263,-17762,56,246,-899,182
1,457,183349,-3246,-17572,-86,250,-876,197
1,458,183354,-3015,-17413,296,246,-847,209
1,459,183359,-2879,-17186,711,250,-822,223
1,460,183364,-2931,-17021,566,256,-790,242
1,461,183369,-3195,-16876,301,262,-737,255
1,462,183374,-3191,-16736,511,264,-678,277
1,463,183379,-2991,-16461,1017,265,-636,297
1,464,183384,-2904,-16206,1421,270,-617,317
1,465,183389,-3022,-16140,1413,276,-614,334
1,466,183394,-2940,-16108,1265,283,-616,354
1,467,183399,-2734,-15915,1287,284,-614,376
1,468,183404,-2656,-15580,1495,289,-614,399
1,469,183409,-2934,-15356,1537,298,-624,420
1,470,183414,-3222,-15196,1351,306,-632,444
1,471,183419,-3072,-15040,1202,310,-627,472
1,472,183424,-2728,-14922,1513,318,-608,492
1,473,183429,-2585,-14862,1858,320,-596,505
1,474,183435,-3318,-14746,1627,335,-631,550
1,475,183441,-3255,-14521,1264,341,-651,562
1,476,183447,-2974,-14481,1570,350,-636,593
1,477,183453,-2579,-14498,1727,357,-626,612
1,478,183459,-2650,-14382,1754,366,-618,628
1,479,183465,-3343,-14294,966,383,-586,658
1,480,183471,-3352,-14300,1036,386,-516,675
1,481,183478,-3182,-14261,1592,387,-439,689
1,482,183484,-3002,-14284,1983,397,-409,702
1,483,183490,-3392,-14391,1948,416,-420,728
1,484,183496,-3619,-14355,1978,419,-421,745
1,485,183502,-3522,-14290,2049,424,-428,760
1,486,183508,-3421,-14247,2215,429,-439,776
1,487,183514,-3485,-14275,2184,436,-454,787
1,488,183520,-3993,-14234,1920,445,-444,804
1,489,183526,-4164,-14262,2041,445,-422,808
1,490,183532,-4145,-14364,2367,448,-407,811
1,491,183538,-4120,-14381,2637,452,-421,816
1,492,183544,-4440,-14347,2847,462,-510,821
1,493,183550,-4616,-14296,2927,461,-580,824
1,494,183556,-4612,-14296,3035,460,-651,827
1,495,183561,-4387,-14368,2892,461,-707,825
1,496,183567,-4284,-14416,2796,465,-730,820
1,497,183573,-4444,-14444,2389,460,-693,799
1,498,183579,-4378,-14377,2222,455,-637,790
1,499,183586,-4180,-14361,2182,450,-552,777
1,500,183592,-4022,-14375,2298,440,-453,760
1,501,183598,-4050,-14399,2499,432,-349,741
1,502,183604,-4225,-14606,2671,418,-183,710
1,503,183610,-4138,-14696,2813,404,-111,695
1,504,183616,-4138,-14834,2924,395,-67,673
1,505,183622,-4409,-14888,3372,383,-60,649
1,506,183628,-4748,-14928,3786,361,-183,622
1,507,183634,-4564,-15023,3657,352,-264,609
1,508,183640,-4616,-15159,3574,341,-335,582
1,509,183646,-4819,-15262,3518,333,-425,558
1,510,183652,-4960,-15378,3274,323,-534,543
1,511,183658,-4652,-15536,2632,303,-666,497
1,512,183664,-4724,-15679,2504,295,-674,470
1,513,183670,-4757,-15761,2152,283,-671,439
1,514,183676,-4653,-15788,1749,275,-642,407
1,515,183682,-4816,-15796,1951,247,-511,338
1,516,183688,-4949,-15813,2107,234,-461,305
1,517,183694,-4879,-15797,2084,224,-412,272
1,518,183700,-4699,-15781,2086,214,-368,242
1,519,183706,-4455,-15694,2458,190,-325,173
1,520,183713,-4795,-15594,2433,177,-325,140
1,521,183719,-5215,-15589,2225,163,-309,111
1,522,183725,-5191,-15571,2079,151,-277,75
1,523,183731,-4877,-15450,2283,136,-246,44
1,524,183737,-4520,-15273,2880,109,-289,-21
1,525,183743,-4597,-15327,2613,99,-338,-47
1,526,183749,-4683,-15367,2138,89,-354,-75
1,527,183755,-4642,-15433,1873,74,-324,-110
1,528,183761,-4806,-15423,2142,45,-241,-179
1,529,183767,-4867,-15370,2203,39,-225,-210
1,530,183773,-4756,-15252,2221,29,-215,-240
1,531,183779,-4705,-15120,2400,12,-211,-270
1,532,183785,-4693,-15058,2662,2,-231,-297
1,533,183791,-4247,-15176,2489,-23,-273,-349
1,534,183797,-4278,-15141,2426,-33,-260,-378
1,535,183803,-4587,-15101,2385,-45,-247,-411
1,536,183809,-4886,-15072,2386,-59,-238,-435
1,537,183815,-4353,-15147,2687,-79,-197,-482
1,538,183821,-3865,-15214,2871,-91,-182,-509
1,539,183827,-3949,-15194,2985,-101,-195,-539
1,540,183833,-4402,-15201,2720,-110,-233,-560
1,541,183839,-4824,-15277,2393,-119,-263,-576
1,542,183845,-4483,-15368,2576,-140,-214,-622
1,543,183851,-4024,-15469,3000,-151,-194,-650
1,544,183857,-3862,-15354,3364,-159,-226,-674
1,545,183863,-4005,-15313,3367,-167,-307,-688
1,546,183869,-4333,-15291,2925,-172,-387,-697
1,547,183875,-3924,-15445,2004,-193,-378,-724
1,548,183881,-3284,-15521,2133,-201,-330,-739
1,549,183887,-3008,-15668,2209,-204,-297,-758
1,550,183893,-3139,-15821,1615,-206,-262,-774
1,551,183899,-3549,-16273,777,-220,-22,-802
1,552,183905,-3361,-16345,1249,-224,124,-821
1,553,183911,-3032,-16249,1825,-228,215,-838
1,554,183917,-2793,-16166,2273,-227,257,-854
1,555,183923,-3183,-16001,2593,-230,273,-870
1,556,183929,-3314,-16019,2579,-231,254,-874
1,557,183935,-3293,-16019,2638,-228,230,-879
1,558,183941,-3505,-15962,2757,-233,206,-885
1,559,183947,-3775,-15954,2910,-236,167,-894
1,560,183953,-3137,-16027,3330,-239,38,-897
1,561,183959,-2725,-16145,3371,-238,-50,-899
1,562,183965,-2729,-16362,3070,-237,-147,-905
1,563,183971,-3046,-16454,2362,-238,-215,-907
1,564,183977,-3241,-16467,1701,-242,-215,-906
1,565,183984,-2526,-16510,1523,-247,-51,-918
1,566,183990,-2266,-16543,1832,-249,57,-927
1,567,183996,-2312,-16483,1842,-247,138,-939
1,568,184002,-2743,-16339,1995,-250,209,-945
1,569,184008,-2565,-16321,2461,-253,280,-946
1,570,184014,-2443,-16324,2763,-252,297,-947
1,571,184020,-2751,-16260,3106,-249,288,-951
1,572,184026,-3224,-16102,3162,-248,237,-951
1,573,184032,-2701,-16088,3245,-248,79,-936
1,574,184038,-2631,-16115,3373,-249,23,-936
1,575,184044,-2652,-16243,3124,-248,-32,-936
1,576,184050,-2694,-16275,2816,-249,-71,-936
1,577,184056,-3032,-16219,2740,-250,-93,-934
1,578,184062,-3035,-16133,3006,-253,-130,-934
1,579,184068,-2624,-16133,2984,-254,-150,-934
1,580,184074,-2328,-16097,3125,-257,-171,-932
1,581,184080,-2021,-16129,3006,-256,-218,-925
1,582,184086,-1857,-16152,1828,-256,-195,-913
1,583,184092,-1877,-16208,1345,-257,-86,-913
1,584,184098,-2017,-16173,1366,-261,68,-916
1,585,184104,-2074,-16092,1741,-261,208,-920
1,586,184110,-1872,-16020,2083,-258,303,-922
1,587,184116,-1461,-15857,3323,-255,355,-912
1,588,184122,-1663,-15735,3754,-250,289,-905
1,589,184128,-1884,-15712,3808,-245,176,-897
1,590,184134,-1776,-15684,3431,-244,50,-878
1,591,184140,-1416,-15786,2991,-241,-118,-857
1,592,184146,-1550,-15799,2591,-239,-154,-854
1,593,184152,-1809,-15895,2141,-238,-155,-847
1,594,184158,-1826,-15964,1747,-236,-122,-840
1,595,184164,-1452,-15991,1772,-241,-46,-837
1,596,184171,-1082,-16156,2463,-239,85,-833
1,597,184177,-1403,-16199,2375,-234,109,-830
1,598,184183,-1428,-16233,2228,-231,123,-824
1,599,184189,-1102,-16229,2405,-232,135,-815
1,600,184195,10877,-21245,15000,-427,-132,-874
1,601,184200,-25575,-11047,32767,-709,-1144,-1333
1,602,184200,-25575,-11047,32767,-709,-1144,-1333
1,603,184201,-25575,-11047,32767,-709,-1144,-1333
1,604,184202,-25575,-11047,32767,-709,-1144,-1333
1,605,184202,-25575,-11047,32767,-709,-1144,-1333
1,606,184203,-25575,-11047,32767,-709,-1144,-1333
1,607,184204,-25575,-11047,32767,-709,-1144,-1333
1,608,184205,-32768,-7526,7375,228,-10803,630
1,609,184206,-32768,-7526,7375,228,-10803,630
1,610,184206,-32768,-7526,7375,228,-10803,630
1,611,184207,-32768,-7526,7375,228,-10803,630
1,612,184208,-32768,-7526,7375,228,-10803,630
1,613,184209,-32768,-7526,7375,228,-10803,630
1,614,184209,-32768,-7526,7375,228,-10803,630
1,615,184210,-6088,-24282,-32768,408,-16644,2807
1,616,184211,-6088,-24282,-32768,408,-16644,2807
1,617,184212,-6088,-24282,-32768,408,-16644,2807
1,618,184212,-6088,-24282,-32768,408,-16644,2807
1,619,184213,-6088,-24282,-32768,408,-16644,2807
1,620,184214,-6088,-24282,-32768,408,-16644,2807
1,621,184214,14332,-19307,-32768,-606,-7970,785
1,622,184215,14332,-19307,-32768,-606,-7970,785
1,623,184216,14332,-19307,-32768,-606,-7970,785
1,624,184217,14332,-19307,-32768,-606,-7970,785
1,625,184217,14332,-19307,-32768,-606,-7970,785
1,626,184218,14332,-19307,-32768,-606,-7970,785
1,627,184219,14332,-19307,-32768,-606,-7970,785
1,628,184220,4408,-15985,-23143,-760,2377,-685
1,629,184220,4408,-15985,-23143,-760,2377,-685
1,630,184221,4408,-15985,-23143,-760,2377,-685
1,631,184222,4408,-15985,-23143,-760,2377,-685
1,632,184224,4408,-15985,-23143,-760,2377,-685
1,633,184229,-12664,-16169,12630,-421,6451,-547
1,634,184234,-16502,-14798,13244,-225,5857,-206
1,635,184239,7554,-16563,-23692,-14,3982,156
1,636,184244,18379,-19699,-5067,-404,5889,48
1,637,184249,-652,-10823,32767,-760,7087,-901
1,638,184254,-18008,-6289,31394,-288,2377,-357
1,639,184259,10650,-20465,-27956,-190,-1059,730
1,640,184264,826,-12293,9447,-589,2715,-392
1,641,184269,-5194,-13929,32767,-480,1542,-136
1,642,184274,-5761,-14280,16729,-54,-1757,307
1,643,184279,1489,-17531,-18882,110,-3139,678
1,644,184284,418,-18728,-16408,-213,-970,426
1,645,184289,-2507,-15013,7466,-423,639,-36
1,646,184294,-4345,-13817,18516,-332,65,14
1,647,184299,-1060,-17127,487,-81,-1310,359
1,648,184304,1180,-18790,-13508,-84,-823,335
1,649,184309,-1145,-16677,-3800,-262,700,51
1,650,184314,-3303,-14898,12055,-303,1060,-37
1,651,184319,-2427,-15218,12159,-174,67,105
1,652,184324,1113,-17223,-1719,-59,-781,253
1,653,184329,1054,-17616,-5562,-147,-224,157
1,654,184334,-1965,-16047,4123,-249,476,5
1,655,184339,-2863,-15202,10011,-211,106,40
1,656,184344,-551,-16150,3143,-91,-671,167
1,657,184349,1413,-17399,-4906,-64,-613,182
1,658,184354,-93,-17022,-2125,-145,164,61
1,659,184359,-2245,-15919,4928,-182,464,-5
1,660,184364,-1979,-15828,5055,-123,46,63
1,661,184369,158,-16882,-1066,-58,-266,128
1,662,184374,618,-17330,-2654,-79,108,70
1,663,184379,-1097,-16704,2285,-118,564,-10
1,664,184384,-2293,-16263,5666,-93,426,-5
1,665,184389,-1370,-16534,2804,-35,-54,60
1,666,184394,230,-17137,-848,-17,-204,78
1,667,184399,100,-17086,325,-49,52,22
1,668,184404,-1254,-16744,3678,-55,163,-7
1,669,184409,-1799,-16709,3328,-16,-86,17
1,670,184414,-1084,-16985,-98,17,-284,49
1,671,184419,-374,-17122,-1132,13,-128,34
1,672,184424,-584,-16950,1392,-7,136,-7
1,673,184429,-1118,-16700,3175,3,146,-18
1,674,184434,-951,-16801,1843,39,-19,10
1,675,184439,-411,-16991,-41,51,-49,22
1,676,184444,-345,-16932,567,38,108,1
1,677,184449,-649,-16971,2397,37,201,-14
1,678,184454,-789,-16997,2538,56,119,-7
1,679,184459,-616,-17094,1099,78,22,7
1,680,184464,-522,-17088,514,80,52,2
1,681,184469,-631,-16899,1371,74,131,-12
1,682,184474,-733,-16894,2148,80,115,-10
1,683,184479,-682,-17017,1730,97,40,3
1,684,184484,-703,-17062,1005,110,16,5
1,685,184489,-1004,-16896,1069,111,53,-7
1,686,184494,-1281,-16668,1951,110,60,-9
1,687,184499,-986,-16620,2226,118,-22,2
1,688,184504,-547,-16656,2026,126,-100,10
1,689,184509,-333,-16739,1786,133,-155,11
1,690,184514,-511,-16658,1733,135,-186,7
1,691,184519,-719,-16711,1481,139,-229,11
1,692,184524,-708,-16756,1182,146,-250,17
1,693,184529,-531,-16782,757,149,-216,16
1,694,184534,-402,-16800,696,150,-133,10
1,695,184539,-494,-16772,875,152,-59,4
1,696,184544,-696,-16697,1063,156,0,2
1,697,184549,-766,-16677,1203,160,49,5
1,698,184554,-710,-16664,1370,161,94,4
1,699,184559,-565,-16628,1600,163,126,3
1,700,184564,-469,-16655,1865,161,128,3
1,701,184569,-538,-16695,2000,164,98,6
1,702,184574,-669,-16653,1978,167,57,10
1,703,184579,-733,-16563,1811,169,29,14
1,704,184584,-775,-16578,1658,169,19,18
1,705,184589,-869,-16536,1654,169,20,20
1,706,184594,-1050,-16553,1793,167,22,18
1,707,184599,-1120,-16536,1820,169,14,16
1,708,184604,-1238,-16489,1897,168,5,12
1,709,184609,-1161,-16444,2035,166,3,15
1,710,184614,-1058,-16392,2119,164,-11,12
1,711,184619,-1014,-16315,2199,160,-38,13
1,712,184624,-986,-16371,1930,159,-103,16
1,713,184629,-1031,-16422,1907,155,-107,16
1,714,184634,-1045,-16332,1808,153,-91,14
1,715,184639,-1036,-16284,1774,151,-73,11
1,716,184644,-914,-16239,1776,148,-63,12
1,717,184649,-778,-16225,1796,145,-61,11
1,718,184654,-749,-16227,1849,141,-65,11
1,719,184659,-727,-16252,1807,139,-66,12
1,720,184664,-739,-16307,1723,137,-63,11
1,721,184669,-720,-16339,1549,137,-49,13
1,722,184674,-627,-16368,1628,132,-34,16
1,723,184679,-564,-16302,1711,130,-30,14
1,724,184684,-600,-16282,1713,127,-30,16
1,725,184689,-616,-16262,1707,126,-25,20
1,726,184694,-671,-16246,1646,120,-11,19
1,727,184699,-635,-16225,1710,116,3,18
1,728,184704,-608,-16264,1766,115,9,22
1,729,184709,-667,-16318,1748,111,14,22
1,730,184714,-828,-16359,1687,109,15,21
1,731,184719,-958,-16353,1695,107,7,23
1,732,184724,-936,-16346,1795,104,-7,25
1,733,184729,-837,-16413,1849,103,-18,28
1,734,184734,-772,-16421,1924,102,-37,27
1,735,184739,-771,-16408,2022,98,-63,28
1,736,184744,-841,-16435,1925,97,-89,31
1,737,184749,-861,-16388,1856,94,-110,34
1,738,184754,-855,-16401,1785,91,-118,36
1,739,184759,-846,-16401,1788,87,-114,35
1,740,184764,-871,-16425,1735,85,-105,36
1,741,184769,-915,-16399,1591,84,-92,35
1,742,184774,-865,-16413,1524,81,-70,33
1,743,184779,-824,-16364,1690,74,-49,34
1,744,184784,-741,-16371,1849,73,-38,37
1,745,184789,-678,-16363,1814,72,-31,36
1,746,184794,-654,-16304,1699,67,-19,37
1,747,184799,-762,-16253,1671,64,3,37
1,748,184804,-870,-16228,1703,60,16,37
1,749,184809,-831,-16182,1727,55,22,40
1,750,184814,-750,-16194,1739,55,30,42
1,751,184819,-715,-16192,1746,52,41,41
1,752,184824,-755,-16187,1866,52,50,38
1,753,184829,-861,-16175,1917,49,52,44
1,754,184834,-934,-16202,1852,42,53,47
1,755,184839,-950,-16190,1857,39,58,46
1,756,184844,-956,-16194,1943,37,59,46
1,757,184849,-909,-16198,2099,36,55,51
1,758,184854,-953,-16204,2073,37,46,48
1,759,184859,-969,-16212,2000,33,25,50
1,760,184864,-947,-16200,1958,27,8,54
1,761,184869,-985,-16186,1900,25,-6,54
1,762,184874,-1042,-16176,1908,25,-22,55
1,763,184879,-1007,-16158,1835,25,-33,58
1,764,184884,-954,-16149,1791,25,-38,58
1,765,184889,-941,-16147,1854,19,-33,58
1,766,184894,-879,-16146,1931,18,-38,57
1,767,184899,-899,-16144,2078,18,-48,64
1,768,184904,-904,-16126,1780,18,-57,61
1,769,184909,-913,-16113,1773,13,-50,61
1,770,184914,-943,-16085,1840,11,-40,63
1,771,184919,-1000,-16080,2073,8,-30,64
1,772,184924,-905,-16152,1836,8,-33,66
1,773,184929,-891,-16181,1779,7,-8,63
1,774,184934,-931,-16197,1735,4,12,64
1,775,184939,-950,-16171,2003,0,31,63
1,776,184944,-989,-16154,1984,1,27,65
1,777,184949,-1022,-16174,1847,1,30,66
1,778,184954,-1052,-16197,1820,0,39,67
1,779,184959,-1100,-16228,1978,-5,52,63
1,780,184964,-1106,-16176,2086,-8,52,62
1,781,184969,-1088,-16169,2089,-6,37,64
1,782,184974,-1147,-16193,2096,-6,18,58
1,783,184979,-1177,-16267,2152,-9,-6,60
1,784,184984,-1236,-16249,2128,-9,-35,62
1,785,184989,-1169,-16216,2068,-10,-82,65
1,786,184994,-1101,-16229,2045,-10,-98,65
1,787,184999,-1072,-16189,2076,-12,-112,63
1,788,185004,-1091,-16163,2079,-16,-125,63
1,789,185009,-1091,-16167,1927,-14,-132,64
1,790,185014,-1049,-16196,1826,-17,-120,63
1,791,185019,-1020,-16222,1821,-19,-98,61
1,792,185024,-947,-16190,1917,-19,-75,60
1,793,185029,-984,-16190,1889,-17,-58,59
1,794,185034,-1012,-16177,1828,-19,-40,59
1,795,185039,-972,-16201,1818,-19,-17,60
1,796,185044,-907,-16217,1802,-22,8,60
1,797,185049,-890,-16203,1967,-24,31,61
1,798,185054,-913,-16164,1976,-25,40,58
1,799,185059,-1030,-16163,1938,-21,39,58
1,800,185064,-1061,-16174,1924,-24,37,61
1,801,185069,-1021,-16182,1959,-25,35,59
1,802,185074,-1005,-16177,2039,-26,29,57
1,803,185079,-1013,-16242,2096,-25,11,57
1,804,185084,-997,-16313,2087,-26,-11,57
1,805,185089,-1024,-16314,1977,-27,-30,59
1,806,185094,-1056,-16305,2016,-28,-43,61
1,807,185099,-1049,-16343,1970,-26,-56,62
1,808,185104,-1015,-16352,1991,-26,-65,64
1,809,185109,-979,-16350,1962,-28,-65,62
1,810,185114,-1016,-16390,1875,-25,-65,63
1,811,185119,-1036,-16375,1806,-26,-58,61
1,812,185125,-1027,-16393,1815,-27,-46,60
1,813,185131,-1007,-16400,1845,-29,-34,61
1,814,185137,-892,-16392,1908,-28,-13,59
1,815,185143,-978,-16389,1866,-28,-7,57
1,816,185149,-1009,-16379,1858,-28,-8,58
1,817,185155,-994,-16376,1923,-30,-12,61
1,818,185161,-972,-16386,1926,-28,-12,62
1,819,185167,-1143,-16363,1880,-31,-1,56
1,820,185173,-1133,-16366,1884,-34,-1,59
1,821,185179,-1099,-16369,1909,-34,-5,61
1,822,185185,-1141,-16369,1956,-34,-10,62
1,823,185191,-1282,-16280,2003,-35,-4,56
1,824,185197,-1375,-16233,2008,-37,-9,56
1,825,185203,-1406,-16264,2103,-35,-14,55
1,826,185209,-1442,-16307,2201,-37,-20,52
1,827,185215,-1430,-16321,2275,-37,-29,50
1,828,185221,-1433,-16281,2267,-40,-63,45
1,829,185227,-1518,-16297,2223,-37,-83,45
1,830,185233,-1457,-16302,2190,-39,-104,48
1,831,185239,-1325,-16282,2117,-43,-119,45
1,832,185245,-1249,-16267,2132,-45,-130,44
1,833,185251,-1187,-16258,1956,-43,-154,39
1,834,185257,-1150,-16257,1791,-45,-154,41
1,835,185263,-1126,-16262,1677,-45,-141,42
1,836,185269,-1141,-16255,1658,-45,-119,40
1,837,185275,-1285,-16295,1639,-46,-84,35
1,838,185281,-1187,-16361,1653,-45,-61,36
1,839,185287,-1127,-16366,1851,-48,-46,33
1,840,185293,-1053,-16364,2033,-44,-48,29
1,841,185300,-1123,-16324,1939,-41,-85,32
1,842,185306,-1143,-16366,1758,-40,-91,34
1,843,185312,-1160,-16376,1754,-42,-90,35
1,844,185318,-1184,-16371,1822,-41,-87,33
1,845,185324,-1186,-16369,1765,-37,-86,32
1,846,185330,-1202,-16357,1757,-35,-71,27
1,847,185336,-1146,-16330,1894,-38,-69,27
1,848,185342,-1002,-16323,1952,-39,-73,27
1,849,185348,-933,-16341,1925,-35,-87,29
1,850,185354,-1137,-16379,1707,-29,-97,30
1,851,185360,-1143,-16397,1644,-29,-91,29
1,852,185366,-1121,-16400,1543,-29,-79,27
1,853,185372,-1058,-16407,1556,-29,-59,26
1,854,185378,-1017,-16463,1573,-29,-47,29
1,855,185384,-1019,-16496,1511,-26,-20,27
1,856,185390,-1018,-16494,1518,-26,-3,25
1,857,185396,-1045,-16506,1591,-22,8,25
1,858,185402,-1068,-16552,1608,-20,21,22
1,859,185408,-1115,-16591,1738,-16,27,22
1,860,185414,-1171,-16514,1764,-13,24,22
1,861,185420,-1210,-16538,1836,-15,17,24
1,862,185426,-1235,-16537,1838,-14,3,24
1,863,185432,-1193,-16531,1834,-11,-11,23
1,864,185438,-1245,-16490,1835,-9,-28,24
1,865,185447,-1246,-16500,1821,-7,-32,22
1,866,185453,-1367,-16443,1727,-6,-26,25
1,867,185459,-1377,-16431,1724,-9,-17,18
1,868,185465,-1360,-16400,1758,-6,-9,19
1,869,185471,-1320,-16387,1740,-6,-4,18
1,870,185477,-1286,-16445,1849,-3,6,14
1,871,185483,-1289,-16436,1877,-3,4,14
1,872,185489,-1299,-16436,1760,-3,8,14
1,873,185500,-1360,-16446,1772,-2,26,9
1,874,185507,-1401,-16468,1825,-3,35,5
1,875,185513,-1369,-16446,1868,-1,41,7
1,876,185519,-1422,-16494,1830,-3,48,2
1,877,185525,-1435,-16543,1845,1,49,3
1,878,185531,-1471,-16579,1870,-1,51,5
1,879,185537,-1567,-16487,1942,2,32,-5
1,880,185542,-1529,-16501,2040,4,14,0
1,881,185548,-1480,-16492,2081,4,-8,-2
1,882,185554,-1482,-16437,2127,4,-31,-4
1,883,185560,-1421,-16423,2091,6,-57,-1
1,884,185566,-1399,-16447,1844,3,-79,-5
1,885,185572,-1431,-16470,1758,4,-78,-6
1,886,185579,-1426,-16453,1710,5,-67,-7
1,887,185585,-1429,-16485,1668,3,-49,-8
1,888,185591,-1323,-16455,1721,6,-6,-11
1,889,185597,-1269,-16405,1772,4,1,-11
1,890,185603,-1252,-16422,1825,6,6,-13
1,891,185609,-1257,-16456,1773,6,9,-12
1,892,185615,-1336,-16457,1720,5,16,-12
1,893,185621,-1401,-16442,1748,6,29,-11
1,894,185627,-1332,-16413,1809,8,31,-14
1,895,185633,-1295,-16465,1861,10,28,-16
1,896,185639,-1321,-16498,1855,11,17,-14
1,897,185645,-1349,-16416,1803,10,4,-13
1,898,185651,-1374,-16417,1793,14,8,-14
1,899,185657,-1419,-16386,1765,11,14,-14
1,900,185663,-1440,-16425,1749,14,18,-13
1,901,185669,-1475,-16493,1723,14,25,-14
1,902,185675,-1388,-16459,1900,13,32,-16
1,903,185681,-1365,-16501,1995,13,25,-15
1,904,185687,-1358,-16520,1891,15,12,-17
1,905,185693,-1365,-16470,1820,15,-3,-16
1,906,185699,-1345,-16471,1735,16,-15,-14
1,907,185705,-1342,-16445,1720,17,-14,-16
1,908,185711,-1329,-16436,1657,17,-7,-15
1,909,185717,-1302,-16438,1578,16,5,-15
1,910,185724,-1301,-16428,1639,16,17,-17
1,911,185730,-1252,-16384,1738,17,28,-15
1,912,185736,-1210,-16366,1758,20,29,-17
1,913,185742,-1197,-16315,1762,21,31,-16
1,914,185748,-1217,-16307,1877,21,29,-13
1,915,185754,-1238,-16317,1820,23,26,-14
1,916,185760,-1291,-16311,1730,24,39,-14
1,917,185766,-1318,-16274,1724,21,57,-15
1,918,185772,-1353,-16255,1773,22,67,-13
1,919,185778,-1389,-16257,1916,22,68,-14
1,920,185784,-1271,-16244,1918,21,58,-10
1,921,185790,-1363,-16242,1920,21,60,-12
1,922,185796,-1432,-16203,1957,23,55,-12
1,923,185802,-1431,-16219,1959,22,44,-13
1,924,185808,-1291,-16233,2021,21,26,-11
1,925,185814,-1325,-16279,1938,21,22,-9
1,926,185820,-1384,-16262,1941,24,20,-10
1,927,185826,-1368,-16227,1915,23,22,-10
1,928,185832,-1337,-16256,1910,22,28,-11
1,929,185838,-1234,-16291,1976,21,38,-10
1,930,185844,-1230,-16292,1850,20,45,-10
1,931,185850,-1268,-16273,1895,18,55,-8
1,932,185856,-1257,-16281,1819,19,62,-7
1,933,185862,-1221,-16307,1763,19,89,-9
1,934,185868,-1210,-16321,1738,16,105,-8
1,935,185874,-1217,-16263,1769,14,120,-5
1,936,185880,-1264,-16299,1808,17,126,-4
1,937,185886,-1285,-16294,1803,16,128,-5
1,938,185892,-1320,-16293,1943,18,126,-4
1,939,185898,-1362,-16318,2005,16,119,-2
1,940,185904,-1379,-16281,2035,20,103,0
1,941,185910,-1372,-16255,2136,18,85,0
1,942,185916,-1504,-16264,2251,18,20,3
1,943,185922,-1519,-16304,2182,19,-16,3
1,944,185928,-1541,-16298,2100,16,-46,4
1,945,185934,-1451,-16336,1993,17,-72,9
1,946,185940,-1420,-16355,1929,19,-93,5
1,947,185946,-1407,-16333,1689,20,-106,10
1,948,185953,-1398,-16352,1582,21,-96,8
1,949,185959,-1388,-16329,1580,20,-74,4
1,950,185965,-1295,-16314,1608,18,-51,5
1,951,185971,-1214,-16284,1702,18,3,4
1,952,185977,-1189,-16295,1817,18,18,5
1,953,185983,-1209,-16286,1833,20,25,6
1,954,185989,-1178,-16298,1862,20,27,5
1,955,185995,-1268,-16304,1892,21,34,7
1,956,186001,-1312,-16315,1936,21,32,7
1,957,186007,-1332,-16327,1868,20,27,10
1,958,186013,-1315,-16330,1812,21,25,11
1,959,186019,-1295,-16322,1788,23,26,11
1,960,186025,-1387,-16323,1792,19,20,10
1,961,186031,-1389,-16346,1788,23,20,11
1,962,186037,-1445,-16353,1815,24,29,11
1,963,186043,-1462,-16332,1826,20,31,13
1,964,186049,-811,-16553,1771,23,24,23
1,965,186055,-1328,-16107,1968,20,54,-1
1,966,186061,-1538,-16467,2319,19,49,4
1,967,186067,-2096,-15992,2185,23,-11,16
1,968,186073,-1117,-16345,1540,27,-35,25
1,969,186079,-1268,-16331,2164,15,29,13
1,970,186085,-1826,-16184,2333,14,25,9
1,971,186091,-1510,-16240,1630,22,3,15
1,972,186097,-1563,-16168,1767,15,37,14
1,973,186104,-1438,-16180,2406,14,54,8
1,974,186110,-1533,-16233,2092,16,10,12
1,975,186116,-1617,-16265,1917,14,3,11
1,976,186122,-1572,-16167,1830,14,13,10
1,977,186128,-1635,-16228,2102,11,25,10
1,978,186134,-1467,-16251,2072,7,-4,8
1,979,186140,-1514,-16209,1951,8,-10,6
1,980,186146,-1596,-16232,1926,3,-8,5
1,981,186152,-1620,-16262,1950,7,-9,8
1,982,186158,-1531,-16347,1809,8,-15,7
1,983,186164,-1576,-16432,1788,7,-6,2
1,984,186170,-1661,-16439,1865,6,-4,-1
1,985,186176,-1703,-16428,1905,5,-14,2
1,986,186182,-1642,-16478,1874,4,-19,2
1,987,186188,-1519,-16501,1842,4,-11,-1
1,988,186194,-1569,-16455,1941,2,-13,-4
1,989,186200,-1550,-16428,1948,3,-25,-5
1,990,176014,-2318,-16222,-1272,1,-9,-3
1,991,176019,-2299,-16207,-1272,2,-10,-2
1,992,176024,-2286,-16192,-1291,2,-8,-2
1,993,176029,-2327,-16222,-1281,1,-5,-5
1,994,176034,-2299,-16208,-1303,2,-8,-7
1,995,176039,-2330,-16204,-1275,1,-9,-4
1,996,176044,-2328,-16258,-1298,1,-7,-6
1,997,176049,-2292,-16245,-1316,2,-8,-3
1,998,176054,-2302,-16233,-1333,3,-11,-1
1,999,176059,-2322,-16245,-1324,3,-8,-5
2,0,188020,-1658,-16312,1717,5,-26,-1
2,1,188034,-1589,-16262,1697,7,-21,-3
2,2,188048,-1536,-16239,1681,5,-16,-2
2,3,188062,-1592,-16218,1616,9,-7,-3
2,4,188076,-1484,-16284,1669,5,-4,-1
2,5,188090,-1559,-16228,1627,6,3,-1
2,6,188104,-1577,-16312,1612,5,15,-2
2,7,188112,-1574,-16288,1690,7,7,-1
2,8,188124,-1555,-16262,1719,7,-6,3
2,9,188137,-1570,-16301,1679,6,-20,7
2,10,188151,-1599,-16261,1687,4,-9,6
2,11,188165,-1558,-16333,1655,8,0,5
2,12,188179,-1656,-16321,1691,4,12,6
2,13,188193,-1658,-16306,1789,3,12,8
2,14,188207,-1643,-16319,1784,3,-3,6
2,15,188221,-1699,-16327,1722,2,-9,11
2,16,188235,-1657,-16358,1655,-1,2,8
2,17,188249,-1610,-16364,1721,1,0,10
2,18,188263,-1618,-16366,1579,-3,11,9
2,19,188277,-1653,-16364,1647,-5,27,11
2,20,188291,-1641,-16355,1662,-6,43,9
2,21,188305,-1745,-16351,1788,-9,16,8
2,22,188318,-1608,-16327,1807,-4,-15,12
2,23,188332,-1669,-16288,1692,-7,-50,14
2,24,188346,-1740,-16359,1559,-9,-30,10
2,25,188360,-1675,-16366,1583,-8,-2,8
2,26,188374,-1709,-16380,1657,-11,23,7
2,27,188388,-1667,-16335,1721,-11,16,3
2,28,188402,-1695,-16312,1639,-10,1,5
2,29,188416,-1667,-16300,1662,-14,2,7
2,30,188430,-1715,-16344,1641,-9,4,6
2,31,188444,-1648,-16385,1824,-14,-28,5
2,32,188458,-1678,-16400,1618,-9,-63,6
2,33,188472,-1623,-16365,1437,-6,-55,7
2,34,188486,-1609,-16372,1455,-6,-17,5
2,35,188500,-1562,-16293,1577,-6,25,3
2,36,188514,-1573,-16300,1695,-5,25,0
2,37,188528,-1587,-16333,1738,-4,-5,6
2,38,188541,-1658,-16344,1682,-7,1,8
2,39,188555,-1710,-16309,1584,-3,19,4
2,40,188569,-1675,-16298,1743,-5,8,6
2,41,188583,-1685,-16358,1587,-3,-18,5
2,42,188600,-1679,-16390,1585,0,-11,3
2,43,188614,-1701,-16413,1613,-1,-6,4
2,44,188628,-1709,-16422,1619,0,8,2
2,45,188642,-1696,-16354,1694,3,8,1
2,46,188656,-1666,-16383,1661,4,-4,2
2,47,188670,-1718,-16411,1617,3,-3,1
2,48,188683,-1701,-16353,1673,4,3,-1
2,49,188697,-1693,-16309,1653,6,2,-2
2,50,188711,-1661,-16329,1660,7,3,-1
2,51,188725,-1658,-16305,1608,7,0,2
2,52,188739,-1709,-16317,1656,7,12,-2
2,53,188753,-1764,-16394,1647,11,27,-2
2,54,188767,-1656,-16328,1755,8,18,-6
2,55,188781,-1699,-16263,1727,10,-13,-3
2,56,188795,-1736,-16248,1585,12,-8,-2
2,57,188809,-1603,-16245,1672,11,4,-6
2,58,188814,-1637,-16256,1650,11,5,-6
2,59,188829,-1676,-16250,1591,13,4,-6
2,60,188843,-1660,-16317,1561,15,9,-5
2,61,188857,-1610,-16325,1578,17,21,-7
2,62,188871,-1640,-16311,1690,18,14,-4
2,63,188885,-1681,-16267,1714,18,16,-5
2,64,188899,-1715,-16219,1688,17,10,-5
2,65,188913,-1765,-16227,1664,15,20,-6
2,66,188927,-1732,-16194,1665,11,21,-8
2,67,188940,-1735,-16192,1691,14,13,-6
2,68,188954,-1750,-16216,1684,9,19,-9
2,69,188968,-1776,-16227,1687,8,30,-9
2,70,188982,-1805,-16317,1730,7,24,-11
2,71,188996,-1881,-16408,1656,3,-2,-12
2,72,189010,-1807,-16422,1622,1,-14,-10
2,73,189024,-1731,-16425,1606,2,-18,-11
2,74,189038,-1730,-16405,1562,1,-8,-11
2,75,189052,-1655,-16387,1687,0,-3,-12
2,76,189066,-1665,-16471,1591,-1,-3,-7
2,77,189080,-1763,-16499,1586,-4,9,-6
2,78,189085,-1725,-16479,1690,-1,6,-5
2,79,189100,-1704,-16434,1726,-2,5,-6
2,80,189112,-1570,-16359,1663,-3,-11,-2
2,81,189127,-1565,-16403,1636,-4,-16,-2
2,82,189141,-1547,-16404,1641,-5,-10,1
2,83,189155,-1588,-16379,1684,-5,2,2
2,84,189169,-1546,-16323,1684,-8,5,3
2,85,189183,-1643,-16376,1600,-5,20,4
2,86,189197,-1695,-16328,1628,-6,47,5
2,87,189211,-1744,-16315,1796,-7,41,3
2,88,189225,-1762,-16285,1778,-5,22,4
2,89,189239,-1625,-16265,1769,-8,-27,7
2,90,189245,-1708,-16304,1688,-7,-39,9
2,91,189250,-1810,-16298,1606,-5,-43,7
2,92,189256,-1819,-16280,1575,-6,-37,0
2,93,189262,-1737,-16258,1576,-5,-32,-1
2,94,189269,-1683,-16297,1585,-4,-32,1
2,95,189275,-1685,-16313,1663,-5,-32,2
2,96,189281,-1741,-16244,1569,1,-27,0
2,97,189287,-1704,-16296,1520,1,-16,1
2,98,189293,-1658,-16281,1535,1,-5,-1
2,99,189299,-1694,-16263,1616,1,5,0
2,100,189305,-1645,-16253,1647,0,5,1
2,101,189311,-1631,-16300,1627,2,11,0
2,102,189317,-1616,-16281,1657,4,18,3
2,103,189323,-1686,-16324,1695,2,19,-3
2,104,189329,-1783,-16302,1713,2,17,-1
2,105,189335,-1769,-16348,1659,2,18,-1
2,106,189341,-1804,-16353,1634,4,21,-2
2,107,189347,-1776,-16358,1699,4,19,-3
2,108,189353,-1741,-16328,1771,5,14,-2
2,109,189359,-1761,-16311,1781,5,1,-1
2,110,189365,-1679,-16344,1768,4,-22,-2
2,111,189371,-1663,-16415,1727,3,-29,-1
2,112,189377,-1703,-16417,1678,6,-33,-3
2,113,189383,-1759,-16439,1580,6,-32,-1
2,114,189389,-1786,-16428,1520,6,-26,-2
2,115,189395,-1757,-16431,1562,7,-15,-3
2,116,189401,-1725,-16463,1545,9,0,-4
2,117,189407,-1749,-16480,1531,9,15,-8
2,118,189413,-1788,-16428,1587,10,23,-8
2,119,189419,-1702,-16401,1695,12,28,-9
2,120,189425,-1777,-16409,1705,13,29,-9
2,121,189431,-1764,-16380,1698,11,27,-6
2,122,189437,-1762,-16365,1733,12,25,-8
2,123,189443,-1749,-16399,1795,13,6,-9
2,124,189449,-1808,-16424,1756,12,0,-6
2,125,189455,-1822,-16389,1700,11,0,-7
2,126,189461,-1823,-16380,1692,13,5,-8
2,127,189467,-1857,-16351,1722,10,7,-10
2,128,189473,-1830,-16301,1716,10,-1,-11
2,129,189479,-1730,-16289,1729,12,-3,-10
2,130,189485,-1735,-16312,1753,10,-5,-11
2,131,189491,-1754,-16292,1726,14,-7,-14
2,132,189497,-1786,-16277,1575,10,-9,-13
2,133,189503,-1732,-16271,1565,11,1,-12
2,134,189509,-1698,-16269,1637,10,10,-15
2,135,189516,-1662,-16257,1650,8,19,-16
2,136,189522,-1657,-16267,1612,10,23,-15
2,137,189528,-1662,-16313,1616,9,39,-14
2,138,189534,-1616,-16335,1696,12,40,-12
2,139,189540,-1601,-16332,1663,12,38,-11
2,140,189546,-1577,-16297,1687,12,37,-11
2,141,189552,-1636,-16349,1621,12,24,-12
2,142,189558,-1679,-16385,1594,14,18,-9
2,143,189564,-1671,-16402,1519,14,18,-8
2,144,189570,-1736,-16397,1510,14,22,-8
2,145,189576,-1790,-16362,1573,15,27,-11
2,146,189582,-1686,-16352,1589,16,28,-8
2,147,189588,-1714,-16372,1595,18,29,-8
2,148,189594,-1741,-16335,1698,15,23,-10
2,149,189600,-1761,-16325,1750,14,15,-11
2,150,189609,-1772,-16308,1638,18,1,-7
2,151,189615,-1739,-16325,1583,17,-5,-9
2,152,189621,-1793,-16286,1654,13,-8,-6
2,153,189632,-1699,-16260,1633,19,-5,-6
2,154,189638,-1715,-16256,1592,19,6,-6
2,155,189644,-1706,-16210,1635,15,13,-9
2,156,189650,-1723,-16238,1660,15,13,-8
2,157,189656,-1720,-16231,1642,14,16,-8
2,158,189662,-1695,-16208,1627,14,22,-9
2,159,189668,-1718,-16192,1674,15,22,-10
2,160,189674,-1744,-16168,1786,17,17,-6
2,161,189680,-1766,-16271,1687,15,16,-8
2,162,189686,-1754,-16280,1646,15,17,-5
2,163,189692,-1798,-16251,1714,12,13,-7
2,164,189698,-1802,-16277,1723,14,6,-7
2,165,189704,-1771,-16272,1722,15,-4,-7
2,166,189710,-1773,-16258,1750,13,-19,-4
2,167,189716,-1783,-16271,1741,13,-25,-6
2,168,189722,-1809,-16273,1686,16,-27,-6
2,169,189728,-1794,-16290,1667,15,-31,-4
2,170,189734,-1793,-16281,1634,14,-21,-8
2,171,189740,-1807,-16294,1649,13,-21,-7
2,172,189746,-1778,-16282,1652,12,-16,-7
2,173,189753,-1710,-16269,1645,13,-10,-9
2,174,189759,-1723,-16294,1643,11,0,-7
2,175,189765,-1709,-16298,1672,8,1,-6
2,176,189771,-1723,-16276,1604,9,5,-7
2,177,189777,-1723,-16281,1601,12,10,-6
2,178,189783,-1749,-16289,1635,8,14,-9
2,179,189789,-1775,-16275,1729,11,11,-8
2,180,189795,-1694,-16245,1747,10,8,-6
2,181,189801,-1661,-16215,1794,8,5,-2
2,182,189807,-1682,-16235,1776,6,3,-5
2,183,189813,-1854,-16311,1710,7,-1,-3
2,184,189819,-1880,-16292,1728,8,-3,-4
2,185,189825,-1833,-16240,1764,5,-8,-5
2,186,189831,-1783,-16275,1808,5,-11,-5
2,187,189837,-1794,-16260,1859,5,-22,-2
2,188,189843,-1810,-16292,1748,5,-43,-4
2,189,189849,-1783,-16284,1634,6,-44,-3
2,190,189855,-1808,-16329,1575,3,-38,-4
2,191,189861,-1793,-16304,1571,5,-30,-2
2,192,189867,-1735,-16334,1610,6,-17,-5
2,193,189873,-1692,-16316,1606,4,-11,-5
2,194,189879,-1664,-16289,1623,2,-6,-4
2,195,189885,-1678,-16300,1619,6,-4,-5
2,196,189891,-1718,-16328,1630,5,-7,-4
2,197,189898,-1674,-16304,1667,2,-3,-3
2,198,189904,-1646,-16329,1690,4,1,-5
2,199,189910,-1692,-16330,1682,3,3,0
2,200,189915,-1735,-16332,1710,1,5,-2
2,201,189921,-1691,-16299,1714,3,2,1
2,202,189927,-1726,-16295,1776,-1,-3,-1
2,203,189933,-1749,-16290,1742,3,-13,1
2,204,189939,-1784,-16294,1720,5,-15,5
2,205,189945,-1805,-16273,1746,1,-12,0
2,206,189951,-1740,-16249,1856,3,-20,2
2,207,189957,-1715,-16245,1846,2,-29,3
2,208,189963,-1753,-16248,1743,1,-36,1
2,209,189969,-1761,-16266,1691,1,-40,3
2,210,189975,-1712,-16251,1676,-1,-39,4
2,211,189982,-1703,-16293,1635,-1,-23,3
2,212,189988,-1698,-16301,1627,-3,-9,2
2,213,189994,-1721,-16327,1670,-2,4,3
2,214,190000,-1697,-16348,1731,-3,15,3
2,215,190006,-1680,-16327,1787,-4,18,4
2,216,190012,-1683,-16351,1780,-4,10,6
2,217,190018,-1681,-16309,1797,-3,4,6
2,218,190024,-1730,-16335,1771,-3,-6,6
2,219,190030,-1809,-16298,1656,-1,-13,11
2,220,190036,-1839,-16340,1618,-1,-9,9
2,221,190042,-1828,-16376,1621,-2,-9,7
2,222,190048,-1856,-16369,1659,-2,-11,10
2,223,190054,-1795,-16327,1642,0,-8,5
2,224,190060,-1840,-16317,1719,-3,-8,8
2,225,190066,-1844,-16287,1696,-3,-5,8
2,226,190072,-1886,-16323,1663,-2,-7,7
2,227,190079,-1875,-16333,1687,-2,-7,6
2,228,190084,-1826,-16294,1679,-3,-12,5
2,229,190090,-1824,-16275,1727,-3,-11,3
2,230,190096,-1755,-16272,1697,-1,-14,6
2,231,190102,-1706,-16201,1731,-4,-20,4
2,232,190108,-1625,-16201,1764,-5,-27,5
2,233,190114,-1478,-16294,1653,1,-37,8
2,234,190120,-1489,-16282,1569,1,-36,8
2,235,190126,-1538,-16297,1561,-1,-34,13
2,236,190133,-1517,-16265,1534,-1,-29,14
2,237,190139,-1474,-16336,1503,0,-8,13
2,238,190145,-1546,-16319,1484,0,7,14
2,239,190151,-1603,-16273,1532,1,14,16
2,240,190157,-1616,-16288,1576,1,19,15
2,241,190163,-1607,-16273,1637,0,23,19
2,242,190169,-1624,-16246,1686,2,30,17
2,243,190175,-1690,-16269,1729,3,29,17
2,244,190181,-1694,-16292,1741,3,26,17
2,245,190187,-1701,-16267,1718,1,22,17
2,246,190193,-1787,-16286,1742,6,17,21
2,247,190199,-1814,-16275,1770,3,10,22
2,248,190205,-1847,-16284,1759,2,8,24
2,249,190211,-1865,-16303,1716,1,9,24
2,250,190217,-1820,-16294,1768,0,9,20
2,251,190223,-1840,-16313,1768,1,-1,23
2,252,190229,-1878,-16327,1687,2,-2,21
2,253,190235,-1948,-16338,1698,1,5,19
2,254,190241,-1942,-16321,1712,-3,13,17
2,255,190247,-1821,-16309,1839,-2,8,18
2,256,190253,-1824,-16345,1815,-2,4,17
2,257,190259,-1882,-16380,1783,-2,-3,14
2,258,190265,-1874,-16335,1770,-2,-8,16
2,259,190271,-1879,-16350,1740,-2,-8,17
2,260,190277,-1813,-16337,1651,-3,-7,15
2,261,190283,-1850,-16339,1690,-3,-3,14
2,262,190289,-1842,-16360,1705,-1,-2,15
2,263,190295,-1838,-16347,1709,-2,5,15
2,264,190301,-1891,-16381,1690,-2,5,12
2,265,190308,-1866,-16362,1727,-2,10,10
2,266,190314,-1910,-16328,1737,-1,1,12
2,267,190320,-1936,-16406,1807,-1,-11,11
2,268,190326,-1860,-16412,1802,-2,-19,10
2,269,190332,-1832,-16379,1704,-1,-38,7
2,270,190338,-1857,-16413,1680,-1,-41,10
2,271,190344,-1866,-16407,1624,-1,-41,9
2,272,190350,-1850,-16421,1586,-1,-35,9
2,273,190356,-1843,-16380,1669,0,-21,5
2,274,190362,-1777,-16360,1692,-3,-16,4
2,275,190368,-1798,-16326,1638,-2,-14,5
2,276,190374,-1842,-16348,1633,-2,-8,5
2,277,190380,-1808,-16355,1685,-1,-6,1
2,278,190386,-1856,-16341,1667,1,-6,3
2,279,190392,-1824,-16369,1690,0,-7,1
2,280,190398,-1800,-16331,1730,-2,-3,0
2,281,190404,-1769,-16270,1732,-1,-7,0
2,282,190410,-1661,-16286,1802,2,-21,2
2,283,190416,-1679,-16269,1770,1,-31,0
2,284,190422,-1713,-16247,1688,-1,-32,1
2,285,190428,-1729,-16268,1593,2,-30,1
2,286,190434,-1725,-16284,1608,-1,-14,2
2,287,190440,-1721,-16281,1588,2,-7,5
2,288,190447,-1716,-16272,1583,2,-3,5
2,289,190453,-1659,-16285,1579,3,0,2
2,290,190459,-1635,-16325,1573,5,0,1
2,291,190465,-1703,-16283,1585,4,-1,0
2,292,190471,-1742,-16317,1569,4,1,0
2,293,190477,-1756,-16336,1574,8,7,0
2,294,190483,-1784,-16326,1570,7,12,0
2,295,190489,-1764,-16292,1668,9,15,1
2,296,190495,-1799,-16283,1700,4,17,-2
2,297,190501,-1822,-16264,1684,4,15,-4
2,298,190507,-1846,-16297,1669,8,13,-3
2,299,190513,-1861,-16295,1727,7,11,0
2,300,190519,-1857,-16230,1788,9,11,-3
2,301,190525,-1862,-16239,1773,7,6,-3
2,302,190531,-1873,-16232,1783,7,5,-4
2,303,190537,-1834,-16174,1814,7,-1,-1
2,304,190543,-1853,-16206,1797,7,-7,-3
2,305,190549,-1830,-16229,1783,6,-11,-3
2,306,190555,-1823,-16240,1762,7,-8,-7
2,307,190561,-1833,-16240,1714,2,-6,-3
2,308,190567,-1872,-16254,1744,4,-3,-4
2,309,190573,-1829,-16284,1643,4,0,-5
2,310,190579,-1855,-16282,1684,4,3,-5
2,311,190585,-1853,-16300,1708,5,5,-4
2,312,190591,-1841,-16347,1681,2,8,-9
2,313,190597,-1931,-16348,1669,3,16,-7
2,314,190603,-1935,-16358,1823,3,16,-10
2,315,190609,-1865,-16380,1867,2,9,-8
2,316,190618,-1881,-16414,1829,2,-6,-10
2,317,190624,-1915,-16440,1738,2,-14,-9
2,318,190630,-1953,-16450,1708,3,-22,-8
2,319,190636,-1998,-16477,1724,4,-28,-10
2,320,190642,-1993,-16427,1735,2,-37,-11
2,321,190648,-1959,-16409,1741,2,-40,-10
2,322,190654,-1914,-16403,1738,1,-46,-10
2,323,190660,-1925,-16409,1807,3,-60,-7
2,324,190666,-1927,-16385,1785,3,-80,-9
2,325,190672,-1887,-16324,1698,4,-78,-6
2,326,190679,-1981,-16366,1677,4,-64,-10
2,327,190685,-1997,-16373,1691,2,-49,-12
2,328,190691,-1957,-16393,1682,4,-42,-12
2,329,190697,-1880,-16326,1870,0,-18,-10
2,330,190703,-1952,-16376,1993,-1,-13,-10
2,331,190709,-1934,-16294,1855,0,-26,-6
2,332,190715,-1798,-16275,1865,2,-34,-6
2,333,190721,-1941,-16265,1886,0,-61,-6
2,334,190727,-1957,-16251,1804,2,-79,-3
2,335,190733,-1921,-16287,1648,3,-85,0
2,336,190739,-1923,-16271,1630,2,-77,-1
2,337,190745,-1870,-16278,1673,4,-71,-1
2,338,190751,-1943,-16332,1632,3,-74,-3
2,339,190757,-1947,-16315,1490,4,-60,-1
2,340,190763,-1892,-16290,1465,5,-41,-2
2,341,190769,-1897,-16263,1634,7,-24,-2
2,342,190775,-1847,-16288,1662,9,-18,0
2,343,190781,-1841,-16291,1620,8,-17,1
2,344,190787,-1782,-16307,1689,6,-16,2
2,345,190793,-1772,-16243,1705,10,-16,4
2,346,190799,-1767,-16220,1649,13,-18,7
2,347,190805,-1829,-16291,1650,14,-24,9
2,348,190811,-1877,-16307,1569,14,-16,13
2,349,190817,-1871,-16330,1523,16,2,10
2,350,190823,-1940,-16275,1568,15,19,11
2,351,190829,-1975,-16285,1655,15,25,10
2,352,190835,-1906,-16279,1673,18,25,10
2,353,190846,-1874,-16237,1767,19,11,14
2,354,190852,-1931,-16221,1835,18,-2,15
2,355,190859,-1890,-16280,1938,21,-41,21
2,356,190864,-1835,-16233,1901,22,-58,20
2,357,190870,-1889,-16201,1848,24,-65,23
2,358,190876,-1988,-16245,1777,21,-60,22
2,359,190882,-2022,-16227,1772,22,-59,22
2,360,190888,-1891,-16300,1686,22,-55,23
2,361,190894,-1859,-16309,1743,23,-45,23
2,362,190900,-1836,-16327,1778,24,-37,22
2,363,190907,-1869,-16316,1758,22,-31,23
2,364,190913,-1864,-16305,1672,21,-33,25
2,365,190919,-1810,-16361,1745,24,-32,26
2,366,190925,-1810,-16347,1697,25,-33,25
2,367,190931,-1841,-16340,1641,25,-33,26
2,368,190937,-1846,-16370,1633,25,-33,28
2,369,190943,-1818,-16325,1677,29,-37,29
2,370,190949,-1824,-16302,1682,27,-37,32
2,371,190955,-1841,-16345,1664,29,-34,31
2,372,190961,-1837,-16332,1685,27,-28,30
2,373,190967,-1897,-16303,1780,28,-11,30
2,374,190973,-1859,-16295,1760,27,-3,29
2,375,190979,-1919,-16310,1795,30,4,29
2,376,190985,-1898,-16314,1884,29,6,32
2,377,190991,-1878,-16324,1919,27,4,30
2,378,190997,-1916,-16294,1959,26,-13,33
2,379,191003,-1918,-16304,1950,28,-20,33
2,380,191009,-1941,-16299,1936,28,-30,32
2,381,191015,-1919,-16311,1933,25,-36,31
2,382,191021,-1879,-16363,1970,23,-42,35
2,383,191027,-1892,-16361,1756,23,-50,31
2,384,191033,-1906,-16345,1751,19,-47,31
2,385,191039,-1905,-16341,1830,20,-47,33
2,386,191045,-1923,-16337,1814,21,-47,35
2,387,191051,-1858,-16308,1786,22,-39,35
2,388,191057,-1898,-16316,1797,19,-31,34
2,389,191064,-1938,-16368,1854,20,-25,31
2,390,191070,-1976,-16327,1801,18,-25,28
2,391,191076,-2010,-16319,1891,19,-18,31
2,392,191082,-2116,-16348,1977,18,-20,27
2,393,191088,-2123,-16389,2106,17,-33,27
2,394,191094,-2088,-16363,2093,16,-51,31
2,395,191100,-2074,-16352,2087,20,-68,30
2,396,191106,-2083,-16284,2229,20,-136,31
2,397,191112,-2030,-16294,2194,21,-176,31
2,398,191118,-2049,-16318,1988,25,-196,34
2,399,191124,-2087,-16350,1805,22,-195,33
2,400,191130,-2116,-16318,1673,21,-181,33
2,401,191136,-2067,-16311,1739,23,-155,30
2,402,191142,-2063,-16310,1718,21,-136,29
2,403,191148,-2088,-16240,1785,20,-118,28
2,404,191154,-2087,-16252,1911,21,-113,29
2,405,191160,-1874,-16290,2111,24,-119,30
2,406,191166,-1801,-16246,2132,27,-134,30
2,407,191172,-1920,-16258,2189,28,-161,35
2,408,191178,-1981,-16278,2147,27,-201,44
2,409,191184,-1944,-16410,2008,35,-263,49
2,410,191190,-2006,-16438,2055,38,-290,56
2,411,191196,-2091,-16454,2064,41,-321,59
2,412,191202,-2078,-16460,1963,43,-356,63
2,413,191208,-2089,-16414,1936,46,-378,69
2,414,191214,-1928,-16407,1812,53,-398,80
2,415,191220,-1963,-16389,1737,54,-389,84
2,416,191226,-2092,-16313,1761,61,-373,91
2,417,191232,-2111,-16254,1710,64,-346,96
2,418,191238,-1997,-16257,1592,68,-250,100
2,419,191245,-2053,-16150,1851,69,-200,102
2,420,191251,-2149,-16171,2071,72,-170,108
2,421,191257,-2191,-16118,2078,76,-154,114
2,422,191263,-2121,-16072,2168,80,-126,120
2,423,191269,-2121,-16084,2520,85,-130,142
2,424,191275,-2237,-15973,2580,91,-170,148
2,425,191281,-2337,-15981,2502,93,-211,159
2,426,191287,-2358,-16013,2467,97,-235,171
2,427,191293,-2418,-16012,2461,99,-253,180
2,428,191299,-2450,-15917,2638,109,-307,197
2,429,191305,-2557,-15870,2550,113,-334,205
2,430,191310,-2552,-15869,2411,118,-352,215
2,431,191316,-2566,-15779,2302,119,-354,224
2,432,191323,-2585,-15831,2273,128,-325,241
2,433,191329,-2570,-15827,2197,132,-301,247
2,434,191335,-2539,-15766,2118,138,-262,256
2,435,191341,-2513,-15671,2168,141,-217,264
2,436,191347,-2521,-15753,2427,147,-167,278
2,437,191353,-2505,-15797,2539,153,-157,290
2,438,191359,-2440,-15824,2460,159,-145,302
2,439,191365,-2322,-15796,2487,162,-131,312
2,440,191371,-2357,-15791,2587,166,-138,321
2,441,191377,-2704,-15955,2402,181,-191,351
2,442,191383,-2784,-15965,2238,184,-188,361
2,443,191389,-2724,-16020,2275,187,-161,368
2,444,191395,-2886,-16007,2481,190,-144,374
2,445,191401,-2951,-16004,2574,195,-155,383
2,446,191407,-3083,-16021,2585,208,-171,406
2,447,191413,-3086,-16037,2693,209,-160,413
2,448,191419,-3055,-15999,2781,216,-163,423
2,449,191425,-2900,-16001,2879,220,-187,432
2,450,191431,-3042,-16012,2848,229,-239,451
2,451,191437,-3118,-15978,2653,234,-254,458
2,452,191443,-3001,-15957,2445,239,-237,466
2,453,191449,-2949,-15928,2484,239,-198,477
2,454,191455,-3014,-16006,2539,241,-168,484
2,455,191461,-3145,-15965,2499,250,-119,495
2,456,191467,-3187,-15958,2495,251,-81,498
2,457,191473,-3207,-15902,2699,254,-35,502
2,458,191479,-3239,-15985,2813,257,-4,509
2,459,191485,-3287,-15866,2980,261,13,514
2,460,191491,-3458,-15852,2953,261,22,520
2,461,191497,-3577,-15871,3049,263,22,525
2,462,191503,-3675,-15823,3073,260,37,527
2,463,191509,-3789,-15805,3110,261,56,532
2,464,191515,-3736,-15812,3248,264,61,534
2,465,191521,-3793,-15765,3365,261,41,533
2,466,191527,-3932,-15728,3444,263,18,530
2,467,191533,-4041,-15772,3461,262,-4,535
2,468,191539,-4163,-15783,3184,259,-25,530
2,469,191545,-4296,-15744,3220,259,-16,527
2,470,191551,-4372,-15692,3425,255,-5,523
2,471,191557,-4366,-15690,3331,256,-19,521
2,472,191563,-4298,-15662,3311,249,-15,515
2,473,191569,-4539,-15626,3582,247,-18,501
2,474,191575,-4626,-15622,3586,245,-40,501
2,475,191581,-4476,-15683,3605,243,-57,499
2,476,191587,-4192,-15696,3593,243,-76,491
2,477,191593,-4169,-15707,3729,235,-93,483
2,478,191599,-4438,-15715,3340,235,-183,474
2,479,191605,-4321,-15782,2977,233,-194,471
2,480,191611,-4211,-15842,2894,228,-165,462
2,481,191617,-4235,-15823,3049,221,-127,449
2,482,191623,-4364,-15756,3140,222,-112,428
2,483,191632,-4346,-15727,3084,217,-97,423
2,484,191638,-4298,-15671,3233,208,-52,401
2,485,191644,-4304,-15647,3387,203,-54,392
2,486,191651,-4325,-15684,3465,202,-69,385
2,487,191657,-4300,-15650,3423,200,-84,373
2,488,191663,-4541,-15617,3216,187,-84,355
2,489,191669,-4531,-15592,3219,183,-83,339
2,490,191675,-4554,-15621,3344,179,-84,330
2,491,191681,-4584,-15690,3404,174,-92,324
2,492,191686,-4545,-15591,3335,170,-100,307
2,493,191692,-4615,-15724,3479,159,-105,286
2,494,191699,-4679,-15661,3574,148,-113,265
2,495,191704,-4878,-15781,3557,147,-134,260
2,496,191710,-4886,-15841,3511,143,-162,241
2,497,191716,-4859,-15723,3421,135,-185,226
2,498,191722,-4736,-15799,3564,125,-248,206
2,499,191728,-4788,-15772,3498,122,-283,188
2,500,191734,-4897,-15834,3406,118,-304,172
2,501,191740,-4801,-15812,3223,107,-315,163
2,502,191746,-4505,-15777,3178,99,-287,132
2,503,191753,-4475,-15789,3173,91,-267,115
2,504,191759,-4508,-15772,3120,85,-250,97
2,505,191765,-4471,-15767,3019,75,-223,84
2,506,191771,-4400,-15754,3011,69,-175,67
2,507,191777,-4427,-15687,3193,52,-66,31
2,508,191783,-4413,-15665,3196,46,-28,14
2,509,191789,-4370,-15599,3346,38,4,-2
2,510,191795,-4231,-15553,3438,30,21,-16
2,511,191801,-4433,-15533,3572,13,47,-50
2,512,191807,-4671,-15478,3681,4,50,-66
2,513,191813,-4623,-15510,3657,-3,24,-79
2,514,191819,-4448,-15497,3796,-11,3,-94
2,515,191825,-4264,-15537,3943,-16,-41,-105
2,516,191831,-4391,-15567,4090,-35,-172,-137
2,517,191837,-4409,-15595,3694,-43,-234,-147
2,518,191843,-4266,-15590,3402,-54,-266,-162
2,519,191849,-4213,-15646,3409,-65,-271,-175
2,520,191855,-4264,-15599,3206,-79,-252,-211
2,521,191861,-4272,-15653,2993,-86,-225,-226
2,522,191867,-4186,-15677,2850,-97,-185,-247
2,523,191873,-4031,-15601,3050,-104,-135,-265
2,524,191879,-3922,-15571,3224,-112,-80,-283
2,525,191885,-4130,-15670,3025,-124,7,-320
2,526,191892,-4069,-15719,2848,-135,37,-335
2,527,191898,-3992,-15745,3209,-144,46,-349
2,528,191904,-3871,-15765,3730,-150,36,-364
2,529,191910,-3751,-15857,3605,-156,-51,-390
2,530,191916,-3959,-15721,3490,-165,-81,-411
2,531,191922,-3937,-15637,3585,-172,-135,-417
2,532,191928,-3698,-15681,3616,-178,-193,-426
2,533,191934,-3466,-15722,3498,-181,-237,-435
2,534,191940,-3546,-15750,3060,-195,-245,-467
2,535,191946,-3632,-15749,3040,-203,-233,-477
2,536,191952,-3550,-15741,2908,-206,-218,-489
2,537,191958,-3361,-15719,2801,-213,-184,-504
2,538,191964,-3559,-15811,2962,-224,-93,-535
2,539,191970,-3520,-15833,2879,-229,-78,-545
2,540,191976,-3207,-15821,2939,-233,-65,-556
2,541,191982,-2982,-15865,3219,-237,-48,-570
2,542,191988,-3021,-15886,3415,-245,-91,-586
2,543,191994,-2958,-15924,3128,-245,-125,-590
2,544,192000,-2791,-15975,2913,-248,-132,-600
2,545,192006,-2800,-16005,2972,-255,-125,-611
2,546,192012,-2802,-16053,2975,-258,-121,-621
2,547,192018,-2778,-16080,2491,-262,-92,-632
2,548,192024,-2691,-16096,2474,-267,-42,-645
2,549,192030,-2599,-16106,2525,-270,7,-655
2,550,192036,-2530,-16157,2620,-270,49,-660
2,551,192043,-2642,-16132,2461,-273,127,-677
2,552,192049,-2686,-16072,2550,-273,168,-683
2,553,192060,-2842,-15943,2952,-276,202,-696
2,554,192066,-2939,-15989,3054,-279,181,-702
2,555,192072,-2911,-16120,3180,-279,141,-706
2,556,192078,-2493,-16426,3456,-278,7,-708
2,557,192084,-2331,-16492,3478,-278,-76,-707
2,558,192090,-2415,-16550,3312,-281,-158,-711
2,559,192096,-2483,-16576,2840,-279,-224,-708
2,560,192102,-2222,-16688,2292,-281,-242,-706
2,561,192108,-2033,-16672,2208,-281,-206,-709
2,562,192114,-1961,-16666,1906,-281,-156,-712
2,563,192120,-2033,-16634,1677,-285,-69,-720
2,564,192126,-1973,-16585,1544,-285,29,-723
2,565,192132,-1617,-16561,1765,-291,220,-728
2,566,192138,-1598,-16565,1961,-287,307,-732
2,567,192144,-1753,-16503,2016,-288,382,-737
2,568,192150,-1840,-16525,2191,-286,438,-734
2,569,192156,-1434,-16439,2705,-281,465,-729
2,575,192192,-1761,-16025,3236,-274,70,-691
2,576,192198,-1526,-16071,3390,-273,-13,-685
2,577,192204,-1442,-16006,3281,-275,-95,-683
2,578,192210,-1488,-15934,2737,-274,-171,-668
2,579,192216,-1378,-15901,2252,-276,-172,-663
2,580,192222,-1234,-15916,2182,-280,-130,-659
2,581,192229,-1152,-15887,2030,-284,-71,-661
2,582,192235,-1292,-15836,2014,-287,21,-663
2,583,192241,-1248,-15774,1816,-285,225,-667
2,584,192247,-1258,-15701,2120,-292,334,-668
2,600,192343,-32768,-6920,32767,-390,-3873,-751
2,601,192348,-32768,-6920,32767,-390,-3873,-751
2,602,192349,-20893,-14648,-10909,535,-13251,1800
2,603,192349,-20893,-14648,-10909,535,-13251,1800
2,604,192350,-20893,-14648,-10909,535,-13251,1800
2,605,192351,-20893,-14648,-10909,535,-13251,1800
2,606,192352,-20893,-14648,-10909,535,-13251,1800
2,607,192352,-20893,-14648,-10909,535,-13251,1800
2,608,192353,8975,-24087,-32768,26,-12001,1813
2,609,192354,8975,-24087,-32768,26,-12001,1813
2,620,192362,3402,-17111,-31129,-647,-2449,-261
2,621,192363,3402,-17111,-31129,-647,-2449,-261
2,622,192364,-9503,-14339,-1105,-546,3327,-719
2,623,192364,-9503,-14339,-1105,-546,3327,-719
2,624,192365,-9503,-14339,-1105,-546,3327,-719
2,625,192366,-9503,-14339,-1105,-546,3327,-719
2,626,192366,-9503,-14339,-1105,-546,3327,-719
2,627,192367,-9503,-14339,-1105,-546,3327,-719
2,628,192368,-17247,-14617,30534,-380,3705,-415
2,629,192369,-17247,-14617,30534,-380,3705,-415
2,645,192380,21619,-21779,-32768,-9,2150,338
2,646,192381,21619,-21779,-32768,-9,2150,338
2,647,192382,21619,-21779,-32768,-9,2150,338
2,648,192383,11747,-18611,18746,-607,5954,-653
2,649,192383,11747,-18611,18746,-607,5954,-653
2,650,192384,11747,-18611,18746,-607,5954,-653
2,651,192385,11747,-18611,18746,-607,5954,-653
2,652,192386,11747,-18611,18746,-607,5954,-653
2,653,192386,11747,-18611,18746,-607,5954,-653
2,654,192387,11747,-18611,18746,-607,5954,-653
2,665,192395,-11113,-11746,5833,331,-2824,875
2,666,192396,-11113,-11746,5833,331,-2824,875
2,667,192397,-11113,-11746,5833,331,-2824,875
2,668,192397,-11113,-11746,5833,331,-2824,875
2,669,192398,19871,-26951,-32768,306,-4155,1522
2,670,192399,19871,-26951,-32768,306,-4155,1522
2,671,192400,19871,-26951,-32768,306,-4155,1522
2,672,192400,19871,-26951,-32768,306,-4155,1522
2,673,192401,19871,-26951,-32768,306,-4155,1522
2,674,192402,19871,-26951,-32768,306,-4155,1522
2,690,192414,-14024,-11737,32767,-265,3463,-282
2,691,192414,-14024,-11737,32767,-265,3463,-282
2,692,192415,-14024,-11737,32767,-265,3463,-282
2,693,192416,-14024,-11737,32767,-265,3463,-282
2,694,192417,-14024,-11737,32767,-265,3463,-282
2,695,192417,3430,-15016,-2125,262,-1055,556
2,696,192418,3430,-15016,-2125,262,-1055,556
2,697,192419,3430,-15016,-2125,262,-1055,556
2,698,192420,3430,-15016,-2125,262,-1055,556
2,699,192420,3430,-15016,-2125,262,-1055,556
2,710,192428,4389,-18028,-3211,-277,2813,-148
2,711,192429,4389,-18028,-3211,-277,2813,-148
2,712,192430,4389,-18028,-3211,-277,2813,-148
2,713,192431,4389,-18028,-3211,-277,2813,-148
2,714,192431,4389,-18028,-3211,-277,2813,-148
2,715,192432,-6584,-12940,24525,-389,2993,-464
2,716,192433,-6584,-12940,24525,-389,2993,-464
2,717,192434,-6584,-12940,24525,-389,2993,-464
2,718,192434,-6584,-12940,24525,-389,2993,-464
2,719,192435,-6584,-12940,24525,-389,2993,-464
2,735,192447,7968,-19081,-14106,-15,-1155,393
2,736,192448,7968,-19081,-14106,-15,-1155,393
2,737,192448,7968,-19081,-14106,-15,-1155,393
2,738,192449,7968,-19081,-14106,-15,-1155,393
2,739,192450,7968,-19081,-14106,-15,-1155,393
2,755,192462,-4936,-15084,8050,-8,-1384,225
2,756,192463,-4936,-15084,8050,-8,-1384,225
2,757,192463,-4936,-15084,8050,-8,-1384,225
2,758,192464,-4936,-15084,8050,-8,-1384,225
2,759,192465,-4936,-15084,8050,-8,-1384,225
2,760,192466,-4936,-15084,8050,-8,-1384,225
2,761,192466,-4936,-15084,8050,-8,-1384,225
2,762,192467,3272,-17752,-10647,65,-1983,429
2,763,192468,3272,-17752,-10647,65,-1983,429
2,764,192469,3272,-17752,-10647,65,-1983,429
2,780,192480,-1806,-16422,5141,-186,645,-84
2,781,192481,-1806,-16422,5141,-186,645,-84
2,782,192482,-4678,-15429,10003,-111,162,-8
2,783,192483,-4678,-15429,10003,-111,162,-8
2,784,192483,-4678,-15429,10003,-111,162,-8
2,785,192484,-4678,-15429,10003,-111,162,-8
2,786,192485,-4678,-15429,10003,-111,162,-8
2,787,192486,-4678,-15429,10003,-111,162,-8
2,788,192486,-4678,-15429,10003,-111,162,-8
2,789,192487,-1070,-16367,-801,28,-721,194
2,800,192495,2767,-17693,-8168,14,-333,196
2,801,192496,2767,-17693,-8168,14,-333,196
2,802,192497,1587,-17208,-1342,-101,794,-4
2,803,192498,1587,-17208,-1342,-101,794,-4
2,804,192504,-1538,-16166,8310,-129,1057,-83
2,805,192510,-1774,-15949,6912,-39,269,32
2,806,192516,1926,-17259,-3652,-18,148,82
2,807,192522,110,-16681,3212,-76,715,-23
2,808,192528,-1350,-16264,7153,-47,506,-5
2,809,192535,-578,-16524,2367,24,-111,80
2,810,192541,-5,-16870,-810,-17,225,27
2,811,192547,-1271,-16346,4114,-35,439,-11
2,812,192553,-1269,-16274,4373,7,159,26
2,813,192559,-81,-16622,249,49,-118,66
2,814,192565,237,-16757,-1028,33,24,38
2,815,192571,-1162,-16380,4379,8,216,-7
2,816,192577,-576,-16641,2631,41,-45,32
2,817,192583,186,-16925,137,57,-108,40
2,818,192589,-123,-16912,731,36,66,6
2,819,192595,-955,-16685,3090,44,-6,8
2,820,192602,-255,-16883,1347,61,-133,29
2,821,192608,164,-16931,503,60,-77,18
2,822,192614,-223,-16851,1659,47,50,-4
2,823,192620,-425,-16868,2117,67,-77,14
2,824,192626,67,-16964,935,73,-100,22
2,825,192632,114,-16917,1016,65,-6,7
2,826,192640,-359,-16670,2239,71,9,8
2,827,192646,-43,-16740,1473,83,-61,19
2,828,192653,247,-16765,986,85,-34,23
2,829,192659,91,-16755,1453,80,48,15
2,830,192665,-392,-16677,1606,89,38,23
2,831,192671,-258,-16706,1051,93,36,29
2,832,192677,-198,-16754,1189,95,93,21
2,833,192683,-303,-16678,1690,93,132,17
2,834,192689,-346,-16641,1791,103,74,31
2,835,192695,-342,-16695,1514,104,62,32
2,836,192701,-401,-16669,1677,104,70,32
2,837,192707,-497,-16655,1839,105,60,32
2,838,192713,-552,-16619,1902,109,37,37
2,839,192719,-477,-16615,1637,115,35,40
2,840,192725,-581,-16581,1793,114,49,41
2,841,192731,-677,-16503,1843,118,51,41
2,842,192737,-625,-16511,1794,119,39,47
2,843,192743,-477,-16508,1807,119,45,50
2,844,192749,-516,-16466,2048,120,47,49
2,845,192755,-526,-16436,1971,122,28,55
2,846,192761,-501,-16423,1878,124,19,57
2,847,192767,-571,-16462,1757,125,20,63
2,848,192773,-640,-16542,1775,127,31,63
2,849,192779,-664,-16482,1744,127,24,65
2,850,192785,-681,-16432,1780,124,23,66
2,851,192791,-597,-16427,1952,126,25,68
2,852,192797,-541,-16387,1979,129,23,74
2,853,192803,-561,-16432,1887,128,16,75
2,854,192809,-641,-16421,1809,129,13,79
2,855,192815,-657,-16402,1788,129,12,84
2,856,192821,-586,-16375,1807,129,19,87
2,857,192827,-628,-16361,1844,129,55,88
2,858,192833,-774,-16324,1873,129,65,90
2,859,192839,-801,-16330,1808,126,71,90
2,860,192845,-785,-16306,1716,123,77,93
2,861,192851,-616,-16370,1973,123,100,95
2,862,192857,-707,-16304,1955,124,100,99
2,863,192863,-769,-16309,1771,123,97,99
2,864,192869,-866,-16311,1756,121,103,99
2,865,192876,-970,-16291,1851,120,108,100
2,866,192882,-884,-16349,2003,119,100,102
2,867,192888,-905,-16378,2012,122,87,103
2,868,192894,-905,-16374,2003,118,76,104
2,869,192900,-907,-16299,2106,115,54,103
2,870,192906,-878,-16343,2010,116,-1,110
2,871,192912,-924,-16403,1886,117,-12,110
2,872,192918,-989,-16446,1833,115,-11,110
2,873,192924,-992,-16473,1918,115,-17,115
2,874,192930,-909,-16464,1962,113,-23,113
2,875,192936,-809,-16373,1939,111,-21,112
2,876,192942,-830,-16341,1888,113,-18,113
2,877,192948,-871,-16366,1885,108,-13,113
2,878,192954,-875,-16359,1876,109,-8,116
2,879,192960,-790,-16420,1825,107,16,115
2,880,192966,-863,-16387,1958,104,27,115
2,881,192972,-961,-16367,1999,102,34,114
2,882,192978,-979,-16372,2004,98,40,116
2,883,192984,-948,-16365,2073,98,45,117
2,884,192990,-1007,-16367,2133,95,42,116
2,885,192996,-1071,-16391,2109,95,24,117
2,886,193002,-1072,-16370,2058,94,8,116
2,887,193008,-1009,-16371,2150,92,-9,118
2,888,193014,-923,-16366,2210,88,-28,117
2,889,193020,-961,-16367,2139,88,-63,120
2,890,193026,-936,-16323,2056,87,-68,121
2,891,193032,-931,-16343,2044,83,-70,122
2,892,193038,-968,-16308,2081,81,-67,119
2,893,193044,-1048,-16338,2011,78,-58,123
2,894,193050,-1015,-16360,1962,75,-48,121
2,895,193056,-1020,-16328,2060,76,-34,119
2,896,193062,-1032,-16329,2178,73,-31,118
2,897,193068,-1056,-16312,2248,70,-37,117
2,898,193074,-1068,-16280,2184,68,-44,116
2,899,193080,-1078,-16325,2205,61,-39,121
2,900,193086,-1177,-16326,2213,61,-40,118
2,901,193092,-1145,-16346,2270,61,-49,116
2,902,193098,-1007,-16407,2140,60,-65,116
2,903,193104,-1034,-16326,2270,57,-65,116
2,904,193110,-1089,-16322,2245,51,-72,115
2,905,193116,-1087,-16326,2371,50,-85,117
2,906,193122,-966,-16330,2139,49,-94,117
2,907,193128,-1042,-16322,1967,46,-41,113
2,908,193134,-1115,-16372,2061,42,-45,111
2,909,193140,-1054,-16298,2071,44,-58,107
2,910,193147,-1072,-16344,2095,43,-47,111
2,911,193153,-1011,-16347,2132,39,-14,110
2,912,193159,-1013,-16334,2197,38,-11,110
2,913,193165,-1032,-16328,2266,41,-23,110
2,914,193171,-1101,-16230,2251,37,-37,108
2,915,193177,-1118,-16229,2218,39,-49,110
2,916,193183,-1135,-16239,2270,30,-55,112
2,917,193189,-1149,-16277,2429,31,-61,107
2,918,193195,-1160,-16292,2335,30,-71,105
2,919,193201,-1190,-16306,2257,28,-73,106
2,920,193207,-1210,-16234,2323,26,-69,103
2,921,193213,-1201,-16254,2315,24,-68,103
2,922,193219,-1247,-16273,2288,22,-59,102
2,923,193225,-1275,-16265,2223,21,-53,98
2,924,193231,-1290,-16306,2223,18,-38,97
2,925,193237,-1202,-16247,2382,16,-28,96
2,926,193243,-1294,-16240,2360,16,-25,95
2,927,193249,-1283,-16204,2363,13,-26,91
2,928,193255,-1292,-16200,2329,11,-28,91
2,929,193261,-1436,-16293,2344,10,-31,89
2,930,193267,-1489,-16345,2324,9,-30,84
2,931,193273,-1501,-16332,2319,8,-28,85
2,932,193279,-1426,-16327,2344,7,-34,82
2,933,193285,-1345,-16309,2426,7,-50,79
2,934,193291,-1258,-16283,2490,6,-104,79
2,935,193297,-1231,-16234,2389,5,-127,81
2,936,193303,-1231,-16246,2267,4,-134,80
2,937,193309,-1269,-16269,2182,4,-132,79
2,938,193315,-1349,-16279,2039,4,-99,74
2,939,193321,-1349,-16293,2035,4,-72,71
2,940,193327,-1396,-16322,2049,2,-44,68
2,941,193333,-1390,-16255,2098,3,-21,61
2,942,193339,-1396,-16291,2202,2,-2,60
2,943,193345,-1469,-16348,2243,3,14,57
2,944,193351,-1472,-16315,2363,2,15,56
2,945,193357,-1430,-16302,2541,2,3,54
2,946,193363,-1384,-16272,2620,1,-24,54
2,947,193369,-1261,-16230,2561,-2,-75,54
2,948,193375,-1361,-16259,2484,-1,-94,53
2,949,193381,-1408,-16249,2397,2,-106,52
2,950,193387,-1481,-16218,2271,3,-111,50
2,951,193393,-1453,-16241,2187,1,-107,50
2,952,193399,-1452,-16258,2208,-1,-73,45
2,953,193411,-1412,-16247,2083,-1,-43,37
2,954,193417,-1456,-16239,2222,0,-22,33
2,955,193423,-1462,-16228,2317,1,-9,34
2,956,193429,-1428,-16241,2358,0,-3,30
2,957,193435,-1442,-16234,2389,-1,-2,27
2,958,193441,-1420,-16187,2426,0,-9,27
2,959,193447,-1439,-16159,2471,-2,-21,26
2,960,193453,-1459,-16225,2464,1,-30,27
2,961,193459,-1476,-16185,2338,-2,-27,23
2,962,193465,-1484,-16179,2344,0,-30,19
2,963,193471,-1487,-16188,2347,0,-33,17
2,964,193477,-1461,-16164,2245,-2,-32,14
2,965,193483,-1419,-16093,2261,0,-27,13
2,966,193489,-1436,-16073,2283,-2,-19,10
2,967,193495,-1488,-16132,2277,1,-20,9
2,968,193501,-1464,-16100,2262,1,-16,8
2,969,193507,-1468,-16070,2239,-1,-8,7
2,970,193513,-1498,-16041,2280,1,-5,6
2,971,193519,-1562,-16063,2274,0,-6,0
2,972,193526,-1547,-16077,2280,1,-5,0
2,973,193532,-1468,-16064,2264,3,-2,1
2,974,193538,-1483,-16100,2370,0,-11,-4
2,975,193544,-1530,-16128,2452,2,-20,-4
2,976,193549,-1493,-16178,2451,2,-24,-3
2,977,193555,-1415,-16214,2430,2,-27,-6
2,978,193561,-1360,-16172,2491,-1,-29,-6
2,979,193567,-1402,-16212,2444,2,-58,-7
2,980,193573,-1455,-16292,2307,2,-64,-7
2,981,193579,-1438,-16279,2161,2,-50,-6
2,982,193586,-1399,-16304,2206,-2,-25,-9
2,983,193592,-1562,-16313,2310,0,8,-12
2,984,193598,-1562,-16345,2246,1,13,-13
2,985,193604,-1483,-16354,2234,2,22,-12
2,986,193610,-1477,-16345,2371,0,34,-12
2,987,193616,-1530,-16413,2536,0,11,-16
2,988,193622,-1551,-16396,2540,-1,-4,-13
2,989,193628,-1612,-16402,2584,0,-17,-12
2,990,193634,-1645,-16362,2611,-1,-36,-13
2,991,193640,-1574,-16393,2546,1,-60,-14
2,992,193649,-1547,-16417,2535,5,-84,-9
2,993,193655,-1599,-16423,2480,1,-95,-12
2,994,193661,-1603,-16366,2313,2,-93,-11
2,995,193667,-1525,-16378,2287,1,-77,-12
2,996,193673,-1455,-16372,2266,0,-55,-13
2,997,193679,-1467,-16358,2301,0,-41,-18
2,998,193685,-1514,-16313,2244,0,-22,-15
2,999,193691,-1514,-16250,2226,0,-2,-18
3,0,198425,-1850,-16263,2511,-7,-19,3
3,1,198431,-1779,-16198,2577,-7,-24,3
3,2,198437,-1744,-16213,2494,-4,-23,1
3,3,198443,-1817,-16276,2371,-5,-18,-1
3,4,198449,-1859,-16289,2308,-5,-17,2
3,5,198456,-1878,-16226,2456,-4,-21,-2
3,6,198462,-1782,-16230,2436,-4,-20,3
3,7,198468,-1766,-16229,2397,-5,-15,1
3,8,198474,-1778,-16201,2459,-5,-8,0
3,9,198480,-1918,-16198,2417,-2,-11,3
3,10,198486,-1898,-16241,2480,-3,-11,2
3,11,198492,-1781,-16199,2469,-6,-12,0
3,12,198498,-1743,-16208,2527,-6,3,2
3,13,198504,-1835,-16203,2509,-6,8,-1
3,14,198510,-1772,-16135,2494,-5,-10,1
3,15,198516,-1758,-16112,2462,-5,-12,2
3,16,198522,-1781,-16129,2413,-7,-6,4
3,17,198528,-1796,-16134,2390,-8,0,4
3,18,198534,-1792,-16167,2406,-6,7,2
3,19,198540,-1710,-16161,2469,-3,5,3
3,20,198546,-1726,-16166,2496,-5,2,5
3,21,198552,-1797,-16246,2503,-7,1,3
3,22,198558,-1802,-16242,2444,-4,-3,5
3,23,198564,-1768,-16239,2441,-5,0,6
3,24,198570,-1752,-16226,2468,-2,-6,7
3,25,198576,-1769,-16260,2471,-3,-13,4
3,26,198582,-1771,-16248,2451,-3,-10,6
3,27,198588,-1827,-16253,2422,-4,2,6
3,28,198594,-1761,-16262,2405,-4,9,6
3,29,198601,-1814,-16272,2395,-4,9,4
3,30,198607,-1848,-16251,2483,-3,8,6
3,31,198613,-1822,-16239,2473,-1,3,5
3,32,198619,-1852,-16208,2496,-1,1,8
3,33,198625,-1815,-16245,2532,-3,-1,8
3,34,198631,-1799,-16280,2506,-2,-6,4
3,35,198637,-1828,-16305,2431,1,-9,5
3,36,198643,-1915,-16309,2398,-3,-4,2
3,37,198649,-1877,-16287,2415,-1,-1,5
3,38,198655,-1866,-16280,2437,-2,0,4
3,39,198661,-1877,-16317,2454,-3,2,4
3,40,198667,-1892,-16280,2407,-3,2,3
3,41,198673,-1892,-16242,2427,-2,5,3
3,42,198679,-1961,-16255,2403,-1,5,2
3,43,198685,-1885,-16246,2413,-3,6,-1
3,44,198691,-1887,-16229,2433,2,5,0
3,45,198697,-1886,-16229,2514,3,1,2
3,46,198703,-1897,-16231,2511,1,-5,-2
3,47,198709,-1899,-16182,2547,0,-8,-2
3,48,198715,-1884,-16189,2539,4,-14,1
3,49,198721,-1873,-16186,2461,2,-14,-2
3,50,198732,-1953,-16161,2379,3,-19,-2
3,51,198738,-1976,-16179,2476,2,-17,-4
3,52,198744,-1972,-16190,2503,2,-17,-5
3,53,198750,-1900,-16161,2529,2,-15,-3
3,54,198756,-1931,-16149,2566,7,-19,-5
3,55,198762,-1938,-16118,2535,2,-31,-6
3,56,198768,-1915,-16146,2539,2,-42,-10
3,57,198774,-1845,-16140,2489,2,-47,-7
3,58,198780,-1797,-16108,2494,2,-48,-6
3,59,198786,-1831,-16148,2492,5,-48,-6
3,60,198792,-1826,-16126,2451,1,-45,-5
3,61,198798,-1785,-16151,2416,1,-37,-6
3,62,198807,-1712,-16194,2462,5,-15,-9
3,63,198813,-1683,-16158,2455,2,-9,-9
3,64,198819,-1708,-16211,2449,4,-9,-9
3,65,198825,-1709,-16265,2403,2,-11,-9
3,66,198831,-1732,-16276,2378,4,-7,-3
3,67,198838,-1765,-16263,2437,4,-5,-5
3,68,198844,-1750,-16248,2445,3,-9,-4
3,69,198850,-1764,-16291,2436,6,-9,-5
3,70,198856,-1760,-16290,2477,4,-9,-3
3,71,198862,-1775,-16299,2477,2,-12,-3
3,72,198868,-1791,-16280,2417,3,-8,-7
3,73,198874,-1880,-16295,2428,5,-10,-7
3,74,198880,-1839,-16356,2430,5,-8,-7
3,75,198886,-1813,-16333,2471,3,-6,-3
3,76,198892,-1764,-16281,2490,5,-8,-2
3,77,198898,-1775,-16334,2473,6,-15,-3
3,78,198904,-1763,-16331,2460,3,-24,-2
3,79,198910,-1775,-16366,2382,6,-23,-3
3,80,198916,-1847,-16326,2427,6,-16,-2
3,81,198922,-1853,-16351,2359,6,-7,-4
3,82,198928,-1832,-16335,2355,7,0,-5
3,83,198934,-1919,-16343,2443,7,3,-3
3,84,198940,-1862,-16344,2416,10,-2,-2
3,85,198946,-1817,-16311,2441,9,-2,-3
3,86,198952,-1825,-16314,2505,8,-4,-2
3,87,198958,-1842,-16242,2383,10,-15,-4
3,88,198964,-1834,-16236,2407,9,-12,-3
3,89,198970,-1861,-16275,2444,8,-6,1
3,90,198976,-1903,-16234,2445,10,0,-3
3,91,198982,-1912,-16210,2408,9,4,-5
3,92,198988,-1807,-16194,2495,7,11,-3
3,93,198994,-1740,-16173,2561,8,6,-3
3,94,199000,-1815,-16184,2597,8,2,-2
3,95,199006,-1858,-16172,2540,8,-1,-2
3,96,199012,-1925,-16164,2472,10,0,-5
3,97,199018,-1881,-16133,2510,9,-1,-3
3,98,199024,-1795,-16149,2510,9,-8,-1
3,99,199030,-1840,-16161,2540,7,-14,-4
3,100,199036,-1812,-16140,2520,8,-18,-3
3,101,199042,-1907,-16157,2441,7,-14,-1
3,102,199048,-1901,-16195,2401,11,-15,-1
3,103,199054,-1860,-16177,2313,10,-12,-4
3,104,199060,-1799,-16164,2372,12,-8,-3
3,105,199067,-1932,-16197,2418,9,1,-3
3,106,199073,-1899,-16132,2401,10,2,-6
3,107,199079,-1869,-16150,2415,9,8,-5
3,108,199085,-1896,-16104,2485,9,14,-5
3,109,199091,-1917,-16126,2517,8,13,-3
3,110,199097,-1898,-16117,2530,11,4,-5
3,111,199103,-1872,-16138,2525,9,4,-2
3,112,199109,-1850,-16121,2540,7,4,-6
3,113,199115,-1841,-16121,2580,6,2,-6
3,114,199121,-1896,-16167,2457,10,-7,-4
3,115,199127,-1902,-16192,2386,6,-4,-1
3,116,199133,-1874,-16188,2445,7,2,-5
3,117,199139,-1871,-16158,2438,9,-1,-5
3,118,199145,-1841,-16193,2462,9,-1,-2
3,119,199151,-1896,-16198,2352,6,0,-4
3,120,199157,-1915,-16220,2322,7,-1,-6
3,121,199163,-1895,-16240,2376,7,-3,-3
3,122,199169,-1895,-16219,2444,8,-3,-3
3,123,199175,-1841,-16238,2461,7,-4,-3
3,124,199181,-1900,-16208,2461,9,-4,-2
3,125,199187,-1889,-16216,2477,6,-2,-5
3,126,199193,-1887,-16214,2452,7,-3,-4
3,127,199199,-1851,-16200,2456,6,-1,-1
3,128,199205,-1899,-16193,2493,6,9,-3
3,129,199211,-1923,-16142,2568,6,7,-3
3,130,199217,-1860,-16117,2564,6,3,-2
3,131,199223,-1870,-16129,2542,5,4,-2
3,132,199229,-1885,-16161,2555,2,1,-2
3,133,199235,-1866,-16179,2495,4,-3,-2
3,134,199241,-1835,-16203,2448,0,-5,1
3,135,199247,-1873,-16182,2462,-1,-8,0
3,136,199253,-1897,-16179,2451,2,-6,0
3,137,199260,-1924,-16202,2417,1,-11,-3
3,138,199266,-1891,-16231,2396,-3,-6,-1
3,139,199272,-1877,-16242,2454,0,-4,-6
3,140,199278,-1887,-16267,2472,-2,-4,-2
3,141,199284,-1919,-16293,2376,0,-4,-2
3,142,199290,-1929,-16324,2359,-1,4,-2
3,143,199296,-1869,-16295,2386,0,4,-2
3,144,199302,-1845,-16262,2489,-1,6,0
3,145,199308,-1841,-16268,2394,0,-5,-2
3,146,199314,-1842,-16278,2389,-1,-3,-2
3,147,199320,-1827,-16257,2420,-2,-1,0
3,148,199326,-1824,-16263,2476,-3,1,-2
3,149,199332,-1821,-16252,2520,-2,-4,1
3,150,199338,-1870,-16239,2434,-2,4,-1
3,151,199344,-1878,-16219,2475,-4,10,-2
3,152,199350,-1861,-16251,2547,-7,10,-1
3,153,199356,-1880,-16230,2513,-4,3,1
3,154,199362,-1912,-16254,2523,-2,-2,3
3,155,199368,-1972,-16268,2498,-5,-1,1
3,156,199374,-1989,-16256,2537,-8,3,1
3,157,199380,-1966,-16249,2557,-4,2,-2
3,158,199386,-1963,-16217,2519,-5,-6,-5
3,159,199392,-1907,-16241,2521,-6,-23,-2
3,160,199398,-1889,-16256,2500,-6,-31,0
3,161,199404,-1934,-16301,2453,-6,-31,0
3,162,199410,-1950,-16254,2407,-7,-29,-3
3,163,199416,-1910,-16175,2440,-9,-23,-4
3,164,199422,-1816,-16189,2451,-8,-17,-3
3,165,199429,-1852,-16161,2420,-8,-15,-4
3,166,199435,-1884,-16170,2423,-5,-12,0
3,167,199441,-1873,-16169,2458,-10,-9,-2
3,168,199447,-1859,-16151,2505,-9,-2,-3
3,169,199453,-1874,-16141,2475,-9,1,1
3,170,199459,-1918,-16116,2493,-9,5,-3
3,171,199465,-1883,-16095,2414,-8,6,-4
3,172,199471,-1866,-16094,2432,-7,5,-2
3,173,199477,-1928,-16117,2446,-8,2,-4
3,174,199483,-1900,-16151,2458,-10,3,-4
3,175,199489,-1958,-16193,2508,-6,-1,-4
3,176,199495,-1966,-16158,2488,-7,-13,-2
3,177,199501,-1836,-16152,2553,-10,-33,-4
3,178,199507,-1855,-16176,2525,-7,-49,-2
3,179,199513,-1836,-16216,2387,-5,-58,0
3,180,199519,-1840,-16186,2339,-6,-55,0
3,181,199525,-1854,-16201,2295,-6,-44,0
3,182,199531,-1842,-16259,2302,-2,-20,-2
3,183,199537,-1829,-16260,2327,-4,-8,-4
3,184,199543,-1868,-16281,2333,-4,2,-4
3,185,199549,-1836,-16290,2369,-5,9,-1
3,186,199555,-1815,-16229,2501,-4,17,-3
3,187,199561,-1824,-16276,2488,-2,11,-1
3,188,199567,-1865,-16292,2464,-2,8,-3
3,189,199573,-1885,-16286,2411,-3,6,-4
3,190,199579,-1901,-16270,2542,-1,-1,0
3,191,199585,-1961,-16293,2518,-2,-6,-4
3,192,199591,-1906,-16278,2454,-4,-12,-1
3,193,199597,-1876,-16245,2501,-2,-13,1
3,194,199603,-1894,-16279,2518,-2,-13,-2
3,195,199609,-1893,-16225,2482,1,-23,0
3,196,199615,-1891,-16226,2417,-1,-28,-2
3,197,199622,-1904,-16238,2423,-3,-25,1
3,198,199628,-1906,-16226,2436,-4,-16,-3
3,199,199634,-1872,-16279,2501,0,-13,0
3,200,199640,-1849,-16255,2416,-2,-9,0
3,201,199646,-1860,-16213,2450,-2,-5,-1
3,202,199652,-1889,-16223,2555,1,-5,0
3,203,199658,-1937,-16218,2490,-1,-5,1
3,204,199664,-1926,-16262,2435,-2,1,-3
3,205,199670,-1967,-16296,2417,0,3,-3
3,206,199676,-1987,-16301,2488,-2,-2,-6
3,207,199682,-1914,-16293,2540,-1,-7,-4
3,208,199688,-1974,-16312,2453,-1,-4,-3
3,209,199694,-1998,-16315,2451,0,0,-5
3,210,199700,-1984,-16305,2454,0,-5,-3
3,211,199706,-1960,-16315,2477,1,-12,-4
3,212,199712,-1897,-16277,2543,1,-21,-5
3,213,199718,-1912,-16276,2521,2,-24,-6
3,214,199724,-1909,-16231,2509,1,-28,-6
3,215,199730,-1894,-16204,2494,2,-34,-3
3,216,199736,-1875,-16199,2460,2,-34,-6
3,217,199742,-1882,-16173,2439,2,-30,-5
3,218,199748,-1875,-16180,2382,1,-26,-3
3,219,199754,-1865,-16190,2344,1,-18,-4
3,220,199760,-1837,-16172,2374,2,-8,-7
3,221,199766,-1852,-16177,2414,3,-2,-7
3,222,199772,-1871,-16155,2462,3,2,-6
3,223,199779,-1867,-16171,2495,3,6,-7
3,224,199785,-1842,-16194,2524,3,5,-6
3,225,199791,-1847,-16183,2562,3,-1,-10
3,226,199797,-1808,-16179,2447,2,-11,-6
3,227,199803,-1828,-16196,2448,5,-18,-3
3,228,199809,-1801,-16225,2472,2,-20,-5
3,229,199817,-1765,-16186,2323,2,-28,-4
3,230,199823,-1763,-16214,2285,4,-24,-4
3,231,199829,-1784,-16195,2351,7,-22,-3
3,232,199836,-1739,-16185,2395,7,-22,-1
3,233,199842,-1717,-16205,2328,8,-19,-4
3,234,199848,-1716,-16222,2316,8,-13,-2
3,235,199854,-1719,-16183,2349,9,-8,-3
3,236,199860,-1701,-16193,2338,9,-2,-2
3,237,199866,-1713,-16181,2373,7,16,-1
3,238,199872,-1775,-16185,2391,10,24,-4
3,239,199878,-1774,-16180,2383,9,29,-4
3,240,199884,-1770,-16167,2450,7,28,0
3,241,199890,-1761,-16161,2469,8,27,-2
3,242,199896,-1854,-16189,2488,12,19,1
3,243,199902,-1829,-16201,2415,10,12,-2
3,244,199908,-1882,-16187,2412,11,8,2
3,245,199914,-1880,-16159,2448,10,7,2
3,246,199920,-1870,-16210,2502,12,1,2
3,247,199926,-1895,-16190,2455,12,1,1
3,248,199932,-1915,-16164,2512,11,4,4
3,249,199938,-1919,-16162,2495,10,6,4
3,250,199949,-1896,-16176,2407,8,10,0
3,251,199955,-1974,-16175,2487,9,14,-3
3,252,199961,-1941,-16178,2492,10,13,0
3,253,199967,-1897,-16132,2506,7,11,-1
3,254,199973,-1911,-16170,2490,6,15,-4
3,255,199979,-1951,-16155,2522,5,0,-4
3,256,199985,-1916,-16150,2510,9,-3,-1
3,257,199991,-1839,-16188,2533,5,-2,1
3,258,199997,-1791,-16191,2485,4,-4,-1
3,259,200003,-1843,-16212,2451,5,-5,-1
3,260,200009,-1889,-16293,2397,6,-9,0
3,261,200015,-1890,-16379,2339,3,-8,1
3,262,200021,-1903,-16361,2429,2,-8,0
3,263,200027,-1876,-16368,2382,4,-4,1
3,264,200033,-1958,-16385,2352,3,-5,-1
3,265,200039,-1939,-16386,2323,-1,-6,-4
3,266,200045,-1894,-16372,2408,2,-2,-3
3,267,200052,-1873,-16360,2463,5,-1,-5
3,268,200058,-1915,-16367,2444,4,-3,-2
3,269,200064,-1879,-16322,2362,3,-2,-2
3,270,200070,-1883,-16297,2421,4,5,-1
3,271,200076,-1940,-16294,2435,1,9,1
3,272,200082,-1936,-16289,2390,3,9,-2
3,273,200088,-1865,-16233,2442,1,18,-2
3,274,200094,-1849,-16212,2487,4,12,-3
3,275,200100,-1822,-16203,2495,1,-2,-1
3,276,200106,-1883,-16246,2451,1,-9,0
3,277,200112,-1880,-16234,2373,2,-12,3
3,278,200118,-1874,-16161,2526,1,-11,0
3,279,200124,-1818,-16146,2479,1,-13,2
3,280,200129,-1832,-16135,2440,1,-12,-2
3,281,200135,-1870,-16155,2377,-3,-11,0
3,282,200142,-1923,-16155,2358,-1,-9,0
3,283,200148,-1925,-16173,2370,-1,5,-2
3,284,200154,-1881,-16159,2402,1,10,-1
3,285,200160,-1890,-16118,2426,-5,18,-3
3,286,200166,-1877,-16132,2474,-6,23,0
3,287,200172,-1820,-16152,2446,-1,20,-2
3,288,200178,-1829,-16134,2448,-4,27,1
3,289,200184,-1830,-16160,2468,-2,31,0
3,290,200190,-1889,-16207,2477,-2,28,-1
3,291,200196,-1908,-16208,2428,-5,27,0
3,292,200202,-1935,-16274,2346,-7,35,-4
3,293,200208,-1998,-16308,2423,-4,39,-3
3,294,200214,-2072,-16306,2464,-3,35,-2
3,295,200220,-2076,-16281,2460,-4,28,-1
3,296,200226,-2006,-16275,2559,-5,26,-5
3,297,200232,-2031,-16308,2572,-4,10,-4
3,298,200238,-2014,-16303,2555,-5,-3,-5
3,299,200244,-2027,-16342,2505,-4,-12,-5
3,300,200250,-2028,-16325,2470,-3,-15,-2
3,301,200256,-2004,-16282,2503,-8,-20,-5
3,302,200262,-2071,-16268,2495,-7,-29,-5
3,303,200268,-2070,-16286,2454,-8,-28,-9
3,304,200274,-2050,-16258,2391,-9,-21,-9
3,305,200280,-2041,-16238,2466,-9,-15,-12
3,306,200286,-1963,-16229,2492,-11,-10,-12
3,307,200292,-1918,-16219,2521,-10,-16,-10
3,308,200298,-1936,-16227,2470,-7,-19,-10
3,309,200304,-1945,-16206,2399,-7,-18,-13
3,310,200310,-1854,-16237,2376,-9,-20,-8
3,311,200316,-1827,-16172,2405,-7,-20,-12
3,312,200323,-1862,-16157,2400,-7,-25,-9
3,313,200329,-1848,-16174,2369,-8,-26,-10
3,314,200335,-1752,-16193,2395,-2,-31,-11
3,315,200341,-1739,-16211,2422,-5,-30,-9
3,316,200347,-1727,-16173,2329,-6,-27,-8
3,317,200353,-1767,-16195,2263,-6,-22,-7
3,318,200359,-1799,-16245,2269,-5,3,-4
3,319,200365,-1876,-16248,2326,-3,20,-8
3,320,200371,-1899,-16228,2365,-4,28,-9
3,321,200377,-1874,-16211,2459,-4,35,-6
3,322,200383,-1844,-16197,2457,-6,36,-6
3,323,200389,-1854,-16161,2485,0,23,-5
3,324,200395,-1880,-16193,2481,-2,9,-5
3,325,200401,-1862,-16149,2384,-3,-6,-8
3,326,200407,-1901,-16140,2409,2,-12,-3
3,327,200413,-1896,-16128,2358,2,-15,-3
3,328,200419,-1909,-16115,2374,2,-10,-3
3,329,200425,-1924,-16117,2425,-1,-2,-1
3,330,200431,-1952,-16134,2465,2,3,0
3,331,200437,-1917,-16111,2475,3,8,-3
3,332,200443,-1954,-16113,2506,1,11,1
3,333,200449,-2005,-16128,2503,2,8,0
3,334,200455,-2002,-16120,2518,2,3,0
3,335,200461,-1977,-16150,2537,2,3,-3
3,336,200467,-1985,-16176,2523,2,3,-2
3,337,200473,-1980,-16178,2520,4,-6,0
3,338,200479,-1953,-16166,2487,3,-11,-2
3,339,200485,-1944,-16164,2498,3,-17,2
3,340,200491,-1963,-16177,2509,3,-24,0
3,341,200497,-1999,-16175,2453,4,-34,2
3,342,200503,-1996,-16168,2522,2,-37,3
3,343,200509,-1945,-16171,2526,3,-44,4
3,344,200515,-1836,-16163,2518,3,-52,4
3,345,200521,-1792,-16197,2471,3,-58,4
3,346,200527,-1899,-16228,2442,5,-62,8
3,347,200533,-1921,-16261,2365,5,-63,9
3,348,200540,-1951,-16290,2258,6,-53,7
3,349,200546,-1931,-16256,2228,7,-36,8
3,350,200552,-1984,-16258,2449,8,-16,7
3,351,200558,-1936,-16280,2428,8,-14,10
3,352,200564,-1946,-16289,2394,9,-9,11
3,353,200570,-1963,-16293,2415,11,1,8
3,354,200576,-2112,-16282,2547,11,-16,10
3,355,200582,-2098,-16282,2483,12,-24,9
3,356,200588,-2092,-16316,2622,14,-25,13
3,357,200594,-2027,-16274,2710,12,-35,15
3,358,200600,-1954,-16209,2716,14,-52,13
3,359,200606,-2092,-16126,2629,14,-92,20
3,360,200612,-2117,-16131,2568,17,-111,24
3,361,200618,-2130,-16185,2484,16,-114,25
3,362,200624,-2091,-16219,2446,16,-102,23
3,363,200630,-2137,-16154,2418,14,-85,20
3,364,200636,-2112,-16199,2357,17,-71,23
3,365,200642,-2042,-16214,2287,15,-58,26
3,366,200648,-2037,-16193,2291,18,-44,24
3,367,200654,-2009,-16178,2313,17,-19,25
3,368,200660,-1971,-16170,2372,21,19,31
3,369,200666,-1996,-16242,2379,21,40,29
3,370,200672,-1956,-16268,2326,22,60,30
3,371,200679,-2022,-16233,2210,23,85,32
3,372,200685,-2101,-16277,2434,26,118,36
3,373,200691,-2158,-16302,2598,29,109,40
3,374,200697,-2135,-16287,2533,30,91,41
3,375,200703,-2163,-16314,2567,31,73,43
3,376,200709,-2191,-16307,2656,31,48,50
3,377,200715,-2129,-16288,2822,37,-24,58
3,378,200721,-2059,-16249,2595,39,-55,61
3,379,200727,-2143,-16180,2546,38,-72,65
3,380,200733,-2333,-16109,2565,40,-83,69
3,381,200739,-2223,-16075,2334,45,-77,75
3,382,200745,-2233,-16067,2312,48,-45,77
3,383,200751,-2287,-16056,2409,46,-11,75
3,384,200757,-2267,-16039,2491,46,9,79
3,385,200763,-2192,-16025,2553,45,31,84
3,386,200769,-1969,-15991,2729,49,72,89
3,387,200775,-1988,-16035,2621,53,78,94
3,388,200781,-2081,-16051,2615,53,68,99
3,389,200787,-2183,-16117,2616,56,48,105
3,390,200793,-1956,-16232,2643,64,6,124
3,391,200799,-2014,-16233,2714,66,-14,128
3,392,200805,-2192,-16182,2640,70,-47,132
3,393,200811,-2332,-16205,2526,75,-84,141
3,394,200817,-2316,-16237,2406,77,-93,147
3,395,200826,-2347,-16142,2527,80,-63,155
3,396,200832,-2466,-16106,2607,86,-56,157
3,397,200838,-2489,-16072,2597,89,-35,170
3,398,200844,-2410,-16044,2701,92,-13,173
3,399,200850,-2442,-16030,2977,91,-3,176
3,400,200856,-2423,-15963,3032,96,-14,181
3,401,200862,-2250,-15921,2745,100,-17,196
3,402,200868,-2242,-15888,2892,99,-14,201
3,403,200874,-2269,-15836,2856,103,-16,210
3,404,200880,-2401,-15842,2689,106,-12,215
3,405,200886,-2601,-15935,2576,109,17,218
3,406,200892,-2563,-15984,2696,114,77,233
3,407,200898,-2404,-15969,2884,116,72,235
3,408,200904,-2411,-15970,3097,123,44,242
3,409,200910,-2621,-15950,3106,129,-2,250
3,410,200916,-2768,-15976,2870,134,-52,267
3,411,200922,-2710,-15926,3008,135,-63,274
3,412,200928,-2677,-15908,3099,138,-77,280
3,413,200934,-2809,-15892,3144,142,-104,283
3,414,200940,-2943,-15833,3061,149,-132,292
3,415,200946,-2775,-15869,2698,151,-111,304
3,416,200952,-2791,-15866,2838,150,-79,307
3,417,200958,-2769,-15861,2992,155,-56,310
3,418,200964,-2713,-15867,2913,163,-38,315
3,419,200970,-3056,-15877,2899,164,22,324
3,420,200976,-3114,-15909,2978,168,41,329
3,421,200983,-2965,-15848,3098,170,48,337
3,422,200989,-2875,-15860,3381,171,50,339
3,423,200995,-2997,-15805,3585,171,30,341
3,424,201001,-3290,-15829,3120,182,-25,358
3,425,201007,-3118,-15853,3145,181,-27,364
3,426,201013,-3152,-15830,3363,181,-27,366
3,427,201019,-3241,-15860,3364,186,-42,373
3,428,201025,-3403,-15844,3053,190,-50,373
3,429,201031,-3475,-15792,3144,191,-9,381
3,430,201037,-3307,-15805,3213,192,2,384
3,431,201043,-3245,-15837,3223,198,17,386
3,432,201049,-3271,-15834,3119,200,24,387
3,433,201055,-3496,-15730,3146,199,44,392
3,434,201061,-3632,-15768,3157,200,58,396
3,435,201067,-3570,-15814,3323,201,72,401
3,436,201073,-3548,-15798,3486,203,78,404
3,437,201079,-3692,-15844,3459,208,53,401
3,438,201085,-3875,-15841,3481,207,25,407
3,439,201091,-3927,-15866,3543,207,0,415
3,440,201097,-3836,-15758,3684,208,-10,416
3,441,201103,-3749,-15826,3565,210,-35,416
3,442,201109,-4095,-15817,3642,206,-46,413
3,443,201115,-4053,-15776,3496,215,-78,419
3,444,201121,-4000,-15746,3280,213,-79,415
3,445,201127,-3849,-15828,3350,210,-62,416
3,446,201133,-3885,-15777,3688,209,-46,413
3,447,201139,-3945,-15741,3359,213,-53,415
3,448,201145,-3852,-15768,3308,210,-31,418
3,449,201151,-3839,-15635,3390,209,-1,411
3,450,201162,-4215,-15614,3363,211,30,409
3,451,201168,-4082,-15567,3396,208,68,408
3,452,201174,-4116,-15506,3706,205,90,400
3,453,201180,-4209,-15462,3899,204,75,402
3,454,201186,-4305,-15441,3710,204,45,404
3,455,201192,-4247,-15379,3912,197,31,403
3,456,201198,-4167,-15440,3903,198,7,399
3,457,201204,-4106,-15417,3746,199,-13,398
3,458,201210,-4049,-15435,3599,199,-27,401
3,459,201216,-4085,-15439,3757,197,-36,398
3,460,201222,-4247,-15488,3591,194,-74,396
3,461,201228,-4042,-15529,3465,191,-78,397
3,462,201234,-3989,-15503,3555,189,-69,393
3,463,201240,-4077,-15458,3673,189,-75,388
3,464,201247,-4259,-15521,3185,192,-98,389
3,465,201253,-4265,-15510,3038,189,-60,384
3,466,201259,-4291,-15516,3230,189,-10,380
3,467,201265,-4387,-15486,3383,186,21,372
3,468,201271,-4442,-15443,3384,183,39,367
3,469,201277,-4514,-15404,3420,179,113,357
3,470,201283,-4588,-15344,3687,174,150,351
3,471,201289,-4691,-15287,3842,168,166,343
3,472,201295,-4730,-15288,3796,168,168,339
3,473,201301,-4733,-15261,3947,159,172,330
3,474,201307,-4706,-15235,4153,155,160,325
3,475,201313,-4727,-15244,4155,152,132,320
3,476,201319,-4855,-15239,4084,146,108,310
3,477,201325,-4914,-15220,3697,145,88,305
3,478,201331,-5077,-15296,3809,133,102,289
3,479,201337,-5082,-15317,3827,128,104,283
3,480,201343,-5088,-15338,3837,122,110,271
3,481,201349,-5150,-15367,3698,120,107,259
3,482,201355,-5214,-15418,3751,114,105,252
3,483,201361,-5127,-15462,3957,104,79,236
3,484,201367,-5101,-15476,4074,98,57,225
3,485,201373,-5118,-15506,3962,95,39,215
3,486,201379,-5236,-15505,3800,87,18,204
3,487,201385,-5285,-15572,3825,75,1,187
3,488,201391,-5252,-15579,3930,71,-10,174
3,489,201397,-5234,-15622,3847,66,-17,162
3,490,201403,-5177,-15627,3706,60,-22,150
3,491,201409,-5235,-15629,3722,54,-27,138
3,492,201415,-5213,-15671,3958,42,-67,116
3,493,201421,-5173,-15706,3798,36,-87,105
3,494,201427,-5152,-15669,3748,30,-92,89
3,495,201433,-5196,-15590,3832,22,-98,77
3,496,201439,-5154,-15557,3889,13,-122,54
3,497,201445,-5075,-15589,3821,7,-135,43
3,498,201452,-5034,-15612,3833,-3,-138,30
3,499,201458,-5029,-15621,3850,-9,-142,12
3,500,201464,-5051,-15582,3834,-17,-149,5
3,501,201470,-5027,-15558,3671,-27,-139,-23
3,502,201476,-5047,-15512,3646,-37,-131,-37
3,503,201482,-5002,-15548,3754,-44,-132,-50
3,504,201488,-4982,-15539,3857,-51,-140,-62
3,505,201494,-4781,-15520,3772,-63,-153,-90
3,506,201500,-4802,-15506,3773,-71,-153,-102
3,507,201506,-4877,-15444,3736,-77,-161,-115
3,508,201512,-4877,-15417,3814,-82,-168,-129
3,509,201518,-4739,-15462,3693,-101,-166,-160
3,510,201524,-4726,-15414,3745,-108,-157,-175
3,511,201530,-4819,-15441,3762,-112,-166,-182
3,512,201536,-4794,-15408,3684,-118,-188,-197
3,513,201542,-4686,-15395,3688,-124,-199,-210
3,514,201549,-4524,-15320,3866,-136,-213,-237
3,515,201555,-4653,-15347,3783,-141,-226,-246
3,516,201561,-4608,-15322,3612,-150,-240,-260
3,517,201567,-4420,-15229,3660,-161,-237,-275
3,518,201573,-4335,-15250,3806,-174,-232,-298
3,519,201579,-4305,-15199,3775,-181,-241,-308
3,520,201585,-4276,-15201,3597,-184,-237,-318
3,521,201591,-4216,-15200,3628,-190,-226,-331
3,522,201597,-4053,-15235,3638,-206,-250,-354
3,523,201603,-4027,-15303,3640,-207,-251,-361
3,524,201609,-4024,-15462,3412,-213,-252,-367
3,525,201615,-3974,-15404,3294,-223,-242,-387
3,526,201621,-3986,-15467,3323,-229,-221,-396
3,527,201627,-3841,-15401,3190,-236,-187,-416
3,528,201633,-3847,-15451,3072,-241,-162,-428
3,529,201639,-3879,-15466,3201,-249,-134,-439
3,530,201645,-3859,-15462,3425,-253,-118,-446
3,531,201652,-3832,-15508,3366,-258,-94,-467
3,532,201658,-3806,-15550,3477,-263,-94,-476
3,533,201664,-3764,-15595,3655,-268,-113,-484
3,534,201670,-3694,-15579,3670,-272,-142,-490
3,535,201676,-3585,-15550,3673,-275,-171,-497
3,536,201682,-3614,-15555,3546,-286,-219,-515
3,537,201688,-3595,-15627,3408,-291,-238,-515
3,538,201694,-3544,-15663,3291,-292,-251,-524
3,539,201700,-3553,-15695,3253,-297,-244,-535
3,540,201706,-3402,-15735,2977,-304,-197,-549
3,541,201712,-3403,-15727,2860,-307,-160,-559
3,542,201718,-3334,-15741,2868,-312,-123,-566
3,543,201724,-3309,-15819,2951,-316,-91,-576
3,544,201730,-3199,-16008,3005,-313,-52,-584
3,545,201736,-2930,-16030,3225,-316,-47,-591
3,546,201742,-2787,-15960,3353,-319,-69,-598
3,547,201748,-2927,-15950,3459,-318,-105,-602
3,548,201754,-3003,-15955,3162,-318,-148,-603
3,549,201760,-2764,-16031,2709,-320,-158,-608
3,550,201766,-2748,-16105,2747,-322,-129,-617
3,551,201772,-2874,-16115,2798,-322,-106,-622
3,552,201778,-2918,-16097,2559,-320,-87,-624
3,553,201784,-2629,-16082,2509,-323,-15,-633
3,554,201791,-2514,-16007,2874,-326,3,-639
3,555,201797,-2362,-15955,3034,-324,-8,-643
3,556,201803,-2288,-15899,2880,-317,-29,-642
3,557,201809,-2233,-15857,2675,-317,-36,-644
3,558,201815,-2153,-15946,2796,-317,-17,-645
3,559,201821,-2058,-15908,2660,-314,-8,-646
3,560,201827,-2112,-15942,2500,-313,22,-648
3,561,201836,-2261,-15937,2534,-315,120,-654
3,562,201842,-2182,-15963,2495,-313,163,-654
3,563,201848,-2036,-16100,2563,-310,210,-653
3,564,201854,-2011,-16091,2822,-304,260,-664
3,565,201860,-2037,-16124,2889,-303,247,-665
3,566,201866,-2080,-16143,2857,-301,230,-661
3,567,201872,-2101,-16117,2761,-298,219,-662
3,568,201878,-2042,-16149,2777,-295,214,-658
3,569,201884,-2053,-16191,2723,-290,198,-659
3,570,201890,-2105,-16194,2560,-286,184,-657
3,571,201896,-2058,-16226,2491,-285,189,-656
3,572,201902,-2101,-16244,2518,-284,209,-659
3,573,201908,-2142,-16265,2591,-275,236,-660
3,574,201914,-2059,-16263,2593,-274,234,-658
3,575,201920,-1933,-16299,2737,-271,231,-659
3,576,201926,-1874,-16325,2817,-267,218,-659
3,577,201932,-1850,-16369,2546,-262,193,-655
3,578,201938,-1792,-16326,2433,-259,202,-654
3,579,201944,-1752,-16357,2549,-258,227,-651
3,580,201950,-1716,-16335,2680,-258,251,-656
3,581,201956,-1797,-16313,2666,-251,271,-654
3,582,201962,-1803,-16236,2417,-253,342,-651
3,583,201968,-1782,-16238,2649,-251,373,-654
3,584,201975,-1749,-16311,2926,-249,378,-653
3,585,201981,-1627,-16353,2991,-240,352,-644
3,586,201987,-1502,-16358,2902,-238,283,-639
3,587,201992,-1526,-16319,3023,-237,236,-638
3,588,201998,-1548,-16276,2962,-235,180,-632
3,589,202004,-1515,-16305,2723,-229,128,-624
3,590,202010,-1438,-16384,2458,-227,106,-622
3,591,202016,-1313,-16445,2304,-224,119,-616
3,592,202023,-1248,-16457,2160,-221,129,-613
3,593,202029,-1227,-16444,2016,-219,150,-615
3,594,202035,-1074,-16441,1890,-218,174,-611
3,595,202041,-940,-16465,2149,-211,254,-608
3,596,202047,-935,-16496,2118,-206,277,-605
3,597,202053,-804,-16615,1941,-200,281,-598
3,598,202059,-747,-16578,2004,-199,286,-594
3,599,202065,3739,-18786,1989,-199,272,-591
3,600,202071,-23454,-9305,32767,-600,-1291,-999
3,601,202076,-32768,-5561,16400,221,-9510,610
3,602,202076,-32768,-5561,16400,221,-9510,610
3,603,202077,-32768,-5561,16400,221,-9510,610
3,604,202078,-32768,-5561,16400,221,-9510,610
3,605,202079,-32768,-5561,16400,221,-9510,610
3,606,202079,-32768,-5561,16400,221,-9510,610
3,607,202080,311,-25281,-32768,494,-14505,2288
3,608,202081,311,-25281,-32768,494,-14505,2288
3,609,202082,311,-25281,-32768,494,-14505,2288
3,610,202082,311,-25281,-32768,494,-14505,2288
3,611,202083,311,-25281,-32768,494,-14505,2288
3,612,202084,311,-25281,-32768,494,-14505,2288
3,613,202085,311,-25281,-32768,494,-14505,2288
3,614,202085,11132,-22293,-32768,-551,-6616,347
3,615,202086,11132,-22293,-32768,-551,-6616,347
3,616,202087,11132,-22293,-32768,-551,-6616,347
3,617,202088,11132,-22293,-32768,-551,-6616,347
3,618,202088,11132,-22293,-32768,-551,-6616,347
3,619,202089,11132,-22293,-32768,-551,-6616,347
3,620,202090,11132,-22293,-32768,-551,-6616,347
3,621,202091,-5095,-12475,-14349,-739,3080,-1027
3,622,202091,-5095,-12475,-14349,-739,3080,-1027
3,623,202092,-5095,-12475,-14349,-739,3080,-1027
3,624,202093,-5095,-12475,-14349,-739,3080,-1027
3,625,202093,-5095,-12475,-14349,-739,3080,-1027
3,626,202094,-5095,-12475,-14349,-739,3080,-1027
3,627,202095,-22875,-14001,30667,-435,5879,-611
3,628,202096,-22875,-14001,30667,-435,5879,-611
3,629,202096,-22875,-14001,30667,-435,5879,-611
3,630,202097,-22875,-14001,30667,-435,5879,-611
3,631,202098,-22875,-14001,30667,-435,5879,-611
3,632,202099,-22875,-14001,30667,-435,5879,-611
3,633,202099,-22875,-14001,30667,-435,5879,-611
3,634,202100,-4972,-13287,12862,-21,1526,80
3,635,202101,-4972,-13287,12862,-21,1526,80
3,636,202102,-4972,-13287,12862,-21,1526,80
3,637,202102,-4972,-13287,12862,-21,1526,80
3,638,202103,-4972,-13287,12862,-21,1526,80
3,639,202104,-4972,-13287,12862,-21,1526,80
3,640,202105,-4972,-13287,12862,-21,1526,80
3,641,202105,23852,-19956,-3374,60,-233,375
3,642,202106,23852,-19956,-3374,60,-233,375
3,643,202107,23852,-19956,-3374,60,-233,375
3,644,202107,23852,-19956,-3374,60,-233,375
3,645,202108,23852,-19956,-3374,60,-233,375
3,646,202109,23852,-19956,-3374,60,-233,375
3,647,202110,23852,-19956,-3374,60,-233,375
3,648,202110,-6672,-12450,26970,-387,2223,-566
3,649,202111,-6672,-12450,26970,-387,2223,-566
3,650,202112,-6672,-12450,26970,-387,2223,-566
3,651,202113,-6672,-12450,26970,-387,2223,-566
3,652,202114,-6672,-12450,26970,-387,2223,-566
3,653,202114,-6672,-12450,26970,-387,2223,-566
3,654,202115,-9876,-13422,-6327,9,-1306,200
3,655,202116,-9876,-13422,-6327,9,-1306,200
3,656,202117,-9876,-13422,-6327,9,-1306,200
3,657,202117,-9876,-13422,-6327,9,-1306,200
3,658,202118,-9876,-13422,-6327,9,-1306,200
3,659,202119,-9876,-13422,-6327,9,-1306,200
3,660,202120,5278,-22687,-32768,88,-1899,851
3,661,202120,5278,-22687,-32768,88,-1899,851
3,662,202121,5278,-22687,-32768,88,-1899,851
3,663,202122,5278,-22687,-32768,88,-1899,851
3,664,202123,5278,-22687,-32768,88,-1899,851
3,665,202123,5278,-22687,-32768,88,-1899,851
3,666,202124,5278,-22687,-32768,88,-1899,851
3,667,202125,-1107,-16452,-12138,-326,3080,-266
3,668,202125,-1107,-16452,-12138,-326,3080,-266
3,669,202126,-1107,-16452,-12138,-326,3080,-266
3,670,202127,-1107,-16452,-12138,-326,3080,-266
3,671,202128,-1107,-16452,-12138,-326,3080,-266
3,672,202128,-1107,-16452,-12138,-326,3080,-266
3,673,202129,-1107,-16452,-12138,-326,3080,-266
3,674,202130,-6510,-12092,14460,-339,5035,-506
3,675,202131,-6510,-12092,14460,-339,5035,-506
3,676,202131,-6510,-12092,14460,-339,5035,-506
3,677,202132,-6510,-12092,14460,-339,5035,-506
3,678,202133,-6510,-12092,14460,-339,5035,-506
3,679,202134,-6510,-12092,14460,-339,5035,-506
3,680,202134,-6510,-12092,14460,-339,5035,-506
3,681,202135,489,-16378,19136,-94,3359,-4
3,682,202136,489,-16378,19136,-94,3359,-4
3,683,202137,489,-16378,19136,-94,3359,-4
3,684,202137,489,-16378,19136,-94,3359,-4
3,685,202138,489,-16378,19136,-94,3359,-4
3,686,202139,489,-16378,19136,-94,3359,-4
3,687,202140,7585,-16892,-5709,107,1578,104
3,688,202140,7585,-16892,-5709,107,1578,104
3,689,202141,7585,-16892,-5709,107,1578,104
3,690,202142,7585,-16892,-5709,107,1578,104
3,691,202142,7585,-16892,-5709,107,1578,104
3,692,202143,7585,-16892,-5709,107,1578,104
3,693,202144,7585,-16892,-5709,107,1578,104
3,694,202145,3974,-17723,-10234,0,2325,38
3,695,202145,3974,-17723,-10234,0,2325,38
3,696,202146,3974,-17723,-10234,0,2325,38
3,697,202147,3974,-17723,-10234,0,2325,38
3,698,202148,3974,-17723,-10234,0,2325,38
3,699,202148,3974,-17723,-10234,0,2325,38
3,700,202149,3974,-17723,-10234,0,2325,38
3,701,202150,-2456,-16746,4532,-192,3202,-112
3,702,202151,-2456,-16746,4532,-192,3202,-112
3,703,202151,-2456,-16746,4532,-192,3202,-112
3,704,202152,-2456,-16746,4532,-192,3202,-112
3,705,202153,-2456,-16746,4532,-192,3202,-112
3,706,202154,-2456,-16746,4532,-192,3202,-112
3,707,202154,-4323,-13392,16970,-213,2803,-180
3,708,202155,-4323,-13392,16970,-213,2803,-180
3,709,202156,-4323,-13392,16970,-213,2803,-180
3,710,202156,-4323,-13392,16970,-213,2803,-180
3,711,202157,-4323,-13392,16970,-213,2803,-180
3,712,202158,-4323,-13392,16970,-213,2803,-180
3,713,202159,-4323,-13392,16970,-213,2803,-180
3,714,202159,1458,-14927,11053,-56,1232,152
3,715,202160,1458,-14927,11053,-56,1232,152
3,716,202161,1458,-14927,11053,-56,1232,152
3,717,202162,1458,-14927,11053,-56,1232,152
3,718,202162,1458,-14927,11053,-56,1232,152
3,719,202163,1458,-14927,11053,-56,1232,152
3,720,202164,1458,-14927,11053,-56,1232,152
3,721,202165,7186,-17408,30,13,393,277
3,722,202165,7186,-17408,30,13,393,277
3,723,202166,7186,-17408,30,13,393,277
3,724,202167,7186,-17408,30,13,393,277
3,725,202168,7186,-17408,30,13,393,277
3,726,202168,7186,-17408,30,13,393,277
3,727,202169,3062,-16588,1831,-78,651,80
3,728,202170,3062,-16588,1831,-78,651,80
3,729,202170,3062,-16588,1831,-78,651,80
3,730,202171,3062,-16588,1831,-78,651,80
3,731,202172,3062,-16588,1831,-78,651,80
3,732,202173,3062,-16588,1831,-78,651,80
3,733,202173,3062,-16588,1831,-78,651,80
3,734,202174,-3862,-15157,9310,-109,382,43
3,735,202175,-3862,-15157,9310,-109,382,43
3,736,202176,-3862,-15157,9310,-109,382,43
3,737,202176,-3862,-15157,9310,-109,382,43
3,738,202177,-3862,-15157,9310,-109,382,43
3,739,202178,-3862,-15157,9310,-109,382,43
3,740,202179,-3862,-15157,9310,-109,382,43
3,741,202179,-5474,-15007,9516,-39,-559,182
3,742,202180,-5474,-15007,9516,-39,-559,182
3,743,202181,-5474,-15007,9516,-39,-559,182
3,744,202181,-5474,-15007,9516,-39,-559,182
3,745,202182,-5474,-15007,9516,-39,-559,182
3,746,202183,-5474,-15007,9516,-39,-559,182
3,747,202184,-1174,-15781,1003,32,-1243,311
3,748,202184,-1174,-15781,1003,32,-1243,311
3,749,202185,-1174,-15781,1003,32,-1243,311
3,750,202186,-1174,-15781,1003,32,-1243,311
3,751,202187,-1174,-15781,1003,32,-1243,311
3,752,202187,-1174,-15781,1003,32,-1243,311
3,753,202188,-1174,-15781,1003,32,-1243,311
3,754,202189,2503,-17223,-3332,-7,-970,280
3,755,202190,2503,-17223,-3332,-7,-970,280
3,756,202190,2503,-17223,-3332,-7,-970,280
3,757,202191,2503,-17223,-3332,-7,-970,280
3,758,202192,2503,-17223,-3332,-7,-970,280
3,759,202193,2503,-17223,-3332,-7,-970,280
3,760,202193,2503,-17223,-3332,-7,-970,280
3,761,202194,127,-16761,1495,-96,-361,106
3,762,202195,127,-16761,1495,-96,-361,106
3,763,202195,127,-16761,1495,-96,-361,106
3,764,202196,127,-16761,1495,-96,-361,106
3,765,202197,127,-16761,1495,-96,-361,106
3,766,202198,127,-16761,1495,-96,-361,106
3,767,202198,127,-16761,1495,-96,-361,106
3,768,202199,-3925,-15974,6354,-83,-483,82
3,769,202200,-3925,-15974,6354,-83,-483,82
3,770,202201,-3925,-15974,6354,-83,-483,82
3,771,202201,-3925,-15974,6354,-83,-483,82
3,772,202202,-3925,-15974,6354,-83,-483,82
3,773,202203,-3925,-15974,6354,-83,-483,82
3,774,202204,-3967,-16045,2231,-4,-1077,201
3,775,202204,-3967,-16045,2231,-4,-1077,201
3,776,202205,-3967,-16045,2231,-4,-1077,201
3,777,202206,-3967,-16045,2231,-4,-1077,201
3,778,202207,-3967,-16045,2231,-4,-1077,201
3,779,202207,-3967,-16045,2231,-4,-1077,201
3,780,202208,-3967,-16045,2231,-4,-1077,201
3,781,202209,-799,-16586,-4202,28,-1003,244
3,782,202210,-799,-16586,-4202,28,-1003,244
3,783,202210,-799,-16586,-4202,28,-1003,244
3,784,202211,-799,-16586,-4202,28,-1003,244
3,785,202212,-799,-16586,-4202,28,-1003,244
3,786,202212,-799,-16586,-4202,28,-1003,244
3,787,202213,-799,-16586,-4202,28,-1003,244
3,788,202214,1038,-17019,-3530,-22,-169,155
3,789,202215,1038,-17019,-3530,-22,-169,155
3,790,202215,1038,-17019,-3530,-22,-169,155
3,791,202216,1038,-17019,-3530,-22,-169,155
3,792,202217,1038,-17019,-3530,-22,-169,155
3,793,202218,1038,-17019,-3530,-22,-169,155
3,794,202218,-428,-16635,3008,-68,495,39
3,795,202219,-428,-16635,3008,-68,495,39
3,796,202220,-428,-16635,3008,-68,495,39
3,797,202221,-428,-16635,3008,-68,495,39
3,798,202221,-428,-16635,3008,-68,495,39
3,799,202222,-428,-16635,3008,-68,495,39
3,800,202223,-428,-16635,3008,-68,495,39
3,801,202224,-2110,-16209,5423,-48,311,46
3,802,202225,-2110,-16209,5423,-48,311,46
3,803,202226,-2110,-16209,5423,-48,311,46
3,804,202232,-1505,-16390,964,10,-163,129
3,805,202238,-129,-16695,-2534,11,-55,138
3,806,202244,-696,-16313,5085,-39,699,38
3,807,202250,-810,-16223,4903,5,341,75
3,808,202256,-144,-16537,1159,35,-49,121
3,809,202262,-35,-16661,-157,18,-27,110
3,810,202268,-1029,-16422,4090,5,93,87
3,811,202274,-551,-16660,2371,40,-160,115
3,812,202280,-163,-16794,20,50,-258,122
3,813,202286,-627,-16730,397,39,-124,99
3,814,202292,-1352,-16495,2282,31,-15,82
3,815,202298,-454,-16778,872,65,-130,112
3,816,202305,-276,-16880,267,59,-47,96
3,817,202311,-695,-16632,1513,49,78,67
3,818,202317,-1208,-16579,2816,59,94,76
3,819,202323,-359,-16775,1124,82,-9,91
3,820,202329,-438,-16784,1351,71,83,78
3,821,202335,-813,-16767,2518,65,129,73
3,822,202341,-944,-16664,2819,75,57,78
3,823,202347,-465,-16879,1398,92,-36,94
3,824,202353,-626,-16841,1812,83,17,80
3,825,202359,-810,-16805,2375,88,2,86
3,826,202365,-710,-16756,2201,94,-63,98
3,827,202371,-415,-16811,1583,102,-106,103
3,828,202377,-602,-16844,1749,102,-54,92
3,829,202383,-769,-16819,1849,105,-66,98
3,830,202389,-666,-16829,1444,116,-85,105
3,831,202395,-605,-16823,1208,118,-60,106
3,832,202401,-806,-16711,1805,113,22,97
3,833,202407,-714,-16669,1639,121,15,100
3,834,202413,-715,-16660,1472,126,46,102
3,835,202419,-757,-16714,1565,125,86,100
3,836,202425,-830,-16591,1807,126,117,98
3,837,202431,-851,-16653,1939,130,88,101
3,838,202437,-798,-16603,1847,132,72,101
3,839,202443,-804,-16590,2027,135,63,104
3,840,202449,-821,-16572,2120,138,31,105
3,841,202455,-775,-16649,1919,144,-56,117
3,842,202461,-762,-16646,1832,144,-74,117
3,843,202467,-841,-16618,1831,144,-76,118
3,844,202473,-849,-16583,1789,145,-64,116
3,845,202479,-843,-16558,1665,147,-46,114
3,846,202485,-948,-16551,1683,142,34,109
3,847,202491,-1041,-16534,1708,141,84,107
3,848,202497,-1030,-16499,1827,141,126,107
3,849,202504,-991,-16376,1984,139,173,104
3,850,202515,-982,-16339,2160,134,207,102
3,851,202521,-981,-16319,2366,133,196,103
3,852,202527,-962,-16316,2527,131,171,105
3,853,202533,-936,-16292,2546,131,138,106
3,854,202539,-994,-16280,2372,129,104,105
3,855,202545,-1085,-16249,2329,126,45,112
3,856,202551,-1085,-16267,2158,125,24,112
3,857,202557,-1158,-16314,2004,124,15,109
3,858,202563,-1229,-16316,1953,120,18,108
3,859,202569,-1279,-16329,1989,116,23,105
3,860,202575,-1245,-16324,2003,118,32,102
3,861,202581,-1226,-16317,1930,113,39,104
3,862,202587,-1136,-16312,1868,113,39,103
3,863,202593,-1221,-16322,1980,111,38,98
3,864,202599,-1354,-16345,1981,108,19,99
3,865,202605,-1265,-16348,1876,108,22,95
3,866,202611,-1254,-16319,1947,103,30,92
3,867,202617,-1321,-16326,2126,100,27,89
3,868,202623,-1272,-16298,2048,100,-9,91
3,869,202629,-1281,-16285,1954,99,-7,87
3,870,202635,-1246,-16312,1970,96,-5,86
3,871,202641,-1262,-16293,2122,94,-18,88
3,872,202647,-1299,-16307,2066,91,-38,87
3,873,202653,-1172,-16326,2009,90,-51,86
3,874,202659,-1231,-16282,2055,88,-51,88
3,875,202665,-1251,-16235,2030,84,-56,85
3,876,202671,-1315,-16237,1947,83,-57,81
3,877,202677,-1359,-16269,1862,79,-35,79
3,878,202684,-1375,-16225,1927,77,-22,76
3,879,202690,-1374,-16194,2076,75,-15,76
3,880,202696,-1328,-16157,2133,72,-12,76
3,881,202702,-1366,-16129,2247,68,-8,70
3,882,202708,-1440,-16162,2223,67,-14,72
3,883,202714,-1442,-16212,2202,65,-27,70
3,884,202720,-1455,-16219,2322,61,-43,68
3,885,202726,-1509,-16198,2440,61,-65,71
3,886,202732,-1436,-16195,2328,57,-119,70
3,887,202738,-1590,-16133,2454,57,-140,69
3,888,202744,-1443,-16092,2394,54,-168,73
3,889,202750,-881,-16264,1976,52,-188,70
3,890,202756,-1644,-16121,2451,45,-162,61
3,891,202762,-1746,-16139,2039,48,-175,72
3,892,202768,-1210,-16205,1627,43,-146,71
3,893,202774,-1110,-16293,2120,38,-73,60
3,894,202780,-1341,-16184,2420,36,-55,53
3,895,202786,-1384,-16135,1878,38,-83,62
3,896,202792,-1180,-16181,1928,33,-40,60
3,897,202798,-1208,-16160,2376,27,-2,53
3,898,202804,-1421,-16215,2563,26,-11,53
3,899,202810,-1547,-16261,2291,27,-42,57
3,900,202816,-1485,-16304,2110,22,-15,56
3,901,202822,-1545,-16266,2434,21,-4,57
3,902,202828,-1676,-16174,2579,21,-30,57
3,903,202834,-1392,-16287,2226,21,-59,60
3,904,202840,-1502,-16342,2358,14,-61,54
3,905,202849,-1675,-16305,2530,10,-71,55
3,906,202855,-1480,-16409,2284,14,-100,56
3,907,202861,-1551,-16375,2263,8,-97,54
3,908,202867,-1650,-16339,2310,6,-95,51
3,909,202873,-1685,-16312,2257,6,-105,55
3,910,202879,-1601,-16332,2192,8,-99,56
3,911,202885,-1499,-16300,2359,3,-80,49
3,912,202891,-1527,-16238,2360,2,-82,48
3,913,202897,-1537,-16238,2270,3,-87,50
3,914,202903,-1550,-16260,2154,1,-88,50
3,915,202909,-1414,-16258,2246,0,-73,50
3,916,202915,-1439,-16225,2279,0,-70,50
3,917,202921,-1512,-16212,2274,-2,-67,50
3,918,202927,-1518,-16200,2200,-5,-55,47
3,919,202933,-1509,-16208,2170,-6,-33,50
3,920,202939,-1530,-16216,2266,-10,12,41
3,921,202945,-1634,-16190,2253,-9,20,43
3,922,202952,-1603,-16162,2281,-9,24,42
3,923,202958,-1526,-16184,2397,-9,27,42
3,924,202964,-1439,-16213,2547,-12,17,44
3,925,202970,-1532,-16203,2542,-15,-2,45
3,926,202975,-1570,-16220,2458,-13,-25,45
3,927,202981,-1583,-16210,2405,-13,-44,44
3,928,202987,-1566,-16252,2405,-14,-60,48
3,929,202993,-1603,-16232,2255,-13,-80,44
3,930,202999,-1641,-16230,2172,-17,-77,44
3,931,203006,-1639,-16147,2174,-17,-68,43
3,932,203012,-1527,-16135,2221,-15,-59,44
3,933,203018,-1490,-16150,2131,-16,-40,40
3,934,203024,-1459,-16123,2183,-18,-29,38
3,935,203030,-1479,-16147,2254,-18,-19,39
3,936,203036,-1474,-16118,2252,-18,-11,38
3,937,203042,-1493,-16169,2184,-16,1,39
3,938,203048,-1635,-16193,2305,-17,22,34
3,939,203054,-1650,-16173,2328,-18,21,35
3,940,203060,-1598,-16174,2362,-19,25,34
3,941,203066,-1568,-16186,2345,-18,26,33
3,942,203072,-1633,-16167,2363,-19,17,32
3,943,203078,-1679,-16161,2399,-18,0,33
3,944,203084,-1662,-16206,2354,-15,-18,35
3,945,203090,-1627,-16258,2306,-14,-29,36
3,946,203096,-1587,-16260,2332,-15,-31,34
3,947,203102,-1684,-16247,2250,-20,-47,32
3,948,203108,-1699,-16218,2214,-17,-54,30
3,949,203114,-1671,-16251,2184,-17,-56,30
3,950,203120,-1618,-16213,2254,-13,-51,32
3,951,203126,-1528,-16179,2295,-15,-52,29
3,952,203132,-1518,-16142,2274,-18,-51,26
3,953,203138,-1568,-16125,2238,-16,-47,27
3,954,203144,-1606,-16160,2193,-15,-40,29
3,955,203151,-1607,-16219,2218,-15,-8,24
3,956,203157,-1674,-16229,2247,-13,10,26
3,957,203163,-1813,-16215,2334,-19,26,21
3,958,203169,-1866,-16208,2346,-18,35,20
3,959,203175,-1798,-16215,2412,-13,37,22
3,960,203181,-1662,-16168,2586,-15,14,18
3,961,203187,-1645,-16162,2683,-16,-20,17
3,962,203193,-1715,-16168,2617,-14,-62,21
3,963,203199,-1636,-16181,2490,-11,-94,23
3,964,203205,-1640,-16153,2444,-13,-115,23
3,965,203211,-1710,-16196,2228,-12,-126,21
3,966,203217,-1706,-16211,2116,-14,-115,21
3,967,203223,-1698,-16267,2064,-11,-90,20
3,968,203229,-1674,-16305,2078,-12,-62,16
3,969,203235,-1696,-16255,2142,-15,1,10
3,970,203241,-1659,-16251,2201,-13,27,11
3,971,203247,-1703,-16315,2234,-12,51,8
3,972,203253,-1735,-16317,2340,-13,64,4
3,973,203259,-1602,-16284,2494,-9,32,10
3,974,203265,-1530,-16231,2579,-14,8,8
3,975,203271,-1586,-16275,2502,-15,-18,10
3,976,203277,-1675,-16322,2475,-10,-44,11
3,977,203283,-1731,-16324,2298,-8,-63,14
3,978,203289,-1672,-16369,2185,-8,-58,13
3,979,203295,-1732,-16387,2202,-6,-51,11
3,980,203301,-1789,-16307,2205,-7,-51,12
3,981,203307,-1748,-16346,2124,-7,-41,11
3,982,203313,-1661,-16306,2182,-7,1,9
3,983,203319,-1745,-16329,2284,-9,15,4
3,984,203326,-1782,-16302,2287,-6,18,4
3,985,203332,-1801,-16304,2324,-4,22,2
3,986,203338,-1766,-16297,2404,-3,28,4
3,987,203344,-1809,-16255,2497,-4,16,2
3,988,203350,-1773,-16266,2522,-7,-4,4
3,989,203356,-1745,-16238,2551,-4,-27,5
3,990,203362,-1715,-16276,2498,-4,-44,8
3,991,203368,-1755,-16260,2332,-4,-58,5
3,992,203374,-1791,-16262,2248,-3,-62,5
3,993,203380,-1760,-16252,2232,-2,-56,4
3,994,203386,-1734,-16299,2229,-3,-50,4
3,995,203392,-1710,-16256,2218,-1,-36,3
3,996,203398,-1773,-16237,2229,-3,1,-1
3,997,203404,-1699,-16263,2227,-3,7,0
3,998,203410,-1732,-16313,2274,-2,15,-1
3,999,203416,-1732,-16308,2262,-2,19,-1
4,0,208073,-2291,-16162,2316,5,5,1
4,1,208079,-2317,-16239,2285,2,10,1
4,2,208085,-2340,-16215,2352,3,12,0
4,3,208091,-2325,-16176,2403,4,9,2
4,4,208097,-2318,-16204,2509,3,-2,2
4,5,208103,-2340,-16202,2492,6,-24,1
4,6,208109,-2342,-16213,2481,3,-30,3
4,7,208115,-2352,-16207,2376,2,-32,2
4,8,208121,-2341,-16213,2367,4,-32,2
4,9,208127,-2273,-16203,2403,3,-30,2
4,10,208133,-2309,-16224,2388,0,-18,3
4,11,208139,-2299,-16202,2370,-1,-8,0
4,12,208145,-2325,-16223,2389,-3,3,0
4,13,208151,-2328,-16240,2411,-2,1,2
4,14,208157,-2329,-16232,2482,-2,-6,-2
4,15,208163,-2357,-16236,2400,-2,-15,0
4,16,208169,-2319,-16234,2396,-1,-22,3
4,17,208175,-2341,-16204,2426,0,-25,1
4,18,208181,-2285,-16160,2453,-1,-34,0
4,19,208187,-2253,-16118,2338,-1,-40,2
4,20,208193,-2276,-16128,2300,-1,-32,2
4,21,208199,-2221,-16167,2290,-4,-20,1
4,22,208205,-2209,-16158,2327,-6,-7,2
4,23,208211,-2264,-16183,2368,-3,3,-2
4,24,208218,-2264,-16166,2404,-2,5,-1
4,25,208223,-2246,-16176,2446,-3,7,0
4,26,208229,-2264,-16187,2489,-9,2,3
4,27,208235,-2254,-16199,2477,-5,-8,2
4,28,208241,-2338,-16153,2448,-4,-38,3
4,29,208247,-2321,-16116,2447,-3,-45,3
4,30,208253,-2325,-16121,2435,-2,-46,2
4,31,208259,-2341,-16165,2411,-5,-47,5
4,32,208265,-2329,-16118,2385,-6,-45,0
4,33,208271,-2356,-16134,2382,-6,-37,3
