event_id,seq,ts_ms,ax,ay,az,gx,gy,gz
12,0,126440,-2315,-15773,-3845,-1,2,-8
12,1,126445,-2359,-15810,-3973,-2,-5,-6
12,2,126450,-2459,-15832,-4024,2,-11,-6
12,3,126455,-2566,-15838,-3980,5,-8,-8
12,4,126460,-2538,-15827,-3917,5,-10,-5
12,5,126465,-2458,-15790,-3740,5,-14,-7
12,6,126470,-2397,-15800,-3732,5,-21,-8
12,7,126475,-2314,-15824,-3794,7,-19,-5
12,8,126480,-2342,-15818,-3887,8,-19,-5
12,9,126485,-2293,-15782,-3879,7,-23,-6
12,10,126490,-2257,-15769,-3918,6,-25,-4
12,11,126495,-2259,-15779,-3909,5,-21,-10
12,12,126500,-2353,-15775,-3879,5,-15,-10
12,13,126505,-2431,-15762,-3868,4,-9,-13
12,14,126510,-2424,-15723,-3795,6,-10,-16
12,15,126515,-2371,-15764,-3701,4,-10,-17
12,16,126520,-2356,-15751,-3512,3,-8,-18
12,17,126525,-2342,-15792,-3449,6,-8,-19
12,18,126530,-2302,-15778,-3369,6,-10,-20
12,19,126535,-2142,-15702,-3366,5,-13,-15
12,20,126540,-2024,-15747,-3499,6,-9,-12
12,21,126545,-2022,-15794,-3507,5,-1,-13
12,22,126550,-2085,-15822,-3546,1,-3,-8
12,23,126555,-2110,-15824,-3701,1,-13,-5
12,24,126560,-2212,-15785,-3875,3,-20,-3
12,25,126565,-2320,-15819,-3932,2,-14,-1
12,26,126570,-2343,-15851,-3877,-2,-12,-2
12,27,126575,-2299,-15818,-3839,1,-12,-2
12,28,126580,-2366,-15842,-3881,1,-13,-3
12,29,126585,-2471,-15874,-3976,1,-17,-2
12,30,126590,-2522,-15854,-3941,3,-19,2
12,31,126595,-2506,-15855,-3913,3,-19,-1
12,32,126600,-2372,-15846,-3869,5,-18,-4
12,33,126605,-2306,-15850,-3790,6,-23,-4
12,34,126610,-2308,-15774,-3656,6,-28,-7
12,35,126615,-2388,-15784,-3623,8,-40,-5
12,36,126620,-2331,-15748,-3777,11,-48,-3
12,37,126625,-2168,-15666,-3856,10,-43,-5
12,38,126630,-2123,-15693,-3910,11,-26,-5
12,39,126635,-2057,-15727,-3966,12,-16,-6
12,40,126640,-1970,-15743,-3962,12,-4,-2
12,41,126645,-1985,-15771,-3846,9,11,-2
12,42,126650,-2125,-15772,-3730,8,10,-4
12,43,126655,-2284,-15788,-3856,11,-4,-3
12,44,126660,-2331,-15778,-4073,8,3,-5
12,45,126665,-2449,-15810,-3796,5,13,-11
12,46,126670,-2576,-15847,-3521,4,2,-12
12,47,126675,-2562,-15896,-3632,9,-24,-7
12,48,126680,-2459,-15825,-3821,12,-29,-3
12,49,126685,-2444,-15827,-3878,8,-6,-8
12,50,126690,-2587,-15847,-3750,8,7,-10
12,51,126695,-2687,-15802,-3669,9,-8,-9
12,52,126700,-2540,-15816,-3775,11,-30,-4
12,53,126705,-2284,-15796,-3824,11,-29,-3
12,54,126710,-2144,-15796,-3803,8,-6,-2
12,55,126715,-2158,-15745,-3691,10,9,-2
12,56,126720,-2189,-15720,-3589,12,-3,-1
12,57,126725,-2240,-15742,-3578,13,-16,-3
12,58,126730,-2255,-15770,-3474,14,-11,-5
12,59,126735,-2346,-15763,-3398,11,2,-8
12,60,126740,-2456,-15788,-3408,7,7,-8
12,61,126745,-2477,-15835,-3537,6,3,-5
12,62,126750,-2396,-15818,-3635,7,-2,-5
12,63,126755,-2351,-15790,-3658,6,-1,-3
12,64,126760,-2339,-15821,-3600,4,-3,-6
12,65,126765,-2366,-15825,-3526,2,-12,-5
12,66,126770,-2467,-15832,-3676,3,-27,-2
12,67,126775,-2398,-15834,-3974,4,-29,4
12,68,126780,-2379,-15854,-4035,2,-15,2
12,69,126785,-2426,-15877,-3839,1,1,-1
12,70,126790,-2550,-15880,-3607,0,-11,-4
12,71,126795,-2567,-15821,-3692,4,-37,-3
12,72,126800,-2574,-15811,-3838,7,-41,-4
12,73,126805,-2495,-15793,-3722,5,-23,-6
12,74,126810,-2431,-15763,-3519,3,-9,-8
12,75,126815,-2288,-15765,-3421,5,-13,-5
12,76,126820,-2156,-15744,-3507,8,-22,-3
12,77,126825,-2124,-15703,-3683,8,-20,-3
12,78,126830,-2238,-15775,-3776,7,-8,-5
12,79,126835,-2353,-15783,-3718,6,1,-8
12,80,126840,-2369,-15813,-3654,4,1,-5
12,81,126845,-2343,-15814,-3730,5,-9,-3
12,82,126850,-2293,-15833,-3850,5,-13,-2
12,83,126855,-2245,-15822,-3898,0,-2,0
12,84,126860,-2217,-15771,-3878,1,1,-3
12,85,126865,-2295,-15774,-3828,6,-7,-4
12,86,126870,-2319,-15787,-3797,5,-19,-5
12,87,126875,-2277,-15765,-3771,4,-28,-4
12,88,126880,-2237,-15773,-3870,6,-23,-2
12,89,126885,-2354,-15812,-3877,5,-18,-5
12,90,126890,-2463,-15795,-3815,5,-18,-7
12,91,126895,-2486,-15785,-3780,6,-29,-5
12,92,126900,-2440,-15819,-3672,5,-32,-5
12,93,126905,-2385,-15778,-3627,6,-29,-7
12,94,126910,-2365,-15807,-3595,6,-23,-5
12,95,126915,-2240,-15791,-3611,5,-24,-3
12,96,126920,-2143,-15757,-3637,5,-25,-5
12,97,126925,-2108,-15779,-3676,3,-30,-2
12,98,126930,-2052,-15798,-3722,5,-34,2
12,99,126935,-2046,-15780,-3780,7,-35,1
12,100,126940,-2108,-15787,-3781,5,-28,-4
12,101,126945,-2194,-15762,-3806,7,-11,-5
12,102,126950,-2253,-15782,-3708,6,6,-6
12,103,126955,-2291,-15786,-3560,3,7,-9
12,104,126960,-2337,-15784,-3631,5,-14,-7
12,105,126965,-2379,-15811,-3777,7,-30,-4
12,106,126970,-2315,-15780,-3833,2,-17,-7
12,107,126975,-2278,-15803,-3784,4,2,-5
12,108,126980,-2261,-15827,-3645,0,10,-8
12,109,126985,-2237,-15750,-3574,4,-3,-5
12,110,126990,-2207,-15788,-3610,5,-20,3
12,111,126995,-2202,-15851,-3724,5,-19,1
12,112,127000,-2218,-15829,-3724,2,-4,-1
12,113,127005,-2330,-15784,-3642,2,2,3
12,114,127010,-2319,-15773,-3677,4,-6,4
12,115,127015,-2331,-15792,-3687,4,-13,5
12,116,127020,-2304,-15814,-3685,8,-14,7
12,117,127025,-2349,-15786,-3679,5,-15,2
12,118,127030,-2455,-15805,-3891,6,-24,2
12,119,127035,-2471,-15825,-3989,6,-18,2
12,120,127040,-2602,-15825,-3857,6,-8,-4
12,121,127045,-2590,-15812,-3663,6,-13,-4
12,122,127050,-2475,-15769,-3636,5,-25,0
12,123,127055,-2395,-15804,-3727,4,-26,-1
12,124,127060,-2421,-15846,-3782,6,-11,-3
12,125,127065,-2457,-15844,-3712,4,2,-7
12,126,127070,-2441,-15767,-3625,4,-4,-2
12,127,127075,-2373,-15758,-3671,7,-20,-2
12,128,127080,-2317,-15784,-3850,7,-19,-2
12,129,127085,-2344,-15781,-3834,4,-8,-4
12,130,127090,-2352,-15740,-3689,5,-3,-5
12,131,127095,-2339,-15755,-3615,6,-6,-6
12,132,127100,-2317,-15749,-3599,7,-14,-3
12,133,127105,-2271,-15773,-3638,5,-13,-2
12,134,127110,-2237,-15783,-3645,2,-9,-2
12,135,127115,-2282,-15782,-3503,3,-7,-2
12,136,127120,-2232,-15780,-3502,1,-8,-3
12,137,127125,-2248,-15772,-3463,0,-6,-2
12,138,127130,-2339,-15751,-3454,0,-10,-7
12,139,127135,-2434,-15750,-3440,-1,-17,-6
12,140,127140,-2444,-15817,-3543,3,-27,-6
12,141,127145,-2396,-15825,-3667,-3,-27,-6
12,142,127150,-2367,-15848,-3744,-2,-21,-4
12,143,127155,-2393,-15861,-3716,0,-26,-2
12,144,127160,-2462,-15855,-3738,-1,-28,-5
12,145,127165,-2530,-15855,-3691,-2,-34,-4
12,146,127170,-2452,-15859,-3803,-2,-41,2
12,147,127175,-2368,-15875,-3906,-3,-24,1
12,148,127180,-2292,-15836,-3868,-3,-7,1
12,149,127185,-2159,-15818,-3819,-1,-11,2
12,150,127190,-2147,-15841,-3734,-3,-21,2
12,151,127195,-2172,-15774,-3728,-2,-25,3
12,152,127200,-2290,-15779,-3809,0,-22,3
12,153,127205,-2301,-15812,-3904,2,-11,-1
12,154,127210,-2316,-15737,-3870,1,-2,-1
12,155,127215,-2350,-15721,-3772,0,0,-3
12,156,127220,-2411,-15784,-3728,-1,1,-4
12,157,127225,-2442,-15828,-3756,2,-2,-1
12,158,127230,-2390,-15783,-3794,1,0,0
12,159,127235,-2370,-15798,-3673,-1,8,0
12,160,127240,-2425,-15819,-3629,-1,5,-1
12,161,127245,-2585,-15828,-3673,2,-8,1
12,162,127250,-2493,-15865,-3865,2,-11,4
12,163,127255,-2435,-15817,-3858,0,6,2
12,164,127260,-2507,-15825,-3831,-3,18,0
12,165,127265,-2506,-15837,-3765,-2,18,-4
12,166,127270,-2587,-15817,-3622,-3,15,-8
12,167,127275,-2483,-15789,-3583,-1,-3,-5
12,168,127280,-2357,-15780,-3542,2,-16,-4
12,169,127285,-2347,-15803,-3739,5,-28,-6
12,170,127290,-2413,-15820,-3907,7,-25,-4
12,171,127295,-2352,-15814,-3961,4,-8,-4
12,172,127300,-2490,-15799,-3720,4,-1,-6
12,173,127305,-2454,-15779,-3790,8,-20,-3
12,174,127310,-2278,-15780,-3984,10,-30,-1
12,175,127315,-2242,-15828,-4031,7,-15,-1
12,176,127320,-2385,-15831,-3843,6,0,-4
12,177,127325,-2416,-15782,-3884,10,-6,-3
12,178,127330,-2405,-15811,-4121,10,-13,-1
12,179,127335,-2398,-15819,-4105,5,-3,-3
12,180,127340,-2436,-15810,-3813,3,8,-11
12,181,127345,-2615,-15818,-3642,-1,0,-14
12,182,127350,-2662,-15820,-3665,2,-17,-13
12,183,127355,-2624,-15826,-3687,3,-24,-9
12,184,127360,-2540,-15886,-3702,3,-18,-7
12,185,127365,-2503,-15919,-3701,4,-8,-12
12,186,127370,-2599,-15954,-3594,5,-1,-13
12,187,127375,-2681,-15952,-3375,4,-10,-12
12,188,127380,-2638,-15894,-3356,8,-27,-8
12,189,127385,-2433,-15903,-3526,12,-29,-5
12,190,127390,-2301,-15864,-3671,12,-15,-6
12,191,127395,-2124,-15862,-4119,14,-28,-5
12,192,127400,-2206,-15894,-4201,12,-24,-8
12,193,127405,-2275,-15940,-4088,9,-15,-8
12,194,127410,-2280,-15968,-4053,9,10,-8
12,195,127415,-2238,-15982,-4049,8,37,-11
12,196,127420,-2369,-15938,-3902,7,64,-16
12,197,127425,-2538,-15904,-3711,10,65,-20
12,198,127430,-2614,-15856,-3608,8,54,-15
12,199,127435,-2627,-15817,-3548,11,52,-18
12,200,127440,-2485,-15855,-3514,9,55,-22
12,201,127445,-2317,-15952,-3402,9,54,-22
12,202,127450,-2330,-15874,-3317,12,45,-23
12,203,127455,-2501,-15761,-3410,12,14,-22
12,204,127460,-2553,-15659,-3590,15,-20,-21
12,205,127465,-2415,-15585,-3669,14,-34,-18
12,206,127470,-2218,-15566,-3660,13,-28,-17
12,207,127475,-1988,-15576,-3573,11,-17,-19
12,208,127480,-1902,-15635,-3540,14,-24,-16
12,209,127485,-1731,-15716,-3667,16,-42,-12
12,210,127490,-1805,-15764,-3642,13,-47,-15
12,211,127495,-2031,-15738,-3716,12,-47,-14
12,212,127500,-2088,-15766,-3867,9,-27,-12
12,213,127505,-2126,-15757,-3892,7,10,-13
12,214,127510,-2132,-15848,-3814,5,47,-14
12,215,127515,-2273,-15980,-3726,3,59,-12
12,216,127520,-2176,-15915,-3814,2,45,-11
12,217,127525,-2111,-15952,-3853,4,36,-9
12,218,127530,-2202,-15979,-3828,2,40,-12
12,219,127535,-2385,-16022,-3585,1,45,-14
12,220,127540,-2274,-15990,-3471,1,40,-14
12,221,127545,-2203,-15999,-3295,-2,40,-15
12,222,127550,-2066,-15981,-3305,4,38,-15
12,223,127555,-2015,-16062,-3502,6,36,-14
12,224,127560,-2062,-16086,-3724,2,29,-19
12,225,127565,-2383,-15958,-3639,-3,25,-24
12,226,127570,-2521,-15741,-3651,-6,11,-20
12,227,127575,-2308,-15677,-3716,-6,13,-14
12,228,127580,-2132,-15672,-3625,-10,30,-17
12,229,127585,-2145,-15715,-3360,-9,22,-19
12,230,127590,-2236,-15677,-3298,-6,-22,-17
12,231,127595,-2280,-15691,-3574,-8,-71,-17
12,232,127600,-2375,-15747,-3910,-9,-88,-19
12,233,127605,-2482,-15926,-3803,-13,-69,-22
12,234,127610,-2361,-16038,-3590,-18,-44,-26
12,235,127615,-2160,-16103,-3599,-18,-23,-27
12,236,127620,-2074,-16142,-3584,-19,-2,-32
12,237,127625,-2135,-16124,-3432,-20,-1,-32
12,238,127630,-2149,-16135,-3240,-21,-23,-32
12,239,127635,-1941,-16184,-3382,-20,-57,-28
12,240,127640,-2050,-16179,-3546,-23,-66,-29
12,241,127645,-2394,-16021,-3519,-26,-65,-37
12,242,127650,-2560,-15943,-3564,-31,-81,-38
12,243,127655,-2546,-15969,-3817,-27,-96,-31
12,244,127660,-2619,-15869,-3882,-27,-90,-33
12,245,127665,-2573,-15700,-3744,-30,-73,-37
12,246,127670,-2481,-15553,-3605,-32,-61,-35
12,247,127675,-2339,-15536,-3598,-32,-54,-32
12,248,127680,-2166,-15475,-3511,-33,-44,-32
12,249,127685,-2110,-15433,-3389,-35,-41,-35
12,250,127690,-2101,-15297,-3387,-34,-61,-31
12,251,127695,-2154,-15330,-3413,-32,-89,-21
12,252,127700,-2153,-15424,-3414,-33,-109,-17
12,253,127705,-2142,-15527,-3581,-34,-115,-12
12,254,127710,-2025,-15536,-3614,-36,-99,-11
12,255,127715,-2075,-15595,-3653,-35,-85,-9
12,256,127720,-2177,-15764,-3594,-34,-88,-5
12,257,127725,-2317,-15796,-3629,-34,-99,-2
12,258,127730,-2273,-15725,-3684,-37,-91,1
12,259,127735,-2200,-15738,-3589,-36,-66,7
12,260,127740,-2101,-15815,-3432,-33,-49,8
12,261,127745,-2037,-15924,-3480,-29,-65,17
12,262,127750,-2068,-15974,-3769,-27,-83,20
12,263,127755,-2308,-15917,-4225,-24,-77,18
12,264,127760,-2676,-15684,-4191,-25,14,16
12,265,127765,-2754,-15581,-3981,-21,51,16
12,266,127770,-2664,-15545,-4188,-16,76,19
12,267,127775,-2529,-15514,-4070,-15,103,18
12,268,127780,-2555,-15502,-3478,-17,104,15
12,269,127785,-2562,-15491,-3115,-14,70,15
12,270,127790,-2342,-15551,-3331,-5,32,22
12,271,127795,-2347,-15634,-3513,-5,27,19
12,272,127800,-2407,-15699,-3482,-4,16,17
12,273,127805,-2386,-15828,-3569,1,-17,24
12,274,127810,-2356,-15954,-3925,3,-45,21
12,275,127815,-2429,-16019,-4150,10,-30,19
12,276,127820,-2577,-15908,-4205,9,8,13
12,277,127825,-2605,-15740,-4083,3,47,8
12,278,127830,-2590,-15753,-3851,6,65,6
12,279,127835,-2453,-15895,-3611,12,65,4
12,280,127840,-2224,-16005,-3360,11,50,6
12,281,127845,-2081,-16148,-3390,15,19,7
12,282,127850,-2185,-16193,-3525,17,-21,3
12,283,127855,-2333,-16126,-3587,16,-67,3
12,284,127860,-2347,-15917,-3661,14,-97,3
12,285,127865,-2290,-15835,-3766,17,-94,-2
12,286,127870,-2372,-15862,-3804,20,-74,-7
12,287,127875,-2465,-15914,-3950,20,-65,-7
12,288,127880,-2482,-15788,-4093,21,-52,-9
12,289,127885,-2549,-15654,-4150,20,-23,-17
12,290,127890,-2542,-15603,-3965,17,-1,-17
12,291,127895,-2523,-15585,-3835,15,8,-18
12,292,127900,-2367,-15594,-3687,19,-4,-18
12,293,127905,-2270,-15599,-3465,15,-18,-18
12,294,127910,-2138,-15613,-3388,14,-23,-18
12,295,127915,-2157,-15722,-3356,16,-21,-20
12,296,127920,-2083,-15830,-3438,18,-20,-20
12,297,127925,-2069,-15877,-3511,14,-15,-21
12,298,127930,-2117,-15784,-3466,11,-13,-21
12,299,127935,-2196,-15894,-3590,12,-17,-19
12,300,127940,-2220,-16046,-3900,11,-15,-19
12,301,127945,-2235,-16005,-3958,6,-2,-18
12,302,127950,-2178,-15769,-3757,4,-4,-16
12,303,127955,-2095,-15603,-3723,6,-21,-16
12,304,127960,-2029,-15682,-3798,3,-43,-11
12,305,127965,-2120,-15789,-3798,4,-55,-9
12,306,127970,-2196,-15755,-3839,6,-59,-12
12,307,127975,-2225,-15641,-3994,6,-55,-8
12,308,127980,-2304,-15709,-4023,2,-46,-6
12,309,127985,-2467,-15851,-3916,-1,-44,-8
12,310,127990,-2468,-15843,-3878,-1,-45,-6
12,311,127995,-2490,-15761,-3816,-1,-28,-7
12,312,128000,-2524,-15747,-3754,-1,-5,-9
12,313,128005,-2415,-15775,-3629,1,2,-8
12,314,128010,-2190,-15732,-3659,0,-7,-2
12,315,128015,-2060,-15745,-3901,-3,-11,-1
12,316,128020,-2198,-15781,-4115,-1,-10,-3
12,317,128025,-2228,-15862,-4142,-2,-2,-1
12,318,128030,-2152,-15906,-3877,-6,8,-1
12,319,128035,-2173,-15844,-3679,-8,17,-4
12,320,128040,-2256,-15813,-3603,-8,24,-1
12,321,128045,-2241,-15805,-3731,-11,29,-1
12,322,128050,-2101,-15825,-3816,-13,28,1
12,323,128055,-2034,-15773,-3755,-15,20,3
12,324,128060,-2084,-15624,-3660,-17,8,3
12,325,128065,-2169,-15504,-3656,-17,-12,3
12,326,128070,-2234,-15567,-3846,-17,-28,10
12,327,128075,-2208,-15626,-3866,-12,-37,14
12,328,128080,-2163,-15672,-3576,-16,-47,11
12,329,128085,-2222,-15696,-3563,-16,-62,13
12,330,128090,-2262,-15679,-3758,-14,-80,18
12,331,128095,-2310,-15659,-3902,-16,-79,17
12,332,128100,-2311,-15719,-3987,-16,-62,15
12,333,128105,-2298,-15744,-3918,-16,-42,13
12,334,128110,-2526,-15680,-3764,-15,-23,11
12,335,128115,-2737,-15729,-3978,-15,-19,10
12,336,128120,-2657,-15807,-4309,-15,-18,16
12,337,128125,-2565,-15773,-3822,-16,-1,12
12,338,128130,-2604,-15869,-3794,-8,-24,13
12,339,128135,-2582,-15885,-4050,-5,-44,15
12,340,128140,-2691,-15914,-3992,-8,-43,12
12,341,128145,-2762,-15890,-3853,-7,-45,10
12,342,128150,-2663,-15838,-3831,-5,-44,13
12,343,128155,-2526,-15872,-3782,0,-38,15
12,344,128160,-2503,-15907,-3627,-1,-33,11
12,345,128165,-2593,-15955,-3532,-2,-39,15
12,346,128170,-2668,-15955,-3659,-1,-45,14
12,347,128175,-2592,-15854,-3572,-2,-46,15
12,348,128180,-2551,-15869,-3433,-3,-43,18
12,349,128185,-2695,-15915,-3270,-1,-55,16
12,350,128190,-2809,-15891,-3353,0,-75,23
12,351,128195,-2808,-15804,-3383,-2,-79,27
12,352,128200,-2702,-15747,-3344,-1,-73,27
12,353,128205,-2755,-15600,-3321,3,-77,27
12,354,128210,-3068,-15560,-3563,6,-106,28
12,355,128215,-3273,-15571,-3867,5,-138,36
12,356,128220,-3179,-15510,-4063,7,-143,45
12,357,128225,-3027,-15450,-3991,5,-119,44
12,358,128230,-3211,-15512,-3834,6,-94,39
12,359,128235,-3498,-15692,-3906,11,-91,44
12,360,128240,-3410,-15705,-3938,12,-78,54
12,361,128245,-2791,-15514,-3708,9,-26,55
12,362,128250,-2820,-15524,-3325,13,25,43
12,363,128255,-3098,-15614,-3123,20,10,45
12,364,128260,-3195,-15690,-3318,20,-49,60
12,365,128265,-3097,-15751,-3702,19,-63,66
12,366,128270,-3040,-15765,-3829,20,-3,62
12,367,128275,-3289,-15722,-3651,19,57,58
12,368,128280,-3599,-15757,-3468,20,63,60
12,369,128285,-3692,-15893,-3749,21,37,70
12,370,128290,-3597,-16020,-3882,24,51,77
12,371,128295,-3615,-15959,-3513,23,98,72
12,372,128300,-3838,-15840,-3002,26,107,71
12,373,128305,-3931,-15792,-3031,33,56,79
12,374,128310,-3756,-15833,-3330,37,0,94
12,375,128315,-3416,-15663,-3065,37,-29,100
12,376,128320,-3236,-15532,-2575,39,-75,109
12,377,128325,-3208,-15570,-2469,49,-169,123
12,378,128330,-3251,-15653,-2947,58,-276,135
12,379,128335,-3309,-15686,-3381,61,-336,148
12,380,128340,-3369,-15597,-3617,60,-324,155
12,381,128345,-3482,-15507,-3816,63,-277,159
12,382,128350,-3621,-15589,-4231,67,-233,164
12,383,128355,-3790,-15683,-4545,68,-172,168
12,384,128360,-3903,-15670,-4542,67,-79,170
12,385,128365,-4130,-15524,-4079,65,41,160
12,386,128370,-4302,-15487,-3902,71,129,165
12,387,128375,-4288,-15527,-3943,76,186,174
12,388,128380,-4114,-15519,-3665,73,229,175
12,389,128385,-4015,-15541,-3131,75,243,175
12,390,128390,-4055,-15648,-2955,80,221,180
12,391,128395,-4104,-15763,-3069,86,183,194
12,392,128400,-3983,-15721,-3134,89,159,207
12,393,128405,-3904,-15728,-2960,83,158,209
12,394,128410,-3959,-15789,-2653,86,154,214
12,395,128415,-3887,-15639,-2462,89,131,224
12,396,128420,-3871,-15572,-2480,95,79,234
12,397,128425,-3969,-15630,-2473,95,12,247
12,398,128430,-4036,-15652,-2522,98,-57,258
12,399,128435,-3939,-15602,-2750,100,-112,274
12,400,128440,-3888,-15612,-3015,98,-126,282
12,401,128445,-3978,-15606,-3312,97,-121,287
12,402,128450,-4030,-15539,-3384,97,-122,292
12,403,128455,-4085,-15582,-3374,100,-122,302
12,404,128460,-4034,-15657,-3673,103,-96,309
12,405,128465,-3959,-15770,-4015,103,-33,316
12,406,128470,-4024,-15743,-3771,97,51,311
12,407,128475,-4113,-15669,-3213,98,103,309
12,408,128480,-4237,-15689,-3157,105,107,316
12,409,128485,-4299,-15700,-3477,112,113,327
12,410,128490,-4592,-15822,-3512,111,144,327
12,411,128495,-4578,-15920,-3180,111,140,330
12,412,128500,-4413,-15808,-2976,112,131,337
12,413,128505,-4335,-15845,-3001,119,133,341
12,414,128510,-4401,-15837,-3025,118,137,340
12,415,128515,-4293,-15721,-2975,120,114,345
12,416,128520,-4291,-15711,-3025,124,75,354
12,417,128525,-4354,-15671,-3265,125,38,358
12,418,128530,-4354,-15651,-3286,125,15,364
12,419,128535,-4315,-15717,-3061,119,0,367
12,420,128540,-4300,-15746,-2999,121,-13,370
12,421,128545,-4325,-15754,-3225,126,-9,370
12,422,128550,-4304,-15757,-3289,126,17,372
12,423,128555,-4242,-15796,-3010,124,39,369
12,424,128560,-4267,-15868,-2732,127,34,370
12,425,128565,-4328,-15858,-2685,128,14,373
12,426,128570,-4357,-15776,-2946,132,11,375
12,427,128575,-4339,-15765,-3277,133,42,377
12,428,128580,-4335,-15740,-3292,130,77,377
12,429,128585,-4311,-15731,-3230,128,84,378
12,430,128590,-4310,-15672,-3200,128,66,378
12,431,128595,-4441,-15637,-3238,128,41,380
12,432,128600,-4491,-15671,-3138,131,22,382
12,433,128605,-4507,-15650,-3086,133,11,385
12,434,128610,-4251,-15715,-3415,136,1,390
12,435,128615,-4106,-15777,-3338,135,11,387
12,436,128620,-4328,-15675,-2802,132,5,386
12,437,128625,-4492,-15648,-2806,138,-52,392
12,438,128630,-4371,-15702,-3405,146,-103,402
12,439,128635,-4497,-15680,-3579,140,-90,393
12,440,128640,-4740,-15681,-3309,140,-62,391
12,441,128645,-4726,-15641,-3075,136,-47,394
12,442,128650,-4457,-15672,-3179,138,-29,396
12,443,128655,-4149,-15885,-3174,140,15,397
12,444,128660,-4059,-15919,-2857,131,67,390
12,445,128665,-4143,-15881,-2674,132,86,394
12,446,128670,-4228,-15905,-2925,136,93,394
12,447,128675,-4186,-15883,-3287,131,124,394
12,448,128680,-4256,-15865,-3193,126,179,389
12,449,128685,-4379,-15871,-2801,122,206,386
12,450,128690,-4306,-15818,-2716,123,187,390
12,451,128695,-4225,-15769,-2690,125,158,394
12,452,128700,-4310,-15732,-2546,127,131,391
12,453,128705,-4505,-15583,-2630,130,94,393
12,454,128710,-4642,-15447,-2672,127,51,398
12,455,128715,-4653,-15382,-2661,128,-9,403
12,456,128720,-4523,-15481,-2787,136,-71,409
12,457,128725,-4454,-15592,-3019,139,-112,413
12,458,128730,-4484,-15637,-3324,138,-129,405
12,459,128735,-4683,-15578,-3265,138,-125,402
12,460,128740,-4669,-15514,-3262,138,-122,404
12,461,128745,-4386,-15645,-3542,140,-105,406
12,462,128750,-4274,-15740,-3522,143,-54,396
12,463,128755,-4452,-15686,-3324,140,-9,382
12,464,128760,-4572,-15543,-3152,141,-4,383
12,465,128765,-4422,-15470,-3109,140,-14,382
12,466,128770,-4412,-15587,-3152,138,-5,377
12,467,128775,-4453,-15724,-3122,138,11,372
12,468,128780,-4409,-15668,-3148,141,24,370
12,469,128785,-4305,-15620,-3237,140,44,370
12,470,128790,-4304,-15655,-3153,141,79,367
12,471,128795,-4429,-15600,-2918,141,111,357
12,472,128800,-4555,-15575,-2660,140,106,356
12,473,128805,-4424,-15556,-2713,140,82,359
12,474,128810,-4331,-15637,-2882,141,60,356
12,475,128815,-4242,-15672,-2846,139,46,353
12,476,128820,-4316,-15660,-2605,137,26,348
12,477,128825,-4350,-15622,-2568,137,-18,348
12,478,128830,-4430,-15690,-2896,141,-59,348
12,479,128835,-4475,-15784,-3267,136,-57,342
12,480,128840,-4340,-15782,-3396,127,-33,336
12,481,128845,-4333,-15770,-2953,120,-5,324
12,482,128850,-4454,-15693,-2404,122,-22,321
12,483,128855,-4021,-15683,-2904,124,-89,323
12,484,128860,-3919,-15626,-3037,122,-68,314
12,485,128865,-3947,-15500,-2933,115,-61,307
12,486,128870,-4051,-15417,-3079,111,-87,303
12,487,128875,-4192,-15407,-3565,113,-96,306
12,488,128880,-4281,-15431,-3943,110,-36,299
12,489,128885,-4181,-15369,-3781,100,67,282
12,490,128890,-4072,-15358,-3201,91,135,270
12,491,128895,-4068,-15304,-2690,90,138,267
12,492,128900,-4081,-15244,-2652,93,98,265
12,493,128905,-4090,-15251,-2808,91,64,257
12,494,128910,-4037,-15250,-2859,87,41,252
12,495,128915,-3966,-15372,-2769,82,10,250
12,496,128920,-3716,-15485,-2951,81,-42,249
12,497,128925,-3401,-15556,-3447,80,-79,252
12,498,128930,-3572,-15652,-3697,78,-69,237
12,499,128935,-3905,-15680,-3695,71,-40,222
12,500,128940,-3910,-15579,-3639,68,-15,217
12,501,128945,-3702,-15438,-3446,62,14,210
12,502,128950,-3586,-15442,-3283,59,46,201
12,503,128955,-3669,-15522,-3191,59,48,191
12,504,128960,-3737,-15411,-3211,57,12,185
12,505,128965,-3723,-15309,-3373,55,-43,182
12,506,128970,-3738,-15257,-3481,52,-65,172
12,507,128975,-3692,-15254,-3499,41,-46,160
12,508,128980,-3582,-15269,-3376,35,-3,152
12,509,128985,-3420,-15258,-3165,32,27,140
12,510,128990,-3400,-15267,-3107,31,29,131
12,511,128995,-3223,-15351,-3220,28,14,124
12,512,129000,-3252,-15347,-3249,22,6,110
12,513,129005,-3397,-15328,-3056,14,-5,98
12,514,129010,-3463,-15280,-3038,12,-41,88
12,515,129015,-3397,-15261,-3201,11,-84,84
12,516,129020,-3213,-15346,-3545,10,-107,75
12,517,129025,-3117,-15381,-3640,7,-111,65
12,518,129030,-3131,-15332,-3561,5,-125,56
12,519,129035,-3160,-15191,-3652,-1,-146,42
12,520,129040,-3181,-15247,-4034,-1,-154,29
12,521,129045,-3125,-15310,-4276,-1,-120,16
12,522,129050,-3321,-15360,-4181,-4,-67,-2
12,523,129055,-3403,-15313,-3981,-5,-42,-16
12,524,129060,-3215,-15275,-3740,-10,-39,-29
12,525,129065,-3069,-15269,-3604,-15,-48,-44
12,526,129070,-3091,-15372,-3649,-16,-57,-58
12,527,129075,-3161,-15389,-3682,-18,-60,-74
12,528,129080,-3126,-15368,-3602,-19,-59,-88
12,529,129085,-2894,-15329,-3705,-22,-55,-98
12,530,129090,-2561,-15281,-3992,-21,-30,-113
12,531,129095,-2585,-15411,-4086,-26,6,-131
12,532,129100,-2776,-15444,-3821,-31,18,-153
12,533,129105,-2781,-15434,-3702,-33,7,-160
12,534,129110,-2629,-15460,-3870,-33,8,-167
12,535,129115,-2494,-15396,-3911,-38,33,-190
12,536,129120,-2562,-15344,-3704,-43,40,-211
12,537,129125,-2517,-15405,-3584,-46,6,-221
12,538,129130,-2411,-15383,-3560,-48,-24,-234
12,539,129135,-2281,-15401,-3542,-52,-43,-250
12,540,129140,-2167,-15395,-3264,-54,-64,-264
12,541,129145,-2112,-15412,-3296,-55,-111,-277
12,542,129150,-2241,-15525,-3649,-56,-165,-287
12,543,129155,-2094,-15544,-4278,-58,-184,-296
12,544,129160,-1953,-15582,-4352,-66,-149,-309
12,545,129165,-2069,-15708,-4138,-71,-105,-336
12,546,129170,-2226,-15737,-3955,-77,-82,-355
12,547,129175,-2120,-15846,-4020,-77,-68,-364
12,548,129180,-1926,-15912,-4303,-77,-37,-378
12,549,129185,-1871,-15911,-4402,-86,-5,-401
12,550,129190,-1894,-16038,-4438,-93,-10,-420
12,551,129195,-1930,-16121,-4568,-97,-36,-436
12,552,129200,-2090,-16025,-4637,-103,-31,-454
12,553,129205,-2131,-15956,-4630,-110,19,-475
12,554,129210,-1902,-16044,-4360,-115,89,-493
12,555,129215,-1551,-16026,-3907,-123,128,-512
12,556,129220,-1228,-16103,-3588,-123,100,-524
12,557,129225,-1010,-16391,-3662,-136,-12,-551
12,558,129230,-1042,-16307,-3861,-143,-45,-562
12,559,129235,-1014,-16256,-3968,-151,-61,-575
12,560,129240,-882,-16179,-4102,-163,-68,-592
12,561,129245,-689,-16246,-4326,-169,-56,-607
12,562,129250,-753,-16437,-4442,-176,-18,-626
12,563,129255,-1041,-16627,-4465,-185,15,-645
12,564,129260,-1240,-16743,-4438,-196,39,-661
12,565,129265,-1091,-16723,-4262,-208,68,-678
12,566,129270,-1092,-16844,-3862,-223,97,-695
12,567,129275,-961,-17148,-3434,-228,67,-707
12,568,129280,-640,-17164,-3306,-238,-16,-723
12,569,129285,-335,-17144,-3925,-243,-107,-740
12,570,129290,-446,-17330,-4576,-248,-157,-765
12,571,129295,-973,-17466,-4658,-270,-168,-792
12,572,129300,-1228,-17266,-4710,-287,-170,-803
12,573,129305,-1223,-17075,-4862,-295,-127,-821
12,574,129310,-1111,-17030,-4649,-308,-32,-844
12,575,129315,-840,-17073,-4178,-315,40,-862
12,576,129320,-579,-17027,-4046,-320,42,-878
12,577,129325,-399,-16950,-4211,-325,-5,-894
12,578,129330,-636,-16988,-4382,-335,-37,-916
12,579,129335,-937,-17155,-4636,-343,-33,-938
12,580,129340,-1101,-17205,-4839,-353,17,-960
12,581,129345,-1196,-17118,-4731,-364,97,-982
12,582,129350,-1270,-17133,-4101,-372,158,-1003
12,583,129355,-1126,-17106,-3401,-378,142,-1015
12,584,129360,-929,-17076,-2869,-385,66,-1028
12,585,129365,-911,-17113,-2825,-382,-42,-1045
12,586,129370,-1172,-17094,-2918,-385,-161,-1061
12,587,129375,-1277,-17020,-3350,-395,-275,-1068
12,588,129380,-1413,-17186,-3997,-403,-354,-1074
12,589,129385,-1927,-17482,-4442,-415,-375,-1089
12,590,129390,-2433,-17579,-4341,-427,-354,-1108
12,591,129395,-2672,-17540,-4294,-432,-306,-1121
12,592,129400,-2572,-17513,-4432,-438,-234,-1143
12,593,129405,-2645,-17579,-4335,-446,-154,-1163
12,594,129410,-2752,-17576,-3803,-452,-138,-1174
12,595,129415,-2758,-17591,-3397,-451,-193,-1183
12,596,129420,-2898,-17649,-3424,-445,-259,-1188
12,597,129425,-3175,-17618,-4002,-436,-288,-1187
12,598,129430,-3228,-17547,-4563,-436,-263,-1193
12,599,129435,2426,-3500,-10056,-495,-213,-1152
12,600,129440,-19945,4511,18655,-388,275,-1479
12,601,129445,-50,-15735,-4595,-260,-911,-390
12,602,129450,17856,-17448,-29295,-111,-1323,-70
12,603,129455,-842,-22096,1992,-430,3490,-1581
12,604,129460,-11018,-17005,12658,-461,1551,-1402
12,605,129465,-2170,-14714,-1606,-147,-1472,-512
12,606,129470,-4096,-13813,-11382,-175,-1009,-749
12,607,129475,-2896,-17590,-14769,-291,71,-880
12,608,129480,-3926,-18295,-2116,-399,1440,-1005
12,609,129485,-1568,-15013,2380,-379,1072,-1033
12,610,129490,-1176,-15913,-1846,-201,153,-872
12,611,129495,-2952,-17131,-6665,-178,14,-889
12,612,129500,-3525,-16216,-4953,-262,491,-960
12,613,129505,-2753,-15378,-784,-297,767,-962
12,614,129510,-1963,-15369,-21,-280,487,-944
12,615,129515,-1629,-16557,-3146,-231,7,-877
12,616,129520,-2166,-16534,-4953,-227,-90,-882
12,617,129525,-3001,-15857,-4485,-233,113,-902
12,618,129530,-3478,-15839,-3014,-230,273,-901
12,619,129535,-3124,-16121,-2669,-222,198,-883
12,620,129540,-2279,-16588,-3809,-207,37,-840
12,621,129545,-2007,-16757,-4217,-212,57,-841
12,622,129550,-2598,-16643,-3604,-212,179,-860
12,623,129555,-3159,-16287,-3021,-201,228,-855
12,624,129560,-3095,-16147,-3650,-183,185,-830
12,625,129565,-2498,-16289,-4819,-173,182,-810
12,626,129570,-2154,-16456,-4829,-176,306,-814
12,627,129575,-2035,-16319,-4009,-181,435,-825
12,628,129580,-2217,-16040,-3066,-176,458,-817
12,629,129585,-2200,-15850,-3122,-159,385,-791
12,630,129590,-1724,-15696,-3338,-151,352,-759
12,631,129595,-1805,-15704,-2698,-147,330,-747
12,632,129600,-1743,-15818,-2939,-131,224,-717
12,633,129605,-1608,-15954,-3752,-118,135,-691
12,634,129610,-1504,-15988,-4209,-120,147,-678
12,635,129615,-1534,-15945,-3721,-125,229,-672
12,636,129620,-1490,-15890,-3157,-124,260,-661
12,637,129625,-1686,-15842,-2979,-111,217,-646
12,638,129630,-1826,-15848,-3051,-101,141,-623
12,639,129635,-1655,-15819,-2966,-102,78,-598
12,640,129640,-1391,-15914,-2936,-97,13,-579
12,641,129645,-1245,-16147,-2708,-95,-59,-563
12,642,129650,-1185,-16299,-2873,-92,-150,-539
12,643,129655,-1045,-16331,-3456,-85,-211,-519
12,644,129660,-1283,-16327,-3916,-84,-209,-510
12,645,129665,-1711,-16327,-4290,-83,-172,-503
12,646,129670,-1962,-16190,-4340,-88,-123,-492
12,647,129675,-1975,-16007,-4314,-89,-60,-481
12,648,129680,-1805,-15951,-4134,-90,24,-473
12,649,129685,-1652,-15938,-3733,-89,84,-467
12,650,129690,-1553,-15828,-3400,-86,80,-456
12,651,129695,-1512,-15695,-3288,-80,12,-437
12,652,129700,-1557,-15618,-3595,-77,-65,-423
12,653,129705,-1582,-15579,-3954,-75,-116,-402
12,654,129710,-1466,-15577,-3985,-76,-130,-391
12,655,129715,-1316,-15727,-3948,-77,-121,-375
12,656,129720,-1090,-15965,-4394,-75,-92,-362
12,657,129725,-1076,-15988,-4341,-77,-17,-361
12,658,129730,-1197,-15795,-3676,-85,57,-359
12,659,129735,-1068,-15632,-3161,-83,74,-343
12,660,129740,-629,-15711,-3300,-75,44,-326
12,661,129745,-368,-15877,-3756,-74,12,-314
12,662,129750,-544,-15937,-3961,-78,-4,-308
12,663,129755,-1051,-15793,-3891,-81,-28,-299
12,664,129760,-1122,-15758,-3917,-81,-49,-278
12,665,129765,-610,-15779,-4443,-77,-21,-261
12,666,129770,-200,-15795,-4601,-78,75,-259
12,667,129775,-138,-15716,-4220,-79,135,-258
12,668,129780,-426,-15564,-4107,-71,94,-248
12,669,129785,-741,-15461,-4624,-62,9,-229
12,670,129790,-774,-15271,-4821,-59,-28,-212
12,671,129795,-757,-15279,-4686,-63,-3,-202
12,672,129800,-672,-15355,-4250,-65,48,-197
12,673,129805,-489,-15276,-3916,-58,60,-187
12,674,129810,-308,-15178,-3978,-46,28,-176
12,675,129815,-102,-15182,-4125,-40,-21,-162
12,676,129820,27,-15280,-4287,-41,-63,-148
12,677,129825,37,-15397,-4198,-41,-88,-141
12,678,129830,145,-15450,-4318,-40,-106,-131
12,679,129835,157,-15410,-4533,-37,-98,-123
12,680,129840,112,-15428,-4378,-38,-76,-115
12,681,129845,247,-15469,-4066,-33,-79,-105
12,682,129850,272,-15393,-3844,-28,-112,-96
12,683,129855,387,-15338,-4173,-21,-164,-81
12,684,129860,500,-15353,-4678,-18,-188,-71
12,685,129865,626,-15398,-5232,-14,-180,-68
12,686,129870,225,-15462,-5104,-18,-131,-77
12,687,129875,-300,-15363,-5006,-17,-114,-78
12,688,129880,-342,-15269,-5246,-15,-92,-60
12,689,129885,77,-15249,-5233,-17,-11,-52
12,690,129890,387,-15367,-5035,-17,98,-59
12,691,129895,333,-15441,-4450,-19,184,-56
12,692,129900,402,-15406,-4003,-13,184,-47
12,693,129905,557,-15404,-4033,-13,137,-37
12,694,129910,672,-15390,-4160,-13,106,-28
12,695,129915,625,-15402,-4408,-9,91,-25
12,696,129920,534,-15353,-4556,-15,75,-19
12,697,129925,775,-15320,-4676,-18,44,-7
12,698,129930,1101,-15432,-4798,-15,37,2
12,699,129935,1209,-15634,-4921,-11,63,3
12,700,129940,1153,-15643,-4805,-11,94,2
12,701,129945,934,-15362,-4476,-17,100,5
12,702,129950,865,-15261,-4407,-13,79,16
12,703,129955,1222,-15451,-4939,-11,52,33
12,704,129960,1143,-15369,-4794,-14,56,30
12,705,129965,1006,-15295,-4613,-17,37,37
12,706,129970,1035,-15174,-4563,-20,18,49
12,707,129975,1310,-15267,-4717,-17,9,60
12,708,129980,1378,-15319,-4622,-21,28,58
12,709,129985,1345,-15308,-4234,-21,24,61
12,710,129990,1357,-15309,-4244,-23,-14,72
12,711,129995,1439,-15367,-4496,-23,-39,77
12,712,130000,1489,-15440,-4484,-25,-24,82
12,713,130005,1462,-15452,-4662,-24,-29,87
12,714,130010,1229,-15435,-5061,-25,-38,90
12,715,130015,1096,-15349,-5333,-30,-15,94
12,716,130020,1022,-15256,-5305,-33,50,93
12,717,130025,1045,-15264,-4939,-35,123,92
12,718,130030,1299,-15153,-4725,-34,158,96
12,719,130035,1473,-15170,-4753,-30,169,102
12,720,130040,1634,-15264,-4842,-30,159,106
12,721,130045,1678,-15324,-4798,-36,145,104
12,722,130050,1526,-15417,-4862,-40,126,103
12,723,130055,1415,-15427,-5073,-37,105,105
12,724,130060,1312,-15379,-5181,-40,109,103
12,725,130065,1293,-15375,-5042,-46,129,104
12,726,130070,1404,-15572,-4872,-44,138,105
12,727,130075,1649,-15734,-4663,-43,125,105
12,728,130080,1842,-15744,-4450,-41,100,105
12,729,130085,1740,-15686,-4448,-36,63,105
12,730,130090,1590,-15675,-4485,-36,29,106
12,731,130095,1804,-15683,-4565,-37,6,112
12,732,130100,2170,-15692,-4701,-37,13,117
12,733,130105,2149,-15747,-4780,-36,32,113
12,734,130110,1806,-15630,-4841,-35,36,106
12,735,130115,1552,-15454,-5037,-38,32,107
12,736,130120,1514,-15442,-5175,-42,43,107
12,737,130125,1633,-15504,-4947,-45,77,107
12,738,130130,1768,-15493,-4509,-47,85,103
12,739,130135,1777,-15430,-4445,-42,40,100
12,740,130140,1617,-15434,-4588,-36,-30,99
12,741,130145,1440,-15389,-4860,-32,-89,98
12,742,130150,1501,-15472,-5212,-29,-105,99
12,743,130155,1622,-15604,-5414,-33,-66,94
12,744,130160,1760,-15705,-5377,-31,-4,85
12,745,130165,1824,-15775,-5121,-26,43,83
12,746,130170,1847,-15733,-4936,-23,70,82
12,747,130175,1834,-15651,-4823,-20,100,73
12,748,130180,1876,-15632,-4741,-22,130,70
12,749,130185,2044,-15651,-4690,-21,133,75
12,750,130190,2076,-15609,-4658,-20,116,72
12,751,130195,2049,-15576,-4784,-19,84,68
12,752,130200,2058,-15507,-5074,-15,66,70
12,753,130205,2159,-15504,-5039,-15,79,68
12,754,130210,2195,-15496,-4734,-18,90,63
12,755,130215,2266,-15530,-4458,-18,88,64
12,756,130220,2184,-15631,-4287,-11,73,63
12,757,130225,2108,-15723,-4121,-9,52,60
12,758,130230,2173,-15762,-4171,-8,21,62
12,759,130235,2192,-15730,-4351,-5,7,57
12,760,130240,2026,-15686,-4604,-5,-11,51
12,761,130245,1796,-15640,-4814,-2,-31,46
12,762,130250,1695,-15617,-4610,-1,-48,46
12,763,130255,1868,-15667,-4691,1,-56,52
12,764,130260,2022,-15783,-4746,2,-36,51
12,765,130265,1938,-15808,-4718,2,-16,41
12,766,130270,1899,-15746,-4613,5,-16,38
12,767,130275,1943,-15727,-4630,6,-36,42
12,768,130280,2025,-15777,-4725,6,-42,37
12,769,130285,2104,-15896,-4845,12,-32,33
12,770,130290,2184,-15931,-4907,10,-17,29
12,771,130295,2060,-15883,-4829,10,-9,19
12,772,130300,1913,-15763,-4744,13,-12,17
12,773,130305,1928,-15747,-4697,18,-11,20
12,774,130310,2218,-15756,-4818,17,-1,23
12,775,130315,2370,-15803,-4804,18,14,20
12,776,130320,1939,-15820,-4544,20,-21,13
12,777,130325,2046,-15785,-4850,29,-38,16
12,778,130330,2113,-15855,-5159,30,-9,14
12,779,130335,1991,-15779,-4958,29,32,6
12,780,130340,1778,-15671,-4755,28,40,4
12,781,130345,1746,-15617,-4964,33,27,1
12,782,130350,1781,-15640,-4914,33,48,-3
12,783,130355,1703,-15652,-4618,31,79,-5
12,784,130360,1857,-15563,-4499,30,68,-3
12,785,130365,1826,-15594,-4401,34,39,-4
12,786,130370,1794,-15617,-4542,38,8,-10
12,787,130375,1689,-15554,-4654,38,1,-11
12,788,130380,1592,-15496,-4580,33,14,-14
12,789,130385,1621,-15557,-4382,33,16,-16
12,790,130390,1785,-15673,-4316,31,8,-15
12,791,130395,1969,-15694,-4350,30,-3,-18
12,792,130400,2036,-15677,-4370,33,-14,-20
12,793,130405,1865,-15585,-4354,36,-40,-21
12,794,130410,1691,-15565,-4533,36,-73,-18
12,795,130415,1783,-15524,-4767,32,-92,-15
12,796,130420,1929,-15585,-4976,33,-82,-15
12,797,130425,1941,-15638,-5005,32,-56,-18
12,798,130430,1860,-15616,-4801,30,-50,-27
12,799,130435,1813,-15641,-4650,30,-71,-23
12,800,130440,1843,-15742,-4804,31,-88,-20
12,801,130445,1867,-15800,-4948,27,-73,-25
12,802,130450,1750,-15748,-4906,26,-46,-27
12,803,130455,1679,-15640,-4800,25,-26,-28
12,804,130460,1555,-15665,-4874,25,-13,-24
12,805,130465,1466,-15672,-5014,25,0,-27
12,806,130470,1423,-15580,-4989,23,19,-28
12,807,130475,1404,-15495,-4945,22,31,-30
12,808,130480,1397,-15365,-4697,19,27,-32
12,809,130485,1506,-15382,-4454,17,6,-31
12,810,130490,1657,-15397,-4462,18,-21,-27
12,811,130495,1782,-15404,-4681,21,-35,-26
12,812,130500,1738,-15404,-4699,24,-32,-25
12,813,130505,1681,-15408,-4642,19,-38,-25
12,814,130510,1653,-15414,-4715,13,-53,-22
12,815,130515,1721,-15461,-4817,13,-55,-20
12,816,130520,1725,-15512,-4828,13,-44,-21
12,817,130525,1717,-15474,-4722,10,-35,-19
12,818,130530,1703,-15400,-4641,9,-39,-16
12,819,130535,1680,-15467,-4608,6,-52,-10
12,820,130540,1771,-15527,-4528,3,-63,-5
12,821,130545,1813,-15610,-4461,0,-70,-3
12,822,130550,1809,-15628,-4548,4,-86,0
12,823,130555,1782,-15557,-4819,5,-98,-2
12,824,130560,1596,-15537,-4941,2,-92,-3
12,825,130565,1489,-15497,-4958,-3,-80,2
12,826,130570,1627,-15486,-4939,-5,-73,9
12,827,130575,1774,-15579,-5088,-1,-63,15
12,828,130580,1751,-15708,-5124,0,-49,11
12,829,130585,1529,-15718,-4983,-3,-45,11
12,830,130590,1414,-15646,-4975,-2,-44,13
12,831,130595,1400,-15555,-4923,0,-34,19
12,832,130600,1434,-15594,-4906,2,-28,22
12,833,130605,1536,-15654,-4831,4,-26,23
12,834,130610,1572,-15689,-4749,3,-34,23
12,835,130615,1576,-15735,-4802,3,-38,23
12,836,130620,1590,-15715,-4803,1,-27,21
12,837,130625,1607,-15627,-4831,-2,-9,20
12,838,130630,1588,-15618,-5051,-3,2,18
12,839,130635,1440,-15644,-5091,-3,-1,19
12,840,130640,1319,-15707,-5038,-4,-19,17
12,841,130645,1331,-15797,-5036,0,-32,18
12,842,130650,1452,-15810,-4921,-1,-24,17
12,843,130655,1524,-15772,-4697,-3,-11,16
12,844,130660,1625,-15795,-4726,-1,-14,17
12,845,130665,1839,-15821,-4876,-1,-22,20
12,846,130670,1956,-15786,-5047,1,-22,19
12,847,130675,1932,-15755,-4956,3,-5,17
12,848,130680,1910,-15701,-4954,4,0,16
12,849,130685,1825,-15597,-5078,2,23,14
12,850,130690,1768,-15562,-5004,2,40,14
12,851,130695,1776,-15506,-4847,3,40,10
12,852,130700,1654,-15495,-4716,4,19,11
12,853,130705,1709,-15466,-4918,8,-17,12
12,854,130710,1648,-15430,-5192,9,-36,10
12,855,130715,1433,-15475,-5246,11,-35,7
12,856,130720,1364,-15524,-5105,9,-23,5
12,857,130725,1523,-15586,-4993,12,-7,9
12,858,130730,1761,-15655,-4940,15,18,8
12,859,130735,1827,-15721,-4930,13,46,2
12,860,130740,1740,-15758,-4849,9,54,-8
12,861,130745,1634,-15681,-4789,9,45,-8
12,862,130750,1523,-15683,-4882,9,39,-10
12,863,130755,1453,-15722,-4875,4,46,-13
12,864,130760,1536,-15658,-4715,2,47,-18
12,865,130765,1601,-15647,-4568,2,24,-19
12,866,130770,1658,-15623,-4585,5,-9,-21
12,867,130775,1751,-15540,-4727,4,-35,-21
12,868,130780,1719,-15566,-4712,4,-42,-18
12,869,130785,1782,-15621,-4706,4,-45,-18
12,870,130790,1870,-15617,-4724,2,-42,-17
12,871,130795,1856,-15673,-4758,1,-37,-16
12,872,130800,1748,-15739,-4792,3,-39,-19
12,873,130805,1770,-15788,-5055,2,-57,-18
12,874,130810,1589,-15687,-5153,-1,-62,-25
12,875,130815,1425,-15603,-5138,-1,-53,-29
12,876,130820,1262,-15551,-5102,-4,-37,-29
12,877,130825,1446,-15525,-5051,-9,-14,-27
12,878,130830,1606,-15498,-4898,-5,7,-30
12,879,130835,1674,-15582,-4787,-4,15,-29
12,880,130840,1556,-15572,-4695,-7,12,-31
12,881,130845,1571,-15461,-4699,-7,-3,-26
12,882,130850,1609,-15393,-4761,-11,-7,-23
12,883,130855,1630,-15402,-4896,-12,0,-29
12,884,130860,1642,-15396,-4782,-14,3,-29
12,885,130865,1713,-15391,-4751,-12,-5,-25
12,886,130870,1746,-15414,-4627,-13,-10,-21
12,887,130875,1715,-15509,-4576,-12,-20,-18
12,888,130880,1669,-15507,-4687,-10,-38,-15
12,889,130885,1683,-15497,-4924,-9,-50,-10
12,890,130890,1589,-15491,-5022,-10,-53,-12
12,891,130895,1515,-15558,-5162,-11,-51,-13
12,892,130900,1489,-15642,-5289,-10,-38,-8
12,893,130905,1456,-15623,-5334,-11,-16,-10
12,894,130910,1442,-15686,-5207,-13,1,-12
12,895,130915,1494,-15785,-5203,-9,5,-14
12,896,130920,1594,-15786,-5179,-8,-2,-11
12,897,130925,1581,-15696,-5142,-10,-13,-9
12,898,130930,1459,-15671,-5059,-8,-28,-8
12,899,130935,1381,-15703,-5076,-5,-46,-7
12,900,130940,1389,-15679,-5138,-4,-41,-5
12,901,130945,1469,-15634,-5181,-2,-18,-7
12,902,130950,1421,-15570,-5189,-2,16,-10
12,903,130955,1477,-15510,-5103,-7,42,-12
12,904,130960,1512,-15477,-4932,-6,46,-15
12,905,130965,1524,-15489,-4821,-8,41,-14
12,906,130970,1502,-15556,-4709,-9,37,-11
12,907,130975,1615,-15473,-4640,-7,45,-8
12,908,130980,1681,-15432,-4560,-10,52,-6
12,909,130985,1699,-15453,-4646,-9,37,-3
12,910,130990,1699,-15421,-4711,-11,13,-2
12,911,130995,1667,-15385,-4721,-13,-8,0
12,912,131000,1655,-15474,-4853,-13,-12,2
12,913,131005,1627,-15514,-5069,-13,-5,0
12,914,131010,1642,-15594,-5236,-15,-5,1
12,915,131015,1605,-15664,-5295,-17,-5,3
12,916,131020,1426,-15688,-5301,-16,-3,0
12,917,131025,1207,-15630,-5363,-15,17,0
12,918,131030,1204,-15467,-5353,-16,51,-1
12,919,131035,1218,-15389,-5222,-19,82,-6
12,920,131040,1283,-15503,-4919,-19,88,-7
12,921,131045,1385,-15512,-4710,-16,69,-4
12,922,131050,1537,-15450,-4669,-15,48,-5
12,923,131055,1492,-15447,-4771,-11,-10,-3
12,924,131060,1453,-15404,-4743,-14,-43,-1
12,925,131065,1608,-15414,-5016,-12,-60,3
12,926,131070,1646,-15454,-5223,-11,-37,3
12,927,131075,1607,-15420,-5153,-13,3,-1
12,928,131080,1577,-15389,-5010,-11,19,2
12,929,131085,1616,-15423,-5036,-10,5,4
12,930,131090,1664,-15476,-5054,-7,-8,5
12,931,131095,1626,-15529,-4954,-9,-12,5
12,932,131100,1625,-15511,-4912,-9,-18,0
12,933,131105,1681,-15534,-5066,-4,-29,5
12,934,131110,1913,-15654,-5260,-3,-33,7
12,935,131115,1902,-15718,-5165,-6,-18,2
12,936,131120,1832,-15660,-4885,-7,-4,4
12,937,131125,1788,-15644,-4824,-4,-6,13
12,938,131130,1794,-15698,-4969,-6,-23,14
12,939,131135,1690,-15791,-4984,-8,-31,9
12,940,131140,1556,-15714,-4941,-11,-36,10
12,941,131145,1373,-15617,-4988,-12,-32,7
12,942,131150,1236,-15525,-4983,-11,-9,7
12,943,131155,1384,-15507,-4865,-12,25,9
12,944,131160,1613,-15567,-4762,-10,53,11
12,945,131165,1785,-15548,-4599,-11,63,13
12,946,131170,1760,-15556,-4559,-11,56,10
12,947,131175,1601,-15520,-4590,-11,26,11
12,948,131180,1591,-15527,-4711,-10,-10,17
12,949,131185,1606,-15607,-4944,-15,-31,19
12,950,131190,1601,-15732,-5077,-17,-41,15
12,951,131195,1565,-15794,-5077,-17,-33,13
12,952,131200,1640,-15718,-5140,-18,-29,9
12,953,131205,1648,-15736,-5203,-18,-21,8
12,954,131210,1683,-15771,-5134,-18,-8,6
12,955,131215,1717,-15767,-4967,-21,4,6
12,956,131220,1710,-15856,-4964,-18,10,4
12,957,131225,1740,-15844,-5010,-19,21,3
12,958,131230,1783,-15758,-4965,-21,28,3
12,959,131235,1645,-15685,-4869,-20,24,-1
12,960,131240,1592,-15561,-4977,-20,8,-2
12,961,131245,1557,-15477,-5165,-21,10,-1
12,962,131250,1621,-15433,-5160,-19,26,-3
12,963,131255,1662,-15412,-4845,-19,38,-7
12,964,131260,1666,-15380,-4665,-17,29,-6
12,965,131265,1587,-15351,-4759,-14,11,-8
12,966,131270,1644,-15345,-4841,-14,7,-8
12,967,131275,1605,-15439,-4867,-17,10,-5
12,968,131280,1560,-15514,-4983,-15,0,-6
12,969,131285,1452,-15463,-5046,-15,-16,-10
12,970,131290,1343,-15404,-5065,-13,-25,-11
12,971,131295,1362,-15495,-5181,-12,-25,-10
12,972,131300,1647,-15619,-5236,-10,-12,-10
12,973,131305,1738,-15705,-5130,-8,-13,-13
12,974,131310,1705,-15737,-5048,-10,-33,-20
12,975,131315,1716,-15705,-5134,-11,-51,-19
12,976,131320,1684,-15710,-5147,-10,-38,-22
12,977,131325,1629,-15608,-5029,-11,-13,-25
12,978,131330,1712,-15586,-4841,-13,3,-19
12,979,131335,1758,-15537,-4756,-8,-2,-17
12,980,131340,1765,-15518,-4840,-6,-19,-17
12,981,131345,1759,-15509,-4817,-9,-33,-16
12,982,131350,1703,-15518,-4739,-7,-52,-15
12,983,131355,1696,-15469,-4844,-5,-75,-13
12,984,131360,1768,-15446,-5035,-5,-79,-12
12,985,131365,1817,-15437,-5070,-6,-62,-17
12,986,131370,1817,-15497,-5015,-11,-44,-20
12,987,131375,1775,-15598,-5052,-3,-43,-17
12,988,131380,1828,-15615,-5268,-3,-41,-13
12,989,131385,1803,-15558,-5503,-7,-29,-13
12,990,131390,1555,-15503,-5330,-9,-10,-19
12,991,131395,1507,-15463,-5097,-11,-13,-14
12,992,131400,1641,-15442,-5143,-10,-20,-10
12,993,131405,1565,-15541,-5206,-8,-10,-12
12,994,131410,1542,-15600,-5250,-5,2,-13
12,995,131415,1539,-15589,-5191,-4,5,-16
12,996,131420,1614,-15513,-4858,-8,-17,-16
12,997,131425,1787,-15535,-4792,-6,-29,-15
12,998,131430,1899,-15562,-4959,-3,-32,-11
12,999,131435,1822,-15560,-5073,-2,-34,-10
