event_id,seq,ts_ms,ax,ay,az,gx,gy,gz
1,0,77248,-2863,-15734,-2560,-73,187,-48
1,1,77253,-3070,-15564,-3022,-75,179,-49
1,2,77258,-2887,-15475,-2982,-75,193,-40
1,3,77263,-2536,-15467,-2812,-72,186,-35
1,4,77268,-2406,-15440,-2893,-74,157,-34
1,5,77273,-2430,-15321,-2959,-79,134,-32
1,6,77278,-2511,-15330,-2614,-77,120,-21
1,7,77283,-2331,-15368,-2441,-83,88,-14
1,8,77288,-2311,-15432,-2548,-89,50,-7
1,9,77293,-2484,-15363,-2468,-93,27,-1
1,10,77298,-2805,-15223,-2415,-96,0,6
1,11,77303,-2933,-15125,-2201,-99,-24,12
1,12,77308,-2875,-15014,-2392,-102,-59,20
1,13,77313,-2648,-15056,-2569,-103,-69,29
1,14,77318,-2505,-15101,-2456,-100,-68,34
1,15,77323,-2679,-15108,-2303,-102,-87,38
1,16,77328,-2821,-15129,-2313,-105,-123,40
1,17,77333,-2883,-15170,-2545,-107,-152,47
1,18,77338,-2823,-15293,-2626,-102,-155,51
1,19,77343,-2737,-15425,-2543,-100,-155,50
1,20,77348,-2765,-15601,-2514,-98,-153,52
1,21,77353,-2837,-15815,-2457,-100,-146,52
1,22,77358,-2937,-16183,-2385,-98,-124,51
1,23,77363,-2840,-16316,-2374,-97,-97,54
1,24,77368,-2603,-16306,-2204,-92,-62,57
1,25,77373,-2415,-16248,-2167,-91,-33,59
1,26,77378,-2425,-16220,-2297,-91,-25,55
1,27,77383,-2455,-16189,-2382,-88,-19,54
1,28,77388,-2410,-16144,-2419,-90,-19,56
1,29,77393,-2262,-16066,-2303,-86,-30,59
1,30,77398,-2221,-16025,-2148,-85,-47,60
1,31,77403,-2361,-15843,-2214,-86,-79,61
1,32,77408,-2590,-15652,-2385,-85,-119,64
1,33,77413,-2842,-15552,-2423,-83,-148,64
1,34,77418,-2981,-15595,-2626,-76,-160,65
1,35,77423,-2987,-15681,-2695,-74,-139,63
1,36,77428,-2971,-15713,-2544,-71,-95,56
1,37,77433,-3236,-15777,-2448,-66,-67,49
1,38,77438,-3424,-15787,-2356,-63,-47,43
1,39,77443,-3452,-15867,-2218,-62,-33,38
1,40,77448,-3365,-15958,-2156,-55,-16,35
1,41,77453,-3266,-16026,-2257,-51,10,31
1,42,77458,-3007,-16124,-2136,-49,42,27
1,43,77463,-2881,-16228,-1990,-52,55,17
1,44,77468,-2948,-16327,-1872,-50,46,11
1,45,77473,-2978,-16326,-1833,-48,31,12
1,46,77478,-2884,-16343,-1898,-46,25,10
1,47,77483,-2914,-16375,-1943,-48,20,8
1,48,77488,-2908,-16345,-1886,-46,17,4
1,49,77493,-2976,-16338,-1928,-46,3,1
1,50,77498,-2868,-16345,-1980,-47,-1,-1
1,51,77503,-2636,-16323,-2273,-41,6,-5
1,52,77508,-2556,-16316,-2312,-32,33,-7
1,53,77513,-2655,-16233,-2184,-34,47,-9
1,54,77518,-2624,-16105,-2034,-35,31,-13
1,55,77523,-2463,-16127,-2085,-34,-1,-10
1,56,77528,-2480,-16089,-2306,-27,-20,-7
1,57,77533,-2531,-16095,-2287,-23,-27,-3
1,58,77538,-2519,-16033,-2168,-24,-40,-3
1,59,77543,-2463,-16058,-2122,-24,-53,-5
1,60,77548,-2534,-16120,-2126,-20,-60,-7
1,61,77553,-2553,-16150,-2216,-13,-67,-4
1,62,77558,-2567,-16159,-2116,-9,-64,-4
1,63,77563,-2651,-16139,-2022,-10,-72,-6
1,64,77568,-2775,-16073,-2071,-10,-87,-8
1,65,77573,-2871,-16054,-2307,-4,-99,-5
1,66,77578,-2882,-16088,-2473,0,-88,-7
1,67,77583,-2859,-16119,-2438,0,-61,-11
1,68,77588,-2815,-16128,-2454,2,-29,-15
1,69,77593,-2836,-16107,-2369,9,1,-17
1,70,77598,-2877,-16067,-2313,11,22,-21
1,71,77603,-2891,-16009,-2245,14,31,-23
1,72,77608,-2860,-15992,-2202,14,26,-23
1,73,77613,-2762,-16017,-2201,18,20,-23
1,74,77618,-2668,-16122,-2183,22,7,-28
1,75,77623,-2710,-16111,-2182,22,-10,-28
1,76,77628,-2700,-16097,-2198,24,-32,-25
1,77,77633,-2700,-16144,-2225,24,-54,-24
1,78,77638,-2699,-16177,-2284,24,-66,-25
1,79,77643,-2706,-16172,-2149,24,-81,-26
1,80,77648,-2791,-16149,-2214,25,-96,-27
1,81,77653,-2771,-16093,-2395,27,-109,-26
1,82,77658,-2698,-16112,-2431,30,-109,-25
1,83,77663,-2626,-16112,-2423,27,-99,-26
1,84,77668,-2737,-16046,-2373,30,-91,-28
1,85,77673,-2903,-16003,-2384,34,-86,-30
1,86,77678,-2942,-15988,-2507,38,-76,-29
1,87,77683,-2907,-16053,-2536,41,-61,-30
1,88,77688,-2858,-16132,-2506,41,-45,-35
1,89,77693,-2877,-16073,-2352,43,-27,-35
1,90,77698,-2937,-16011,-2312,44,-17,-38
1,91,77703,-3003,-16051,-2273,46,-12,-40
1,92,77708,-2960,-16037,-2286,48,-15,-42
1,93,77713,-2900,-16092,-2321,49,-18,-43
1,94,77718,-2902,-16122,-2199,48,-30,-44
1,95,77723,-3015,-16082,-2115,46,-50,-45
1,96,77728,-2914,-16093,-2465,44,-70,-46
1,97,77733,-2802,-16078,-2520,46,-61,-47
1,98,77738,-2726,-16047,-2450,46,-43,-50
1,99,77743,-2733,-16032,-2393,48,-32,-50
1,100,77748,-2817,-16046,-2357,47,-30,-51
1,101,77753,-2812,-16010,-2354,47,-39,-48
1,102,77758,-2675,-16002,-2379,45,-43,-44
1,103,77763,-2490,-15995,-2419,48,-41,-42
1,104,77768,-2427,-15917,-2362,50,-44,-42
1,105,77773,-2646,-15907,-2253,46,-56,-42
1,106,77778,-2756,-15897,-2176,43,-87,-43
1,107,77783,-2783,-15880,-2418,42,-117,-41
1,108,77788,-2726,-15863,-2639,44,-111,-37
1,109,77793,-2772,-15917,-2608,42,-90,-38
1,110,77798,-2736,-15881,-2505,44,-82,-38
1,111,77803,-2720,-15876,-2510,44,-88,-35
1,112,77808,-2803,-15923,-2607,41,-91,-39
1,113,77813,-2904,-15929,-2620,42,-87,-40
1,114,77818,-2908,-15976,-2586,42,-70,-39
1,115,77823,-2835,-16010,-2398,42,-58,-40
1,116,77828,-2801,-16005,-2404,41,-57,-40
1,117,77833,-2844,-16063,-2425,41,-42,-41
1,118,77838,-2831,-16139,-2275,38,-18,-40
1,119,77843,-2800,-16125,-2205,36,-12,-39
1,120,77848,-2782,-16132,-2084,37,-18,-38
1,121,77853,-2750,-16167,-2068,34,-33,-38
1,122,77858,-2788,-16174,-2100,26,-53,-37
1,123,77863,-2811,-16143,-2131,24,-65,-34
1,124,77868,-2771,-16122,-2209,24,-76,-33
1,125,77873,-2820,-16168,-2260,21,-83,-33
1,126,77878,-2941,-16144,-2289,18,-89,-28
1,127,77883,-2923,-16103,-2400,16,-94,-29
1,128,77888,-2801,-16113,-2590,17,-82,-31
1,129,77893,-2765,-16194,-2551,17,-61,-29
1,130,77898,-2856,-16187,-2388,13,-47,-29
1,131,77903,-2958,-16179,-2389,13,-49,-27
1,132,77908,-3020,-16153,-2454,11,-43,-28
1,133,77913,-2971,-16152,-2465,8,-31,-27
1,134,77918,-2857,-16144,-2358,8,-18,-28
1,135,77923,-2810,-16185,-2275,6,-10,-28
1,136,77928,-2811,-16216,-2303,5,-16,-27
1,137,77933,-2753,-16217,-2279,5,-25,-24
1,138,77938,-2799,-16163,-2238,3,-32,-19
1,139,77943,-2863,-16146,-2275,-3,-36,-17
1,140,77948,-2849,-16068,-2345,-5,-53,-15
1,141,77953,-2759,-16000,-2379,-5,-66,-14
1,142,77958,-2717,-16093,-2364,-6,-75,-13
1,143,77963,-2821,-16142,-2438,-7,-77,-12
1,144,77968,-2845,-16053,-2536,-7,-75,-7
1,145,77973,-2882,-16006,-2578,-3,-67,-9
1,146,77978,-2814,-16024,-2472,-10,-58,-8
1,147,77983,-2778,-15981,-2303,-10,-63,-5
1,148,77988,-2823,-15961,-2356,-8,-71,-5
1,149,77993,-2818,-15955,-2565,-8,-74,-5
1,150,77998,-2738,-15970,-2572,-9,-69,-1
1,151,78003,-2782,-15974,-2382,-10,-61,-1
1,152,78008,-2901,-15977,-2314,-11,-63,-3
1,153,78013,-2889,-16024,-2424,-12,-65,-3
1,154,78018,-2775,-15997,-2461,-14,-56,0
1,155,78023,-2744,-15966,-2303,-12,-36,1
1,156,78028,-2820,-15931,-2163,-14,-35,2
1,157,78033,-2902,-15967,-2241,-16,-47,4
1,158,78038,-2855,-15891,-2364,-17,-59,8
1,159,78043,-2800,-15909,-2341,-18,-64,10
1,160,78048,-2870,-15932,-2258,-18,-64,11
1,161,78053,-2863,-15938,-2321,-20,-74,10
1,162,78058,-2870,-15952,-2351,-21,-76,9
1,163,78063,-2877,-15947,-2394,-19,-68,11
1,164,78068,-2851,-15940,-2386,-20,-61,11
1,165,78073,-2711,-15898,-2391,-19,-57,12
1,166,78078,-2739,-15917,-2303,-18,-63,12
1,167,78083,-2737,-15922,-2355,-19,-79,13
1,168,78088,-2770,-15927,-2398,-20,-91,16
1,169,78093,-2749,-16003,-2380,-19,-93,18
1,170,78098,-2738,-16029,-2419,-19,-86,21
1,171,78103,-2812,-16056,-2408,-18,-74,16
1,172,78108,-2858,-16062,-2433,-17,-61,14
1,173,78113,-2812,-16022,-2249,-17,-52,18
1,174,78118,-2798,-16008,-2169,-17,-50,17
1,175,78123,-2839,-16063,-2264,-17,-49,18
1,176,78128,-2906,-16137,-2207,-16,-40,15
1,177,78133,-2958,-16083,-2147,-19,-33,13
1,178,78138,-2829,-16084,-2204,-17,-28,15
1,179,78143,-2663,-16078,-2357,-12,-14,13
1,180,78148,-2663,-16000,-2321,-15,-3,14
1,181,78153,-2708,-15970,-2160,-18,-16,15
1,182,78158,-2684,-15975,-2081,-18,-38,15
1,183,78163,-2528,-15989,-2225,-19,-57,16
1,184,78168,-2607,-16105,-2208,-17,-57,16
1,185,78173,-2723,-16153,-2143,-17,-62,20
1,186,78178,-2759,-16186,-2158,-17,-70,24
1,187,78183,-2884,-16176,-2184,-21,-73,21
1,188,78188,-2995,-16259,-2168,-18,-71,19
1,189,78193,-3041,-16261,-2169,-20,-68,19
1,190,78198,-2987,-16217,-2169,-19,-59,17
1,191,78203,-2974,-16132,-2175,-18,-47,15
1,192,78208,-2973,-16037,-2259,-17,-37,17
1,193,78213,-2929,-16057,-2389,-15,-28,16
1,194,78218,-2918,-16120,-2429,-18,-26,14
1,195,78223,-2811,-16106,-2446,-15,-29,11
1,196,78228,-2790,-16050,-2429,-17,-33,10
1,197,78233,-2815,-16058,-2438,-15,-38,7
1,198,78238,-2800,-16034,-2448,-14,-40,10
1,199,78243,-2782,-16007,-2452,-13,-40,10
1,200,78248,-2789,-15971,-2399,-14,-35,7
1,201,78253,-2805,-16008,-2408,-12,-22,6
1,202,78258,-2760,-16025,-2415,-9,-15,10
1,203,78263,-2742,-16034,-2314,-9,-11,8
1,204,78268,-2764,-16060,-2167,-11,-12,10
1,205,78273,-2772,-16056,-2161,-11,-21,10
1,206,78278,-2722,-16004,-2315,-12,-30,10
1,207,78283,-2622,-15942,-2301,-12,-33,11
1,208,78288,-2630,-15929,-2182,-12,-42,13
1,209,78293,-2755,-15937,-2208,-16,-59,11
1,210,78298,-2802,-15924,-2316,-16,-77,13
1,211,78303,-2899,-15957,-2323,-17,-83,14
1,212,78308,-2931,-15892,-2380,-16,-78,15
1,213,78313,-2932,-15905,-2466,-17,-63,14
1,214,78318,-2861,-15926,-2470,-14,-46,15
1,215,78323,-2833,-15990,-2441,-10,-30,15
1,216,78328,-2829,-16033,-2328,-11,-24,9
1,217,78333,-2864,-16072,-2325,-10,-22,7
1,218,78338,-2897,-16094,-2333,-13,-21,10
1,219,78343,-2924,-16145,-2363,-12,-23,11
1,220,78348,-2924,-16175,-2317,-15,-24,9
1,221,78353,-2894,-16148,-2259,-15,-27,10
1,222,78358,-2877,-16149,-2323,-13,-20,10
1,223,78363,-2922,-16092,-2339,-11,-6,7
1,224,78368,-2920,-16073,-2256,-10,-1,6
1,225,78373,-2861,-16014,-2163,-14,-6,8
1,226,78378,-2808,-15966,-2097,-15,-22,9
1,227,78383,-2820,-16022,-2211,-15,-41,8
1,228,78388,-2821,-16021,-2333,-14,-51,13
1,229,78393,-2794,-16027,-2353,-13,-58,11
1,230,78398,-2803,-16008,-2239,-15,-64,11
1,231,78403,-2862,-16062,-2248,-17,-68,12
1,232,78408,-2941,-16115,-2375,-17,-65,9
1,233,78413,-2987,-16097,-2437,-17,-49,11
1,234,78418,-2922,-16094,-2460,-17,-31,13
1,235,78423,-2791,-15998,-2475,-15,-21,11
1,236,78428,-2814,-15941,-2390,-14,-18,10
1,237,78433,-2932,-15909,-2410,-17,-21,8
1,238,78438,-2925,-15914,-2443,-16,-21,9
1,239,78443,-2917,-15849,-2443,-13,-17,10
1,240,78448,-2917,-15832,-2415,-11,-11,5
1,241,78453,-2875,-15849,-2379,-12,-12,7
1,242,78458,-2959,-15926,-2389,-13,-19,6
1,243,78463,-2941,-15942,-2401,-12,-21,7
1,244,78468,-2867,-15959,-2406,-13,-18,5
1,245,78473,-2812,-15974,-2363,-12,-17,7
1,246,78478,-2792,-15955,-2385,-12,-14,9
1,247,78483,-2837,-15958,-2342,-10,-17,8
1,248,78488,-2881,-15910,-2288,-10,-22,9
1,249,78493,-2913,-15894,-2368,-11,-32,10
1,250,78498,-2895,-15934,-2464,-9,-32,9
1,251,78503,-2903,-15917,-2490,-11,-31,7
1,252,78508,-2853,-15913,-2388,-11,-31,8
1,253,78513,-2847,-15849,-2358,-9,-33,9
1,254,78518,-2865,-15845,-2446,-11,-28,6
1,255,78523,-2840,-15868,-2476,-8,-26,7
1,256,78528,-2875,-15918,-2386,-10,-24,5
1,257,78533,-2873,-15924,-2290,-11,-34,8
1,258,78538,-2817,-15943,-2321,-11,-39,8
1,259,78543,-2894,-16035,-2391,-12,-39,7
1,260,78548,-2992,-16036,-2374,-9,-35,11
1,261,78553,-3018,-16026,-2350,-8,-27,9
1,262,78558,-2970,-16056,-2383,-11,-16,4
1,263,78563,-2940,-16099,-2419,-7,-1,3
1,264,78568,-2947,-16121,-2377,-7,8,4
1,265,78573,-2954,-16102,-2300,-6,6,0
1,266,78578,-2925,-16062,-2362,-6,0,2
1,267,78583,-2900,-16083,-2402,-9,-3,2
1,268,78588,-2898,-16077,-2401,-9,-8,1
1,269,78593,-2837,-16045,-2395,-7,-13,4
1,270,78598,-2815,-15993,-2457,-5,-22,6
1,271,78603,-2857,-15988,-2541,-6,-27,4
1,272,78608,-2861,-15969,-2521,-9,-32,1
1,273,78613,-2904,-16010,-2447,-6,-39,1
1,274,78618,-2960,-16047,-2356,-9,-43,0
1,275,78623,-3011,-15997,-2338,-8,-45,3
1,276,78628,-3062,-16017,-2439,-8,-42,5
1,277,78633,-3003,-15981,-2449,-5,-31,1
1,278,78638,-2987,-16018,-2381,-7,-26,1
1,279,78643,-3000,-15997,-2294,-7,-22,1
1,280,78648,-3009,-15988,-2310,-5,-20,-2
1,281,78653,-3074,-15996,-2390,-5,-17,-2
1,282,78658,-3011,-15952,-2403,-5,-12,0
1,283,78663,-2825,-15929,-2301,-6,-10,1
1,284,78668,-2829,-15910,-2281,-6,-22,1
1,285,78673,-2908,-15884,-2346,-5,-37,-1
1,286,78678,-2942,-15799,-2520,-8,-46,2
1,287,78683,-2874,-15815,-2554,-6,-41,1
1,288,78688,-2783,-15863,-2512,-6,-31,2
1,289,78693,-2767,-15913,-2502,-7,-26,1
1,290,78698,-2815,-15885,-2434,-4,-29,1
1,291,78703,-2928,-15863,-2380,-4,-35,0
1,292,78708,-2967,-15858,-2446,-5,-42,2
1,293,78713,-2905,-15850,-2410,-5,-38,2
1,294,78718,-2925,-15915,-2420,-3,-30,2
1,295,78723,-2917,-15931,-2387,-4,-23,0
1,296,78728,-2924,-15982,-2391,1,-20,4
1,297,78733,-2949,-16047,-2306,-1,-14,3
1,298,78738,-3014,-16048,-2197,-1,-13,-2
1,299,78743,-2981,-16070,-2231,-2,-17,0
1,300,78748,-2974,-16079,-2291,-2,-24,2
1,301,78753,-2916,-16041,-2369,-2,-29,3
1,302,78758,-2913,-16004,-2442,-4,-33,2
1,303,78763,-2958,-15965,-2526,-5,-28,3
1,304,78768,-2943,-15892,-2578,-1,-15,2
1,305,78773,-2937,-15895,-2584,0,2,0
1,306,78778,-2897,-15867,-2505,3,9,-1
1,307,78783,-2847,-15874,-2439,4,6,2
1,308,78788,-2870,-15834,-2448,4,-5,3
1,309,78793,-2853,-15845,-2464,3,-17,2
1,310,78798,-2884,-15885,-2409,1,-26,7
1,311,78803,-2947,-15892,-2318,1,-36,3
1,312,78808,-2962,-15880,-2337,4,-43,6
1,313,78813,-3023,-15913,-2435,2,-41,5
1,314,78818,-3059,-15984,-2410,4,-34,4
1,315,78823,-3021,-16165,-2409,5,-11,3
1,316,78828,-3036,-16219,-2375,5,-1,2
1,317,78833,-3093,-16182,-2299,5,5,1
1,318,78838,-3032,-16182,-2280,5,9,-3
1,319,78843,-2908,-16138,-2301,5,17,-1
1,320,78848,-2859,-16134,-2275,5,21,0
1,321,78853,-2855,-16130,-2302,6,15,-1
1,322,78858,-2861,-16052,-2266,6,-4,-1
1,323,78863,-2861,-16007,-2297,1,-17,1
1,324,78868,-2864,-15913,-2413,2,-24,6
1,325,78873,-2836,-15924,-2418,2,-24,8
1,326,78878,-2847,-16000,-2377,3,-24,8
1,327,78883,-2926,-15970,-2367,4,-27,8
1,328,78888,-2961,-15906,-2458,2,-30,6
1,329,78893,-3107,-15873,-2496,1,-26,6
1,330,78898,-3070,-15870,-2510,1,-9,7
1,331,78903,-3057,-15835,-2430,3,4,5
1,332,78908,-2996,-15883,-2444,4,6,4
1,333,78913,-2986,-15862,-2415,2,5,2
1,334,78918,-2963,-15867,-2276,1,4,4
1,335,78923,-2946,-15941,-2230,3,-5,4
1,336,78928,-2979,-15975,-2373,2,-17,6
1,337,78933,-2980,-15950,-2389,1,-22,7
1,338,78938,-2936,-16011,-2427,2,-22,7
1,339,78943,-2886,-16071,-2446,0,-20,7
1,340,78948,-2813,-16016,-2426,-1,-17,5
1,341,78953,-2892,-16049,-2486,-1,-11,5
1,342,78958,-2981,-16035,-2483,-2,-4,4
1,343,78963,-2929,-16030,-2464,-1,-5,6
1,344,78968,-2882,-16006,-2502,0,-4,7
1,345,78973,-2878,-15983,-2478,2,-3,6
1,346,78978,-2893,-15920,-2390,0,-6,6
1,347,78983,-2999,-15856,-2348,-3,-16,7
1,348,78988,-3043,-15879,-2362,-5,-24,8
1,349,78993,-3133,-15942,-2402,-4,-27,9
1,350,78998,-3167,-15937,-2464,-3,-23,6
1,351,79003,-3073,-15934,-2493,-5,-12,5
1,352,79008,-2999,-15940,-2486,-2,-3,5
1,353,79013,-2952,-15975,-2457,-2,1,4
1,354,79018,-2999,-16013,-2416,-3,3,4
1,355,79023,-2934,-15987,-2397,-4,2,2
1,356,79028,-2891,-16008,-2411,-3,-6,3
1,357,79033,-2856,-16034,-2440,-5,-12,4
1,358,79038,-2819,-16027,-2493,-4,-15,8
1,359,79043,-2881,-15952,-2490,-8,-26,5
1,360,79048,-2946,-15912,-2380,-8,-36,4
1,361,79053,-2998,-15927,-2530,-7,-42,6
1,362,79058,-2955,-15922,-2664,-8,-36,5
1,363,79063,-2909,-15900,-2600,-7,-21,7
1,364,79068,-2945,-15915,-2466,-6,-17,8
1,365,79073,-2962,-15911,-2379,-6,-21,5
1,366,79078,-2991,-15944,-2368,-6,-29,9
1,367,79083,-3018,-15908,-2397,-5,-35,6
1,368,79088,-3031,-15866,-2397,-5,-34,4
1,369,79093,-3016,-15839,-2370,-6,-34,7
1,370,79098,-2983,-15877,-2399,-6,-38,8
1,371,79103,-2988,-15884,-2448,-4,-44,5
1,372,79108,-3003,-15848,-2469,-4,-38,5
1,373,79113,-3055,-15909,-2426,-4,-28,7
1,374,79118,-3039,-15988,-2365,-2,-24,5
1,375,79123,-2973,-15959,-2315,-2,-23,5
1,376,79128,-3040,-15944,-2197,-4,-28,6
1,377,79133,-3060,-15966,-2284,-4,-36,8
1,378,79138,-3004,-15962,-2340,-3,-39,7
1,379,79143,-3008,-15929,-2338,-2,-34,9
1,380,79148,-3152,-15938,-2310,-1,-30,11
1,381,79153,-3243,-15925,-2273,0,-32,10
1,382,79158,-3258,-15959,-2318,-1,-27,10
1,383,79163,-3276,-15968,-2300,0,-9,9
1,384,79168,-3338,-15955,-2227,4,5,10
1,385,79173,-3310,-15898,-2234,7,9,11
1,386,79178,-3270,-15912,-2254,8,14,11
1,387,79183,-3311,-15953,-2236,9,21,10
1,388,79188,-3385,-15945,-2113,13,21,18
1,389,79193,-3309,-15945,-2458,12,19,23
1,390,79198,-3322,-15982,-2384,15,43,31
1,391,79203,-3353,-15922,-2097,19,61,35
1,392,79208,-3427,-15900,-2117,20,51,37
1,393,79213,-3352,-15911,-2392,21,42,42
1,394,79218,-3267,-16016,-2411,27,54,46
1,395,79223,-3359,-15965,-2110,26,66,53
1,396,79228,-3607,-15960,-2077,28,63,61
1,397,79233,-3744,-16103,-2233,35,60,73
1,398,79238,-3567,-16358,-2345,36,72,87
1,399,79243,-3164,-16521,-2608,40,92,105
1,400,79248,-2905,-16523,-2375,49,125,117
1,401,79253,-3034,-16471,-2154,52,138,127
1,402,79258,-3346,-16480,-2154,54,120,140
1,403,79263,-3639,-16465,-2233,55,87,156
1,404,79268,-3844,-16433,-2120,57,66,176
1,405,79273,-3914,-16370,-2160,64,63,194
1,406,79278,-4092,-16335,-2258,66,81,214
1,407,79283,-4427,-16170,-2083,69,101,227
1,408,79288,-4544,-16011,-2003,77,110,242
1,409,79293,-4520,-16007,-2392,84,124,258
1,410,79298,-4490,-15943,-2528,88,164,272
1,411,79303,-4455,-15988,-2231,90,203,291
1,412,79308,-4648,-15782,-1752,91,220,310
1,413,79313,-4526,-15532,-1471,102,220,335
1,414,79318,-4017,-15705,-2567,113,206,358
1,415,79323,-4017,-15604,-2403,108,224,368
1,416,79328,-4499,-15549,-1671,101,205,385
1,417,79333,-4914,-15511,-1478,104,166,409
1,418,79338,-4849,-15584,-1661,111,147,439
1,419,79343,-4821,-15513,-1969,118,150,460
1,420,79348,-4666,-15457,-2206,122,172,476
1,421,79353,-4416,-15390,-2120,126,222,497
1,422,79358,-4403,-15390,-1890,133,254,515
1,423,79363,-4554,-15445,-1791,135,250,538
1,424,79368,-4601,-15421,-1590,135,229,563
1,425,79373,-4466,-15413,-1671,137,202,590
1,426,79378,-4359,-15369,-1727,138,183,617
1,427,79383,-4412,-15297,-1827,141,162,640
1,428,79388,-4393,-15328,-1776,145,133,667
1,429,79393,-4286,-15325,-1808,146,98,693
1,430,79398,-4281,-15360,-1998,152,75,715
1,431,79403,-4503,-15368,-2032,154,69,735
1,432,79408,-4585,-15451,-1980,156,64,759
1,433,79413,-4745,-15528,-1787,155,45,781
1,434,79418,-5111,-15484,-1627,158,13,801
1,435,79423,-5690,-15392,-1577,163,-10,818
1,436,79428,-5841,-15355,-1860,169,-7,837
1,437,79433,-5511,-15342,-2088,178,28,856
1,438,79438,-5389,-15352,-2121,182,59,865
1,439,79443,-5555,-15335,-1875,185,95,874
1,440,79448,-5701,-15426,-1655,191,117,886
1,441,79453,-5430,-15527,-1778,198,109,905
1,442,79458,-5068,-15559,-1934,205,96,919
1,443,79463,-5131,-15606,-1663,210,89,932
1,444,79468,-5190,-15625,-1690,210,53,952
1,445,79473,-5097,-15746,-1710,216,5,975
1,446,79478,-5298,-15937,-1504,212,-49,987
1,447,79483,-5782,-15788,-1078,210,-104,992
1,448,79488,-6336,-15617,-1334,216,-147,1004
1,449,79493,-6590,-15490,-1705,227,-131,1012
1,450,79498,-6508,-15415,-1613,236,-76,1019
1,451,79503,-6304,-15396,-1653,242,-27,1027
1,452,79508,-6166,-15368,-1564,251,18,1030
1,453,79513,-6224,-15379,-1533,258,29,1033
1,454,79518,-6267,-15546,-1803,263,30,1040
1,455,79523,-6026,-15529,-1738,266,45,1043
1,456,79528,-5890,-15494,-1348,267,66,1048
1,457,79533,-6204,-15410,-1285,272,61,1050
1,458,79538,-6578,-15332,-1274,277,36,1059
1,459,79543,-6468,-15315,-1283,281,5,1066
1,460,79548,-6295,-15224,-985,288,-3,1073
1,461,79553,-6252,-15244,-1113,295,-8,1071
1,462,79558,-7049,-15301,-1075,298,-43,1073
1,463,79563,-7379,-15128,-1185,299,-95,1075
1,464,79568,-6966,-14996,-1577,308,-105,1079
1,465,79573,-6554,-15016,-2131,321,-49,1078
1,466,79578,-6518,-14991,-1846,332,32,1068
1,467,79583,-6624,-14937,-1905,337,52,1064
1,468,79588,-6605,-14860,-1369,343,52,1065
1,469,79593,-6357,-14917,-1472,350,19,1061
1,470,79598,-6454,-15037,-1557,351,9,1056
1,471,79603,-6943,-15009,-1393,349,-5,1050
1,472,79608,-7436,-14908,-1099,354,-23,1047
1,473,79613,-7542,-14816,-1299,359,-31,1044
1,474,79618,-7434,-14718,-1585,370,1,1040
1,475,79623,-7360,-14644,-1505,376,56,1029
1,476,79628,-7483,-14471,-1413,380,100,1019
1,477,79633,-7580,-14367,-1311,387,119,1009
1,478,79638,-7651,-14317,-1205,393,129,999
1,479,79643,-7433,-14193,-1260,400,122,989
1,480,79648,-7133,-14335,-1383,402,119,981
1,481,79653,-7120,-14494,-1053,403,122,973
1,482,79658,-7246,-14487,-827,401,91,960
1,483,79663,-7349,-14599,-861,402,48,954
1,484,79668,-7373,-14627,-950,402,12,945
1,485,79673,-7584,-14630,-830,397,-4,930
1,486,79678,-7860,-14567,-824,399,-6,918
1,487,79683,-7939,-14481,-1025,402,3,907
1,488,79688,-7904,-14454,-1142,403,9,895
1,489,79693,-7743,-14290,-1220,406,15,875
1,490,79698,-7729,-14179,-1406,407,41,856
1,491,79703,-7747,-14049,-1285,409,92,838
1,492,79708,-7664,-14001,-1409,413,127,823
1,493,79713,-7614,-13902,-916,416,140,808
1,494,79718,-7663,-13722,-968,411,113,790
1,495,79723,-7717,-13687,-1057,412,90,775
1,496,79728,-7731,-13586,-1278,413,65,761
1,497,79733,-7781,-13611,-976,409,50,742
1,498,79738,-7752,-13552,-778,405,18,727
1,499,79743,-7676,-13632,-978,406,-17,711
1,500,79748,-7748,-13757,-1166,401,-35,690
1,501,79753,-7765,-13816,-1059,396,-34,670
1,502,79758,-7809,-13877,-777,391,-43,648
1,503,79763,-7862,-13869,-776,389,-64,627
1,504,79768,-7869,-13885,-1001,383,-74,600
1,505,79773,-7817,-13867,-1204,383,-71,582
1,506,79778,-7904,-13722,-1120,378,-69,558
1,507,79783,-8074,-13721,-923,370,-69,531
1,508,79788,-8325,-13672,-956,363,-81,504
1,509,79793,-8354,-13670,-1150,360,-73,478
1,510,79798,-8231,-13710,-1165,359,-35,456
1,511,79803,-7933,-13683,-1028,353,8,428
1,512,79808,-7779,-13760,-778,348,19,399
1,513,79813,-7929,-13851,-769,339,-6,365
1,514,79818,-8064,-13855,-814,327,-47,337
1,515,79823,-8178,-13899,-778,312,-79,312
1,516,79828,-8191,-13932,-739,301,-98,284
1,517,79833,-8112,-13941,-789,290,-110,257
1,518,79838,-7938,-13881,-1046,281,-126,224
1,519,79843,-7774,-13826,-1221,272,-137,191
1,520,79848,-7765,-13756,-1180,260,-138,160
1,521,79853,-7707,-13717,-1284,253,-136,125
1,522,79858,-7805,-13794,-1450,242,-128,93
1,523,79863,-7905,-13837,-1434,229,-119,58
1,524,79868,-7892,-13801,-1341,218,-112,24
1,525,79873,-7847,-13755,-1090,207,-104,-7
1,526,79878,-7789,-13789,-934,198,-90,-40
1,527,79883,-7869,-13880,-864,185,-84,-77
1,528,79888,-8018,-13899,-754,167,-80,-115
1,529,79893,-7996,-13980,-608,149,-89,-153
1,530,79898,-7855,-14040,-444,130,-108,-188
1,531,79903,-7792,-14035,-285,113,-141,-220
1,532,79908,-7923,-14061,-310,93,-184,-255
1,533,79913,-7846,-14123,-649,74,-226,-295
1,534,79918,-7466,-14098,-972,58,-233,-335
1,535,79923,-6885,-14403,-850,26,-207,-399
1,536,79928,-6702,-14509,-777,8,-243,-436
1,537,79933,-6834,-14586,-772,-12,-296,-469
1,538,79938,-7213,-14547,-571,-33,-345,-506
1,539,79943,-7770,-14459,-358,-57,-393,-539
1,540,79948,-8142,-14381,-425,-81,-436,-578
1,541,79953,-8194,-14401,-868,-101,-435,-618
1,542,79958,-7935,-14392,-1105,-117,-369,-658
1,543,79963,-7673,-14526,-1014,-129,-266,-695
1,544,79968,-7553,-14543,-855,-141,-170,-739
1,545,79973,-7470,-14727,-825,-157,-117,-781
1,546,79978,-7318,-14893,-862,-178,-96,-822
1,547,79983,-7181,-14983,-437,-199,-90,-864
1,548,79988,-7021,-15056,-395,-217,-113,-903
1,549,79993,-6754,-15096,-671,-234,-137,-939
1,550,79998,-6424,-15038,-777,-257,-163,-970
1,551,80003,-6074,-15035,-673,-276,-200,-1005
1,552,80008,-5945,-15055,-731,-292,-256,-1035
1,553,80013,-6170,-15061,-917,-310,-325,-1065
1,554,80018,-6736,-15058,-799,-331,-406,-1099
1,555,80023,-7597,-15147,-597,-358,-491,-1131
1,556,80028,-8035,-15210,-639,-384,-543,-1162
1,557,80033,-7657,-15338,-1114,-400,-510,-1187
1,558,80038,-6985,-15651,-1636,-407,-377,-1218
1,559,80043,-6655,-15894,-1518,-416,-207,-1261
1,560,80048,-6745,-15911,-880,-430,-101,-1313
1,561,80053,-6970,-15804,-594,-448,-90,-1359
1,562,80058,-6842,-15820,-685,-473,-107,-1391
1,563,80063,-6429,-15735,-651,-491,-95,-1423
1,564,80068,-6026,-15644,-366,-501,-77,-1453
1,565,80073,-6069,-15751,-247,-515,-110,-1488
1,566,80078,-6278,-15911,-337,-538,-203,-1525
1,567,80083,-6374,-15994,-177,-564,-310,-1556
1,568,80088,-6312,-16047,-67,-581,-387,-1580
1,569,80093,-6524,-16380,-424,-595,-416,-1606
1,570,80098,-6883,-16958,-1194,-615,-440,-1630
1,571,80103,-6752,-17260,151,-636,-388,-1666
1,572,80108,-6559,-17245,-1173,-662,-414,-1698
1,573,80113,-5733,-17610,-1467,-674,-344,-1711
1,574,80118,-4778,-17612,-2006,-681,-186,-1740
1,575,80123,-4249,-17893,-2260,-682,-5,-1760
1,576,80128,-4153,-17610,-967,-686,124,-1802
1,577,80133,-4515,-17294,-1001,-711,80,-1826
1,578,80138,-4391,-16832,-573,-728,-23,-1839
1,579,80143,-4213,-16396,-582,-746,-146,-1845
1,580,80148,-4483,-15919,-827,-756,-254,-1856
1,581,80153,-4954,-15469,-1136,-770,-358,-1871
1,582,80158,-5491,-15078,-1464,-788,-475,-1886
1,583,80163,-5597,-14837,-1856,-799,-584,-1907
1,584,80168,-5588,-14794,-2745,-805,-638,-1925
1,585,80173,-5191,-15098,-2788,-812,-600,-1948
1,586,80178,-5523,-15627,-2182,-814,-525,-1978
1,587,80183,-5487,-16108,-2271,-822,-486,-2009
1,588,80188,-6073,-16172,-1555,-837,-458,-2024
1,589,80193,-5775,-16430,-1217,-846,-454,-2027
1,590,80198,-4560,-16758,-1762,-853,-411,-2029
1,591,80203,-3540,-17058,-2025,-859,-294,-2048
1,592,80208,-3011,-17402,-1786,-858,-145,-2077
1,593,80213,-2623,-17747,-1822,-860,-22,-2097
1,594,80218,-2119,-18018,-1663,-860,90,-2108
1,595,80223,-1432,-18057,-954,-858,171,-2111
1,596,80228,-1026,-17875,-215,-861,173,-2108
1,597,80233,-1063,-17552,308,-861,78,-2099
1,598,80238,-1472,-16796,170,-867,-106,-2084
1,599,80243,2365,-6266,-13024,-824,-320,-1969
1,600,80248,-15103,13446,8593,-784,2693,-3013
1,601,80253,15560,-18988,-16540,-378,362,-742
1,602,80258,-933,-5773,14205,-561,1901,-1171
1,603,80263,24623,-24528,20616,-730,1216,-1448
1,604,80268,-6142,-14472,12899,-810,-1951,-2043
1,605,80273,-11803,-17201,-17313,-674,-5108,-1528
1,606,80278,-18239,-12781,-17872,-906,-3808,-1394
1,607,80283,-4458,-14120,-15598,-885,-1234,-1373
1,608,80288,4569,-20910,4725,-552,1479,-1487
1,609,80293,-3545,-17508,525,-669,151,-1708
1,610,80298,-6816,-15465,-6324,-755,-1190,-1653
1,611,80303,-4536,-15167,-5527,-769,-929,-1524
1,612,80308,-255,-15756,-3369,-664,210,-1452
1,613,80313,1845,-16964,-443,-567,973,-1451
1,614,80318,600,-17692,2952,-578,635,-1457
1,615,80323,-1053,-17207,223,-668,-515,-1448
1,616,80328,-1764,-16216,-2936,-721,-1130,-1422
1,617,80333,-1859,-15914,-5321,-680,-830,-1351
1,618,80338,-1768,-16536,-4105,-607,-59,-1307
1,619,80343,-853,-16722,-1725,-563,270,-1283
1,620,80348,30,-17274,-278,-568,17,-1242
1,621,80353,-102,-16952,-1626,-605,-406,-1250
1,622,80358,-1259,-16336,-3142,-617,-523,-1240
1,623,80363,-2418,-16110,-3607,-590,-333,-1188
1,624,80368,-2503,-15973,-2592,-551,-116,-1138
1,625,80373,-1704,-16301,-1719,-521,-113,-1090
1,626,80378,-977,-16569,-2156,-521,-244,-1067
1,627,80383,-975,-16252,-3389,-519,-322,-1059
1,628,80388,-1616,-15951,-3480,-507,-246,-1033
1,629,80393,-2101,-15656,-2912,-486,-138,-996
1,630,80398,-1760,-15662,-2350,-463,-89,-948
1,631,80403,-938,-15801,-2309,-442,-100,-906
1,632,80408,-286,-15914,-2426,-434,-126,-876
1,633,80413,-272,-15851,-2280,-424,-167,-842
1,634,80418,-550,-15760,-2066,-413,-206,-799
1,635,80423,-479,-15548,-2322,-400,-246,-746
1,636,80428,30,-15560,-2454,-390,-252,-691
1,637,80433,471,-15576,-2421,-379,-237,-650
1,638,80438,329,-15523,-2283,-369,-224,-613
1,639,80443,-40,-15395,-2335,-356,-240,-572
1,640,80448,-138,-15201,-2911,-342,-248,-529
1,641,80453,87,-15164,-3343,-324,-212,-481
1,642,80458,305,-15163,-3171,-311,-157,-439
1,643,80463,394,-15020,-2710,-299,-160,-402
1,644,80468,61,-14838,-2536,-287,-225,-367
1,645,80473,-260,-14793,-3077,-276,-306,-327
1,646,80478,-672,-14844,-3383,-265,-342,-287
1,647,80483,-1178,-15033,-3443,-254,-340,-248
1,648,80488,-1419,-15122,-3683,-241,-318,-215
1,649,80493,-1029,-15163,-4322,-231,-264,-177
1,650,80498,-336,-15183,-4679,-210,-134,-153
1,651,80503,-9,-15197,-4080,-188,32,-133
1,652,80508,-164,-15207,-3348,-172,128,-112
1,653,80513,-224,-15114,-2981,-161,123,-88
1,654,80518,-96,-15069,-3019,-154,69,-55
1,655,80523,236,-15122,-3182,-147,17,-19
1,656,80528,591,-15253,-3213,-138,-7,18
1,657,80533,839,-15232,-3279,-127,-33,48
1,658,80538,1053,-15290,-3401,-120,-70,72
1,659,80543,1290,-15379,-3560,-116,-110,100
1,660,80548,1265,-15356,-3401,-111,-149,128
1,661,80553,1094,-15339,-2925,-109,-204,154
1,662,80558,610,-15339,-2827,-104,-290,184
1,663,80563,181,-15401,-3627,-99,-372,213
1,664,80568,-35,-15474,-4525,-96,-393,244
1,665,80573,-146,-15425,-4726,-89,-346,268
1,666,80578,168,-15375,-5074,-79,-264,282
1,667,80583,500,-15233,-5401,-61,-134,292
1,668,80588,586,-15265,-5230,-43,15,295
1,669,80593,255,-15288,-4508,-31,125,294
1,670,80598,-30,-15243,-3963,-26,150,299
1,671,80603,62,-15101,-3937,-22,121,314
1,672,80608,461,-15084,-4061,-15,90,329
1,673,80613,817,-15144,-4103,-8,68,342
1,674,80618,1053,-15358,-4211,-3,36,350
1,675,80623,1012,-15455,-4437,-1,-5,357
1,676,80628,930,-15482,-4466,0,-26,365
1,677,80633,913,-15495,-4305,0,-23,376
1,678,80638,1088,-15572,-4216,4,-17,388
1,679,80643,1286,-15623,-4127,5,-13,395
1,680,80648,1281,-15643,-3938,6,-22,399
1,681,80653,987,-15575,-4156,6,-70,413
1,682,80658,1017,-15597,-4502,10,-62,421
1,683,80663,993,-15691,-4380,12,-32,424
1,684,80668,912,-15755,-4377,13,-14,424
1,685,80673,889,-15837,-4625,15,1,423
1,686,80678,786,-15791,-4694,17,25,417
1,687,80683,509,-15776,-4477,17,52,418
1,688,80688,446,-15780,-4297,19,67,417
1,689,80693,491,-15891,-4427,25,69,414
1,690,80698,563,-16031,-4605,31,68,407
1,691,80703,527,-16186,-4591,28,68,401
1,692,80708,446,-16228,-4418,21,50,393
1,693,80713,447,-16293,-4301,18,34,387
1,694,80718,702,-16289,-4386,18,34,385
1,695,80723,1052,-16308,-4421,20,52,378
1,696,80728,1323,-16319,-4149,20,69,374
1,697,80733,1357,-16394,-3895,18,52,372
1,698,80738,1210,-16317,-3911,12,5,367
1,699,80743,1139,-16283,-4253,6,-33,365
1,700,80748,1114,-16275,-4524,5,-33,363
1,701,80753,1170,-16329,-4521,5,-5,362
1,702,80758,1159,-16192,-4362,4,16,357
1,703,80763,1141,-16120,-4560,4,29,345
1,704,80768,1083,-16087,-4866,4,52,337
1,705,80773,971,-16004,-4851,2,86,331
1,706,80778,769,-15926,-4601,-1,100,321
1,707,80783,599,-15818,-4422,-2,84,313
1,708,80788,604,-15729,-4604,-4,60,305
1,709,80793,513,-15754,-4752,0,57,291
1,710,80798,222,-15813,-4740,-3,62,278
1,711,80803,153,-15786,-4735,-7,58,269
1,712,80808,293,-15672,-4862,-8,60,257
1,713,80813,442,-15612,-4850,-7,79,243
1,714,80818,463,-15598,-4694,-5,99,229
1,715,80823,367,-15638,-4670,-6,112,218
1,716,80828,389,-15748,-4684,-6,111,209
1,717,80833,690,-15753,-4561,-8,118,202
1,718,80838,958,-15770,-4485,-10,135,195
1,719,80843,973,-15824,-4507,-9,144,183
1,720,80848,1045,-15946,-4450,-7,141,172
1,721,80853,1094,-16014,-4092,-14,120,164
1,722,80858,1039,-15886,-4195,-20,73,150
1,723,80863,802,-15962,-4389,-19,41,152
1,724,80868,756,-16008,-4545,-22,35,144
1,725,80873,679,-16048,-4384,-25,43,141
1,726,80878,731,-16074,-4417,-23,38,134
1,727,80883,626,-16008,-4689,-23,35,119
1,728,80888,451,-16094,-4910,-18,57,111
1,729,80893,266,-16129,-4742,-18,89,103
1,730,80898,188,-16131,-4365,-22,98,95
1,731,80903,253,-16091,-4349,-23,83,88
1,732,80908,251,-16114,-4687,-24,84,77
1,733,80913,130,-16075,-4848,-19,110,68
1,734,80918,19,-16022,-4614,-18,133,57
1,735,80923,36,-15936,-4383,-19,145,46
1,736,80928,189,-15852,-4540,-15,152,38
1,737,80933,456,-15811,-4795,-12,174,28
1,738,80938,629,-15748,-4573,-10,200,22
1,739,80943,753,-15618,-4158,-14,183,18
1,740,80948,851,-15567,-4102,-15,124,13
1,741,80953,852,-15620,-4303,-16,68,17
1,742,80958,809,-15727,-4484,-20,31,15
1,743,80963,636,-15719,-4478,-23,-3,12
1,744,80968,446,-15681,-4433,-23,-26,12
1,745,80973,372,-15674,-4600,-21,-26,5
1,746,80978,353,-15742,-4847,-18,9,2
1,747,80983,301,-15782,-4914,-15,60,-5
1,748,80988,119,-15744,-4504,-14,97,-15
1,749,80993,34,-15711,-4327,-12,90,-21
1,750,80998,37,-15718,-4572,-11,80,-21
1,751,81003,11,-15729,-4590,-10,89,-27
1,752,81008,59,-15834,-4441,-8,101,-32
1,753,81013,180,-15833,-4469,-7,103,-40
1,754,81018,457,-15811,-4560,-6,117,-45
1,755,81023,687,-15902,-4296,-4,130,-49
1,756,81028,820,-15862,-4073,-5,113,-50
1,757,81033,724,-15811,-3997,-8,72,-46
1,758,81038,525,-15757,-4029,-11,18,-43
1,759,81043,449,-15746,-4214,-16,-19,-37
1,760,81048,497,-15742,-4391,-15,-24,-34
1,761,81053,447,-15768,-4577,-10,-12,-39
1,762,81058,255,-15733,-4612,-6,3,-43
1,763,81063,182,-15766,-4458,-9,10,-44
1,764,81068,289,-15814,-4500,-7,22,-45
1,765,81073,416,-15835,-4606,-6,43,-45
1,766,81078,275,-15817,-4464,-5,58,-48
1,767,81083,50,-15735,-4177,-8,44,-50
1,768,81088,77,-15704,-4286,-10,5,-46
1,769,81093,131,-15736,-4717,-11,-3,-48
1,770,81098,40,-15789,-4929,-5,26,-50
1,771,81103,-14,-15792,-4726,-3,65,-50
1,772,81108,61,-15761,-4474,-2,82,-55
1,773,81113,99,-15680,-4615,0,84,-58
1,774,81118,157,-15679,-4786,3,105,-59
1,775,81123,221,-15722,-4470,4,122,-58
1,776,81128,369,-15730,-3985,3,106,-56
1,777,81133,530,-15664,-3934,3,56,-55
1,778,81138,507,-15671,-4254,3,6,-51
1,779,81143,525,-15689,-4410,-1,-17,-45
1,780,81148,438,-15704,-4208,-1,-33,-46
1,781,81153,310,-15761,-4095,-2,-61,-42
1,782,81158,248,-15836,-4385,-3,-87,-41
1,783,81163,151,-15877,-4706,-4,-78,-37
1,784,81168,263,-15916,-4725,-4,-45,-35
1,785,81173,325,-15851,-4454,-2,-13,-37
1,786,81178,266,-15773,-4361,0,-3,-38
1,787,81183,196,-15732,-4577,1,-5,-42
1,788,81188,48,-15699,-4795,0,2,-42
1,789,81193,-118,-15684,-4689,2,21,-39
1,790,81198,-43,-15656,-4554,5,29,-39
1,791,81203,58,-15664,-4612,5,38,-43
1,792,81208,54,-15695,-4718,10,53,-45
1,793,81213,80,-15783,-4710,14,72,-47
1,794,81218,19,-15782,-4471,11,79,-48
1,795,81223,152,-15714,-4409,12,66,-47
1,796,81228,286,-15684,-4492,13,56,-48
1,797,81233,418,-15706,-4477,13,52,-44
1,798,81238,455,-15717,-4309,16,45,-44
1,799,81243,453,-15686,-4209,14,25,-41
1,800,81248,468,-15625,-4275,10,7,-42
1,801,81253,547,-15660,-4373,11,-4,-36
1,802,81258,650,-15728,-4373,13,-13,-31
1,803,81263,702,-15838,-4278,11,-22,-27
1,804,81268,575,-15899,-4260,12,-37,-30
1,805,81273,395,-15966,-4442,10,-50,-28
1,806,81278,223,-15999,-4622,9,-45,-24
1,807,81283,273,-16047,-4583,9,-31,-25
1,808,81288,418,-16047,-4445,10,-11,-25
1,809,81293,422,-16083,-4468,11,-2,-25
1,810,81298,278,-16034,-4502,10,0,-28
1,811,81303,164,-15994,-4500,12,2,-29
1,812,81308,98,-15928,-4480,12,-5,-28
1,813,81313,88,-15879,-4423,14,-9,-28
1,814,81318,131,-15812,-4452,16,-13,-25
1,815,81323,140,-15728,-4558,15,-15,-27
1,816,81328,234,-15687,-4570,17,-6,-28
1,817,81333,256,-15609,-4522,20,0,-29
1,818,81338,353,-15633,-4483,19,-3,-28
1,819,81343,537,-15712,-4480,16,-7,-29
1,820,81348,589,-15720,-4382,16,-15,-28
1,821,81353,577,-15722,-4308,14,-26,-27
1,822,81358,503,-15732,-4330,14,-46,-28
1,823,81363,453,-15725,-4413,11,-63,-26
1,824,81368,350,-15687,-4532,10,-64,-25
1,825,81373,387,-15664,-4627,15,-46,-23
1,826,81378,413,-15697,-4631,14,-17,-23
1,827,81383,377,-15727,-4581,16,7,-28
1,828,81388,366,-15742,-4434,16,28,-32
1,829,81393,415,-15743,-4340,17,32,-33
1,830,81398,397,-15768,-4383,15,26,-31
1,831,81403,443,-15813,-4310,12,13,-30
1,832,81408,501,-15817,-4246,12,-3,-26
1,833,81413,538,-15818,-4389,12,-21,-24
1,834,81418,495,-15767,-4568,13,-28,-24
1,835,81423,384,-15774,-4594,9,-33,-27
1,836,81428,297,-15779,-4515,9,-34,-26
1,837,81433,324,-15832,-4569,11,-32,-24
1,838,81438,441,-15855,-4713,14,-15,-26
1,839,81443,485,-15857,-4673,16,15,-28
1,840,81448,404,-15807,-4482,14,27,-30
1,841,81453,369,-15816,-4316,14,14,-31
1,842,81458,478,-15860,-4333,10,-10,-31
1,843,81463,611,-15941,-4339,13,-23,-33
1,844,81468,554,-15876,-4307,9,-25,-32
1,845,81473,403,-15912,-4290,6,-37,-29
1,846,81478,299,-15860,-4404,5,-59,-25
1,847,81483,376,-15850,-4579,2,-63,-24
1,848,81488,447,-15869,-4580,1,-43,-31
1,849,81493,403,-15885,-4594,5,-20,-35
1,850,81498,268,-15808,-4611,8,-2,-35
1,851,81503,214,-15829,-4638,7,6,-39
1,852,81508,274,-15842,-4645,6,8,-37
1,853,81513,433,-15800,-4554,7,14,-39
1,854,81518,499,-15775,-4409,7,12,-42
1,855,81523,519,-15746,-4350,5,2,-45
1,856,81528,574,-15740,-4475,6,-11,-43
1,857,81533,644,-15722,-4545,7,-22,-39
1,858,81538,759,-15833,-4421,5,-30,-40
1,859,81543,821,-15904,-4281,2,-38,-40
1,860,81548,739,-15911,-4387,-1,-51,-41
1,861,81553,592,-15891,-4570,-2,-58,-38
1,862,81558,509,-15808,-4639,-1,-47,-41
1,863,81563,488,-15794,-4545,-3,-32,-40
1,864,81568,456,-15794,-4416,-6,-19,-43
1,865,81573,429,-15839,-4494,-2,-13,-44
1,866,81578,377,-15768,-4549,-1,2,-50
1,867,81583,342,-15725,-4475,1,14,-47
1,868,81588,406,-15724,-4399,2,18,-46
1,869,81593,568,-15725,-4413,-2,9,-48
1,870,81598,616,-15741,-4449,0,-2,-49
1,871,81603,578,-15814,-4499,-1,-14,-49
1,872,81608,567,-15868,-4399,-6,-31,-49
1,873,81613,647,-15852,-4419,-3,-43,-46
1,874,81618,547,-15770,-4452,-1,-44,-46
1,875,81623,495,-15741,-4557,-2,-45,-44
1,876,81628,463,-15760,-4615,-2,-48,-43
1,877,81633,426,-15764,-4464,-8,-46,-46
1,878,81638,411,-15791,-4460,-6,-48,-47
1,879,81643,373,-15832,-4715,0,-38,-50
1,880,81648,347,-15881,-4732,0,-12,-52
1,881,81653,261,-15902,-4491,0,12,-57
1,882,81658,349,-15869,-4297,2,17,-55
1,883,81663,496,-15826,-4356,2,15,-54
1,884,81668,586,-15807,-4442,3,18,-54
1,885,81673,655,-15754,-4355,2,18,-55
1,886,81678,710,-15704,-4291,0,5,-50
1,887,81683,683,-15702,-4299,0,-14,-46
1,888,81688,684,-15721,-4444,0,-37,-44
1,889,81693,609,-15657,-4524,-2,-34,-44
1,890,81698,656,-15620,-4536,3,-25,-38
1,891,81703,616,-15614,-4483,5,-13,-37
1,892,81708,578,-15645,-4492,4,-11,-37
1,893,81713,560,-15676,-4431,1,-14,-38
1,894,81718,504,-15685,-4384,3,-23,-36
1,895,81723,465,-15735,-4351,4,-32,-33
1,896,81728,445,-15817,-4257,4,-36,-31
1,897,81733,470,-15874,-4364,2,-38,-32
1,898,81738,461,-15865,-4484,4,-38,-30
1,899,81743,445,-15811,-4471,6,-32,-28
1,900,81748,370,-15783,-4254,3,-29,-29
1,901,81753,335,-15795,-4555,5,-41,-25
1,902,81758,416,-15787,-4690,7,-25,-23
1,903,81763,516,-15761,-4598,5,-4,-23
1,904,81768,544,-15755,-4472,10,2,-23
1,905,81773,543,-15702,-4497,7,2,-26
1,906,81778,469,-15686,-4484,11,3,-23
1,907,81783,451,-15686,-4412,13,1,-17
1,908,81788,599,-15748,-4412,10,0,-15
1,909,81793,728,-15815,-4433,11,-4,-13
1,910,81798,678,-15796,-4342,11,-12,-13
1,911,81803,588,-15777,-4307,9,-27,-10
1,912,81808,531,-15785,-4366,8,-32,-7
1,913,81813,567,-15823,-4441,11,-23,-2
1,914,81818,530,-15834,-4334,14,-16,0
1,915,81823,523,-15839,-4313,16,-18,1
1,916,81828,471,-15849,-4357,15,-30,0
1,917,81833,497,-15967,-4446,13,-36,3
1,918,81838,549,-16062,-4390,10,-34,5
1,919,81843,467,-16032,-4321,10,-34,7
1,920,81848,366,-15945,-4368,12,-37,8
1,921,81853,268,-15844,-4363,13,-38,9
1,922,81858,313,-15781,-4429,11,-36,10
1,923,81863,448,-15781,-4494,13,-29,14
1,924,81868,475,-15734,-4491,15,-11,12
1,925,81873,478,-15728,-4486,16,-3,12
1,926,81878,495,-15719,-4497,13,-5,16
1,927,81883,512,-15742,-4463,15,-4,17
1,928,81888,535,-15737,-4406,14,-7,16
1,929,81893,471,-15776,-4367,15,-12,20
1,930,81898,446,-15834,-4442,16,-15,20
1,931,81903,550,-15894,-4576,16,-9,18
1,932,81908,536,-15897,-4508,15,7,19
1,933,81913,479,-15821,-4318,15,16,22
1,934,81918,443,-15730,-4255,15,11,23
1,935,81923,471,-15693,-4330,14,1,26
1,936,81928,486,-15681,-4435,12,-2,27
1,937,81933,539,-15646,-4359,13,-3,24
1,938,81938,488,-15646,-4360,13,-13,28
1,939,81943,489,-15613,-4417,13,-20,29
1,940,81948,479,-15656,-4573,13,-13,27
1,941,81953,430,-15662,-4545,14,-2,29
1,942,81958,434,-15723,-4380,14,3,32
1,943,81963,453,-15777,-4338,14,-7,30
1,944,81968,511,-15852,-4433,14,-14,29
1,945,81973,523,-15927,-4605,14,-7,29
1,946,81978,512,-15952,-4505,16,11,29
1,947,81983,489,-15951,-4276,14,21,31
1,948,81988,558,-15947,-4258,11,9,33
1,949,81993,646,-15955,-4340,11,-1,29
1,950,81998,652,-15951,-4300,9,-3,34
1,951,82003,609,-15970,-4212,9,-9,36
1,952,82008,606,-15980,-4341,8,-27,38
1,953,82013,619,-15981,-4493,11,-33,37
1,954,82018,656,-15931,-4500,9,-30,40
1,955,82023,570,-15880,-4424,9,-23,40
1,956,82028,507,-15914,-4397,10,-20,39
1,957,82033,494,-15994,-4444,9,-20,41
1,958,82038,470,-15965,-4531,13,-16,43
1,959,82043,474,-15900,-4520,10,-6,40
1,960,82048,471,-15822,-4452,10,-1,37
1,961,82053,409,-15792,-4491,8,-1,36
1,962,82058,401,-15759,-4566,9,-5,35
1,963,82063,397,-15723,-4531,12,-4,36
1,964,82068,353,-15745,-4566,12,1,39
1,965,82073,356,-15741,-4610,11,12,37
1,966,82078,358,-15678,-4543,10,14,34
1,967,82083,376,-15733,-4438,12,13,33
1,968,82088,403,-15791,-4436,12,7,30
1,969,82093,508,-15859,-4378,13,10,30
1,970,82098,565,-15875,-4266,12,11,30
1,971,82103,495,-15776,-4154,7,0,27
1,972,82108,471,-15731,-4215,7,-20,31
1,973,82113,583,-15732,-4397,6,-32,34
1,974,82118,601,-15757,-4370,6,-28,37
1,975,82123,567,-15730,-4376,3,-29,33
1,976,82128,526,-15761,-4534,3,-26,32
1,977,82133,504,-15779,-4590,3,-10,32
1,978,82138,478,-15775,-4492,4,4,32
1,979,82143,475,-15752,-4280,3,1,31
1,980,82148,473,-15759,-4326,6,-12,28
1,981,82153,446,-15774,-4441,3,-17,31
1,982,82158,387,-15771,-4472,3,-18,32
1,983,82163,402,-15801,-4407,1,-21,30
1,984,82168,321,-15801,-4394,-1,-28,28
1,985,82173,278,-15811,-4512,1,-28,24
1,986,82178,295,-15872,-4630,1,-13,24
1,987,82183,325,-15893,-4545,0,9,22
1,988,82188,363,-15958,-4367,-1,23,20
1,989,82193,396,-15988,-4258,2,17,17
1,990,82198,365,-15942,-4269,-1,3,13
1,991,82203,339,-15954,-4323,-2,-1,13
1,992,82208,398,-15951,-4387,-4,4,15
1,993,82213,551,-15969,-4387,-1,9,14
1,994,82218,600,-15964,-4275,-3,9,12
1,995,82223,605,-15914,-4266,-7,0,12
1,996,82228,604,-15879,-4423,-5,-8,15
1,997,82233,544,-15835,-4443,-6,-9,11
1,998,82238,490,-15844,-4315,-7,-16,13
1,999,82243,493,-15830,-4314,-9,-32,13
