event_id,seq,ts_ms,ax,ay,az,gx,gy,gz
1,0,18068,-2249,-16118,-2525,-13,-81,-18
1,1,18073,-2206,-16148,-2472,-13,-83,-16
1,2,18078,-2266,-16158,-2497,-15,-81,-18
1,3,18083,-2367,-16162,-2568,-17,-75,-18
1,4,18088,-2468,-16202,-2688,-16,-57,-21
1,5,18093,-2488,-16290,-2662,-14,-29,-23
1,6,18098,-2471,-16343,-2550,-17,-6,-21
1,7,18103,-2388,-16352,-2451,-17,19,-23
1,8,18108,-2378,-16328,-2460,-18,26,-24
1,9,18113,-2448,-16318,-2450,-16,34,-27
1,10,18118,-2451,-16257,-2441,-17,42,-25
1,11,18123,-2375,-16206,-2460,-19,43,-25
1,12,18128,-2194,-16144,-2503,-19,38,-26
1,13,18133,-2155,-16091,-2586,-17,36,-26
1,14,18138,-2200,-16055,-2607,-16,31,-27
1,15,18143,-2190,-16042,-2659,-18,30,-26
1,16,18148,-2167,-15946,-2694,-18,27,-23
1,17,18153,-2126,-15902,-2604,-21,28,-22
1,18,18158,-2076,-15833,-2637,-19,30,-22
1,19,18163,-2095,-15840,-2670,-17,30,-23
1,20,18168,-2085,-15875,-2608,-19,23,-24
1,21,18173,-2083,-15917,-2586,-22,8,-22
1,22,18178,-2055,-15990,-2674,-21,-7,-17
1,23,18183,-2021,-16013,-2681,-19,-9,-14
1,24,18188,-1975,-16025,-2698,-19,-2,-14
1,25,18193,-2013,-16073,-2612,-17,5,-17
1,26,18198,-2126,-16164,-2607,-20,7,-15
1,27,18203,-2125,-16209,-2610,-24,5,-11
1,28,18208,-2004,-16196,-2607,-24,12,-10
1,29,18213,-1996,-16148,-2533,-22,22,-8
1,30,18218,-2016,-16113,-2482,-22,24,-9
1,31,18223,-2095,-16146,-2472,-25,14,-7
1,32,18228,-2176,-16149,-2463,-28,-9,-1
1,33,18233,-2176,-16109,-2512,-26,-26,-4
1,34,18238,-2157,-16073,-2619,-28,-35,-4
1,35,18243,-2181,-16027,-2729,-24,-34,0
1,36,18248,-2244,-15986,-2738,-23,-30,-1
1,37,18253,-2286,-15988,-2676,-25,-39,-1
1,38,18258,-2310,-16018,-2633,-26,-56,2
1,39,18263,-2353,-16082,-2704,-28,-66,0
1,40,18268,-2406,-16115,-2778,-25,-65,-1
1,41,18273,-2418,-16127,-2823,-23,-53,0
1,42,18278,-2460,-16123,-2899,-25,-40,1
1,43,18283,-2443,-16078,-2929,-24,-27,-3
1,44,18288,-2403,-16068,-2890,-22,-7,-2
1,45,18293,-2444,-16042,-2809,-22,19,-4
1,46,18298,-2463,-16073,-2696,-19,39,-5
1,47,18303,-2391,-16081,-2574,-18,47,-6
1,48,18308,-2344,-16035,-2538,-19,46,-6
1,49,18313,-2335,-16037,-2526,-20,35,-5
1,50,18318,-2278,-15962,-2526,-18,25,-4
1,51,18323,-2253,-15901,-2566,-19,17,-4
1,52,18328,-2227,-15844,-2656,-23,11,0
1,53,18333,-2228,-15814,-2685,-22,3,-2
1,54,18338,-2247,-15845,-2629,-21,-5,-1
1,55,18343,-2171,-15856,-2656,-19,-15,2
1,56,18348,-2088,-15877,-2725,-19,-22,1
1,57,18353,-2090,-15930,-2693,-18,-30,0
1,58,18358,-2137,-15993,-2586,-21,-34,0
1,59,18363,-2180,-16068,-2557,-23,-45,3
1,60,18368,-2245,-16109,-2602,-21,-56,5
1,61,18373,-2247,-16198,-2668,-21,-54,5
1,62,18378,-2245,-16272,-2676,-19,-43,6
1,63,18383,-2215,-16267,-2734,-18,-28,9
1,64,18388,-2232,-16244,-2726,-19,-9,9
1,65,18393,-2331,-16245,-2697,-18,3,6
1,66,18398,-2394,-16237,-2654,-17,10,8
1,67,18403,-2367,-16162,-2644,-19,14,7
1,68,18408,-2263,-16137,-2683,-19,24,8
1,69,18413,-2291,-16106,-2651,-19,30,8
1,70,18418,-2395,-16081,-2635,-18,27,8
1,71,18423,-2435,-16035,-2727,-16,24,9
1,72,18428,-2321,-16005,-2818,-13,30,10
1,73,18433,-2189,-16014,-2772,-13,42,11
1,74,18438,-2109,-15999,-2611,-14,49,9
1,75,18443,-2175,-16087,-2476,-12,43,7
1,76,18448,-2200,-16081,-2342,-14,16,9
1,77,18453,-2149,-16045,-2377,-16,-19,12
1,78,18458,-2082,-16037,-2493,-17,-43,15
1,79,18463,-2102,-16016,-2561,-14,-57,18
1,80,18468,-2342,-16141,-2663,-14,-85,17
1,81,18473,-2383,-16129,-2827,-16,-91,17
1,82,18478,-2399,-16135,-2917,-18,-74,16
1,83,18483,-2396,-16139,-2949,-14,-40,19
1,84,18488,-2472,-16114,-2908,-11,-3,16
1,85,18493,-2536,-16135,-2819,-10,21,13
1,86,18498,-2493,-16120,-2716,-11,38,11
1,87,18503,-2362,-16106,-2625,-7,46,15
1,88,18508,-2321,-16007,-2470,-8,49,14
1,89,18513,-2358,-15975,-2422,-8,41,11
1,90,18518,-2387,-15913,-2464,-7,24,13
1,91,18523,-2360,-15871,-2523,-9,3,13
1,92,18528,-2267,-15854,-2548,-8,-15,16
1,93,18533,-2250,-15871,-2621,-10,-36,14
1,94,18538,-2324,-15886,-2657,-10,-48,15
1,95,18543,-2400,-15912,-2740,-6,-53,17
1,96,18548,-2384,-15992,-2888,-6,-50,14
1,97,18553,-2335,-16007,-2810,-6,-40,14
1,98,18558,-2384,-16031,-2733,-9,-27,16
1,99,18563,-2360,-16072,-2653,-10,-24,13
1,100,18568,-2449,-16065,-2660,-8,-14,11
1,101,18573,-2453,-16068,-2755,-10,-1,9
1,102,18578,-2499,-16074,-2688,-7,7,9
1,103,18583,-2535,-16030,-2619,-4,11,10
1,104,18588,-2509,-15995,-2626,-6,11,8
1,105,18593,-2556,-15996,-2715,-6,18,7
1,106,18598,-2539,-15936,-2782,-3,29,8
1,107,18603,-2503,-15884,-2735,-1,37,8
1,108,18608,-2455,-15894,-2597,-6,37,6
1,109,18613,-2403,-15864,-2472,-7,29,7
1,110,18618,-2332,-15896,-2459,-8,16,5
1,111,18623,-2307,-15923,-2458,-5,1,5
1,112,18628,-2322,-15891,-2517,-7,-13,6
1,113,18633,-2354,-15928,-2538,-8,-22,4
1,114,18638,-2317,-15974,-2568,-9,-32,5
1,115,18643,-2309,-15986,-2641,-13,-43,6
1,116,18648,-2318,-15999,-2728,-9,-42,5
1,117,18653,-2359,-15924,-2792,-10,-36,4
1,118,18658,-2363,-15941,-2877,-9,-25,4
1,119,18663,-2390,-15923,-2864,-7,-7,2
1,120,18668,-2425,-15962,-2780,-6,5,3
1,121,18673,-2449,-15954,-2751,-5,13,0
1,122,18678,-2295,-15958,-2732,-7,20,4
1,123,18683,-2225,-15943,-2728,-5,26,3
1,124,18688,-2271,-15928,-2709,-3,33,4
1,125,18693,-2269,-15932,-2700,-4,29,0
1,126,18698,-2281,-15898,-2660,-6,26,-2
1,127,18703,-2222,-15943,-2664,-4,24,1
1,128,18708,-2136,-15979,-2686,-3,24,2
1,129,18713,-2100,-15923,-2691,-2,30,5
1,130,18718,-2105,-15921,-2738,0,32,5
1,131,18723,-2128,-15944,-2658,-2,30,8
1,132,18728,-2151,-15960,-2636,-3,20,5
1,133,18733,-2147,-15944,-2619,-3,9,5
1,134,18738,-2127,-15979,-2663,-2,1,7
1,135,18743,-2134,-15966,-2675,-2,-6,9
1,136,18748,-2114,-16054,-2652,-1,-6,11
1,137,18753,-2199,-16054,-2645,-2,-11,11
1,138,18758,-2229,-16006,-2623,1,-19,11
1,139,18763,-2279,-15988,-2622,-3,-28,8
1,140,18768,-2328,-16014,-2679,-1,-35,11
1,141,18773,-2354,-16018,-2771,3,-33,14
1,142,18778,-2364,-16044,-2796,1,-27,12
1,143,18783,-2388,-16058,-2818,0,-17,11
1,144,18788,-2370,-16008,-2832,5,-15,11
1,145,18793,-2378,-16000,-2874,5,-7,11
1,146,18798,-2442,-16008,-2790,2,4,9
1,147,18803,-2447,-16014,-2786,5,13,7
1,148,18808,-2473,-16011,-2753,6,19,5
1,149,18813,-2465,-16079,-2695,4,22,6
1,150,18818,-2378,-16120,-2609,7,25,6
1,151,18823,-2380,-16127,-2598,7,22,4
1,152,18828,-2410,-16077,-2687,5,17,5
1,153,18833,-2424,-16073,-2718,4,15,2
1,154,18838,-2440,-16105,-2622,5,12,4
1,155,18843,-2401,-16135,-2639,5,6,3
1,156,18848,-2354,-16156,-2732,6,6,2
1,157,18853,-2302,-16150,-2727,8,6,3
1,158,18858,-2279,-16137,-2703,7,9,4
1,159,18863,-2269,-16168,-2642,6,6,2
1,160,18868,-2298,-16156,-2625,6,-3,3
1,161,18873,-2281,-16125,-2649,7,-13,3
1,162,18878,-2270,-16091,-2619,4,-23,3
1,163,18883,-2332,-16125,-2667,5,-31,3
1,164,18888,-2330,-16121,-2711,8,-35,4
1,165,18893,-2375,-16079,-2685,6,-45,6
1,166,18898,-2376,-16130,-2698,5,-48,2
1,167,18903,-2377,-16168,-2845,5,-46,2
1,168,18908,-2475,-16220,-2883,6,-33,1
1,169,18913,-2513,-16170,-2858,7,-14,1
1,170,18918,-2475,-16120,-2824,4,7,-2
1,171,18923,-2424,-16068,-2838,6,22,-3
1,172,18928,-2400,-16033,-2794,7,35,-1
1,173,18933,-2390,-15957,-2763,10,46,0
1,174,18938,-2343,-15933,-2668,11,43,0
1,175,18943,-2319,-15913,-2620,9,36,-2
1,176,18948,-2324,-15867,-2627,7,25,-5
1,177,18953,-2272,-15831,-2661,9,15,0
1,178,18958,-2265,-15809,-2688,8,10,-2
1,179,18963,-2244,-15845,-2672,10,6,-3
1,180,18968,-2235,-15780,-2684,7,-3,-2
1,181,18973,-2236,-15769,-2696,8,-11,0
1,182,18978,-2257,-15779,-2701,10,-24,0
1,183,18983,-2283,-15861,-2643,7,-34,-1
1,184,18988,-2399,-15903,-2637,7,-46,4
1,185,18993,-2347,-15923,-2669,4,-54,3
1,186,18998,-2292,-15949,-2760,5,-51,2
1,187,19003,-2359,-16023,-2870,7,-40,-3
1,188,19008,-2500,-15980,-2821,6,-24,-2
1,189,19013,-2602,-15895,-2767,5,-16,-4
1,190,19018,-2555,-15845,-2834,5,-2,-5
1,191,19023,-2468,-15821,-2874,7,18,-4
1,192,19028,-2479,-15862,-2794,9,46,-6
1,193,19033,-2462,-15885,-2678,8,60,-7
1,194,19038,-2410,-15853,-2629,10,52,-5
1,195,19043,-2379,-15938,-2636,10,39,-3
1,196,19048,-2314,-15992,-2600,7,33,-5
1,197,19053,-2291,-16009,-2543,6,25,-7
1,198,19058,-2192,-16056,-2556,8,19,-6
1,199,19063,-2184,-16040,-2626,7,8,-4
1,200,19068,-2228,-16005,-2662,6,-6,-3
1,201,19073,-2299,-16037,-2655,6,-17,-5
1,202,19078,-2363,-16108,-2669,6,-25,-7
1,203,19083,-2353,-16085,-2637,4,-33,-5
1,204,19088,-2323,-16093,-2746,2,-32,-4
1,205,19093,-2304,-16114,-2839,6,-20,-6
1,206,19098,-2369,-16073,-2825,7,-10,-5
1,207,19103,-2448,-16101,-2744,7,0,-8
1,208,19108,-2404,-16089,-2712,6,11,-6
1,209,19113,-2363,-16130,-2675,7,21,-3
1,210,19118,-2337,-16168,-2616,7,23,-5
1,211,19123,-2331,-16190,-2533,4,21,-9
1,212,19128,-2341,-16164,-2618,7,17,-8
1,213,19133,-2317,-16137,-2700,7,19,-7
1,214,19138,-2256,-16134,-2699,8,27,-4
1,215,19143,-2190,-16170,-2620,8,33,-6
1,216,19148,-2150,-16163,-2606,7,27,-4
1,217,19153,-2122,-16125,-2553,3,12,-4
1,218,19158,-2146,-16107,-2536,4,-3,-4
1,219,19163,-2124,-16153,-2553,3,-14,-2
1,220,19168,-2131,-16156,-2561,4,-29,-1
1,221,19173,-2234,-16188,-2606,2,-42,0
1,222,19178,-2285,-16207,-2651,2,-56,-1
1,223,19183,-2338,-16182,-2798,3,-65,-1
1,224,19188,-2325,-16101,-2895,0,-59,2
1,225,19193,-2329,-16084,-2871,2,-47,2
1,226,19198,-2375,-16083,-2816,4,-34,-5
1,227,19203,-2372,-16025,-2744,2,-24,0
1,228,19208,-2350,-16037,-2722,1,-26,-1
1,229,19213,-2407,-16043,-2691,1,-19,-3
1,230,19218,-2452,-16079,-2724,2,-14,-4
1,231,19223,-2402,-16139,-2719,3,-15,0
1,232,19228,-2364,-16191,-2749,0,-11,-3
1,233,19233,-2367,-16153,-2710,0,-6,-5
1,234,19238,-2359,-16142,-2676,1,-3,-4
1,235,19243,-2335,-16100,-2664,0,-2,-3
1,236,19248,-2347,-16110,-2719,0,5,-5
1,237,19253,-2404,-16097,-2687,0,3,-6
1,238,19258,-2324,-16042,-2662,0,-4,-3
1,239,19263,-2309,-16019,-2664,-2,-4,-4
1,240,19268,-2305,-15982,-2603,-3,-13,-4
1,241,19273,-2311,-15991,-2605,-3,-22,-3
1,242,19278,-2325,-15962,-2680,-2,-29,-3
1,243,19283,-2343,-15913,-2731,-2,-35,-3
1,244,19288,-2376,-15913,-2720,-5,-38,-4
1,245,19293,-2390,-15995,-2741,-6,-47,-5
1,246,19298,-2428,-16003,-2706,-4,-50,-5
1,247,19303,-2358,-15982,-2792,-4,-46,-7
1,248,19308,-2431,-15979,-2853,-4,-34,-8
1,249,19313,-2517,-15958,-2891,-3,-19,-9
1,250,19318,-2539,-16012,-2827,-3,-8,-8
1,251,19323,-2491,-16050,-2731,-4,-4,-8
1,252,19328,-2431,-16113,-2687,-4,4,-9
1,253,19333,-2453,-16133,-2689,-7,16,-12
1,254,19338,-2485,-16143,-2713,-5,27,-13
1,255,19343,-2544,-16111,-2715,-4,33,-15
1,256,19348,-2437,-16041,-2682,-6,37,-15
1,257,19353,-2335,-16039,-2661,-8,45,-16
1,258,19358,-2314,-16051,-2634,-6,51,-17
1,259,19363,-2302,-16023,-2599,-7,48,-16
1,260,19368,-2293,-15998,-2545,-8,33,-15
1,261,19373,-2206,-15958,-2529,-11,13,-14
1,262,19378,-2123,-15914,-2631,-11,-8,-14
1,263,19383,-2114,-15928,-2687,-12,-22,-13
1,264,19388,-2199,-15953,-2662,-13,-35,-11
1,265,19393,-2332,-15971,-2647,-11,-51,-11
1,266,19398,-2254,-16014,-2745,-14,-64,-11
1,267,19403,-2221,-16033,-2826,-17,-60,-10
1,268,19408,-2263,-16029,-2835,-16,-48,-9
1,269,19413,-2341,-16032,-2811,-12,-35,-11
1,270,19418,-2464,-16142,-2807,-12,-32,-11
1,271,19423,-2396,-16172,-2843,-13,-25,-9
1,272,19428,-2333,-16144,-2792,-18,-18,-12
1,273,19433,-2347,-16153,-2791,-16,-7,-12
1,274,19438,-2401,-16123,-2783,-13,8,-14
1,275,19443,-2413,-16088,-2841,-9,18,-17
1,276,19448,-2342,-16073,-2817,-15,29,-13
1,277,19453,-2232,-15984,-2759,-13,33,-12
1,278,19458,-2206,-15984,-2677,-14,33,-11
1,279,19463,-2230,-15958,-2673,-13,28,-14
1,280,19468,-2218,-15948,-2666,-13,20,-12
1,281,19473,-2238,-15955,-2687,-17,12,-13
1,282,19478,-2162,-15967,-2621,-15,-1,-10
1,283,19483,-2079,-15927,-2646,-14,-14,-9
1,284,19488,-2160,-15920,-2737,-16,-22,-8
1,285,19493,-2295,-15883,-2729,-17,-30,-9
1,286,19498,-2316,-15914,-2767,-13,-36,-7
1,287,19503,-2320,-15949,-2818,-13,-42,-6
1,288,19508,-2295,-16002,-2908,-15,-43,-7
1,289,19513,-2299,-15986,-2912,-15,-39,-4
1,290,19518,-2352,-15961,-2886,-12,-29,-8
1,291,19523,-2456,-15951,-2914,-13,-17,-10
1,292,19528,-2445,-15974,-2870,-12,-5,-7
1,293,19533,-2447,-16028,-2788,-13,4,-8
1,294,19538,-2336,-16026,-2684,-14,8,-8
1,295,19543,-2301,-15997,-2688,-12,4,-8
1,296,19548,-2377,-15945,-2764,-8,6,-9
1,297,19553,-2381,-15977,-2769,-10,2,-11
1,298,19558,-2380,-15977,-2661,-12,2,-10
1,299,19563,-2295,-15970,-2600,-12,-1,-8
1,300,19568,-2290,-15932,-2677,-12,-4,-8
1,301,19573,-2335,-15973,-2676,-11,-14,-10
1,302,19578,-2355,-15957,-2675,-9,-29,-8
1,303,19583,-2302,-15929,-2726,-10,-39,-7
1,304,19588,-2354,-15971,-2722,-10,-44,-6
1,305,19593,-2404,-15994,-2719,-10,-47,-8
1,306,19598,-2513,-16079,-2783,-10,-55,-9
1,307,19603,-2531,-16068,-2795,-10,-58,-9
1,308,19608,-2465,-16103,-2849,-10,-51,-11
1,309,19613,-2508,-16126,-2903,-9,-31,-13
1,310,19618,-2560,-16092,-2844,-8,-10,-15
1,311,19623,-2598,-16109,-2794,-6,5,-12
1,312,19628,-2542,-16107,-2805,-7,17,-14
1,313,19633,-2455,-16047,-2711,-7,28,-19
1,314,19638,-2432,-16048,-2718,-3,39,-20
1,315,19643,-2433,-16033,-2674,0,46,-21
1,316,19648,-2365,-16008,-2580,-1,45,-22
1,317,19653,-2283,-15969,-2586,0,40,-22
1,318,19658,-2215,-15991,-2595,-4,34,-22
1,319,19663,-2213,-15964,-2585,-3,30,-23
1,320,19668,-2210,-15937,-2541,-2,21,-22
1,321,19673,-2252,-15945,-2569,-1,7,-17
1,322,19678,-2243,-15992,-2646,-2,-6,-18
1,323,19683,-2203,-16056,-2664,-3,-15,-15
1,324,19688,-2244,-16058,-2720,-6,-14,-16
1,325,19693,-2259,-16082,-2776,-2,-14,-17
1,326,19698,-2247,-16082,-2824,-3,-8,-16
1,327,19703,-2240,-16065,-2833,-5,1,-16
1,328,19708,-2248,-16034,-2758,-2,8,-17
1,329,19713,-2212,-16048,-2733,1,15,-15
1,330,19718,-2206,-15995,-2644,-1,17,-13
1,331,19723,-2215,-15998,-2626,-1,13,-14
1,332,19728,-2235,-15998,-2621,-1,6,-13
1,333,19733,-2236,-15981,-2666,-3,-3,-12
1,334,19738,-2229,-15915,-2660,-1,-15,-13
1,335,19743,-2232,-15934,-2730,-1,-23,-13
1,336,19748,-2250,-15900,-2805,0,-22,-11
1,337,19753,-2279,-15878,-2862,0,-20,-14
1,338,19758,-2359,-15880,-2867,2,-19,-13
1,339,19763,-2377,-15892,-2882,3,-13,-10
1,340,19768,-2299,-15922,-2834,3,-3,-12
1,341,19773,-2282,-15968,-2769,3,5,-12
1,342,19778,-2277,-15967,-2668,2,8,-14
1,343,19783,-2265,-15981,-2629,5,4,-12
1,344,19788,-2274,-15982,-2652,5,-1,-10
1,345,19793,-2221,-15966,-2629,2,-11,-10
1,346,19798,-2240,-15919,-2581,5,-26,-11
1,347,19803,-2304,-15910,-2711,4,-39,-11
1,348,19808,-2371,-15895,-2818,5,-44,-9
1,349,19813,-2427,-15894,-2863,7,-50,-10
1,350,19818,-2381,-15951,-2885,5,-45,-8
1,351,19823,-2345,-16006,-2910,5,-38,-10
1,352,19828,-2322,-15980,-2928,7,-26,-13
1,353,19833,-2385,-16030,-2875,10,-11,-14
1,354,19838,-2459,-16017,-2753,9,-4,-13
1,355,19843,-2492,-15988,-2779,9,-4,-12
1,356,19848,-2436,-15962,-2860,11,5,-14
1,357,19853,-2448,-15950,-2996,12,21,-16
1,358,19858,-2498,-15978,-3005,15,37,-16
1,359,19863,-2498,-15953,-2878,17,50,-18
1,360,19868,-2456,-15944,-2862,17,53,-18
1,361,19873,-2477,-15941,-2915,19,60,-19
1,362,19878,-2470,-15958,-2993,22,72,-25
1,363,19883,-2450,-15920,-2979,23,85,-24
1,364,19888,-2368,-15934,-2904,25,92,-19
1,365,19893,-2357,-15887,-2832,24,94,-20
1,366,19898,-2305,-15870,-2697,24,93,-23
1,367,19903,-2217,-15882,-2594,25,88,-25
1,368,19908,-2202,-15893,-2529,26,76,-23
1,369,19913,-2225,-15970,-2363,27,56,-22
1,370,19918,-2206,-16011,-2346,24,20,-18
1,371,19923,-2189,-16076,-2399,23,-19,-18
1,372,19928,-2192,-16074,-2541,21,-45,-15
1,373,19933,-2294,-16097,-2681,22,-49,-16
1,374,19938,-2513,-16020,-2883,22,-41,-11
1,375,19943,-2462,-15973,-3016,23,-30,-9
1,376,19948,-2365,-15986,-3052,23,-6,-9
1,377,19953,-2361,-15966,-2945,25,29,-9
1,378,19958,-2550,-15891,-2805,27,57,-13
1,379,19963,-2671,-15775,-2849,28,74,-9
1,380,19968,-2612,-15735,-3027,29,97,-4
1,381,19973,-2395,-15607,-2918,30,127,0
1,382,19978,-2396,-15499,-2494,28,146,0
1,383,19983,-2471,-15464,-2290,25,135,4
1,384,19988,-2291,-15484,-2354,27,106,16
1,385,19993,-1815,-15501,-2109,25,68,32
1,386,19998,-1765,-15561,-1537,16,7,43
1,387,20003,-1987,-15701,-1434,12,-86,51
1,388,20008,-1929,-15762,-1908,8,-188,71
1,389,20013,-1726,-15946,-2214,4,-258,94
1,390,20018,-1767,-16039,-2194,-2,-302,104
1,391,20023,-1875,-16105,-2276,-7,-341,117
1,392,20028,-1939,-16192,-2823,-7,-367,138
1,393,20033,-2263,-16033,-3173,-7,-351,151
1,394,20038,-2721,-15997,-3105,-7,-313,166
1,395,20043,-2988,-15944,-3123,-5,-271,186
1,396,20048,-2928,-16011,-3479,-3,-210,203
1,397,20053,-2940,-15907,-3571,1,-124,215
1,398,20058,-2991,-15937,-3422,8,-39,231
1,399,20063,-3089,-15814,-2936,9,10,247
1,400,20068,-2922,-15714,-2567,8,16,272
1,401,20073,-2878,-15678,-2190,10,1,293
1,402,20078,-2991,-15780,-2138,8,-25,313
1,403,20083,-3058,-15851,-2387,12,-63,337
1,404,20088,-3208,-16040,-3080,16,-96,364
1,405,20093,-2964,-15910,-3038,10,-114,392
1,406,20098,-2566,-15719,-2179,7,-131,419
1,407,20103,-2116,-15433,-824,7,-135,443
1,408,20108,-2329,-15613,-1595,23,-83,459
1,409,20113,-3756,-16400,-5735,54,123,469
1,410,20118,-5961,-17178,-9434,87,470,479
1,411,20123,-5130,-16755,-5718,80,723,522
1,412,20128,-3264,-15333,490,20,563,549
1,413,20133,-2602,-15199,3682,-5,171,585
1,414,20138,-3511,-15773,-448,47,-131,594
1,415,20143,-4918,-15735,-4573,88,-104,591
1,416,20148,-4896,-15331,-3611,62,-23,636
1,417,20153,-3804,-15477,-903,26,-189,710
1,418,20158,-2943,-15716,-1200,4,-436,742
1,419,20163,-3598,-15925,-4045,36,-436,730
1,420,20168,-5167,-15388,-5714,88,-139,707
1,421,20173,-6230,-14949,-4010,93,151,748
1,422,20178,-5646,-15471,-2261,77,173,820
1,423,20183,-3955,-15437,-1611,68,56,839
1,424,20188,-3027,-15659,-2165,67,-17,851
1,425,20193,-3880,-15521,-2601,86,16,849
1,426,20198,-5381,-15145,-2122,91,31,861
1,427,20203,-5926,-15077,-2123,92,-58,903
1,428,20208,-5160,-15242,-2723,86,-148,945
1,429,20213,-4201,-15424,-3136,82,-144,965
1,430,20218,-4380,-15396,-2917,90,-60,966
1,431,20223,-5350,-15254,-2704,103,-7,969
1,432,20228,-6154,-15033,-2833,110,-9,985
1,433,20233,-6115,-15049,-2833,102,-19,1015
1,434,20238,-5540,-15151,-2471,98,-8,1041
1,435,20243,-4988,-15219,-2172,102,4,1056
1,436,20248,-5099,-15232,-2228,109,-3,1061
1,437,20253,-5757,-15143,-2681,113,-32,1066
1,438,20258,-6267,-15060,-2874,108,-57,1079
1,439,20263,-6275,-15032,-2668,104,-64,1101
1,440,20268,-6061,-15189,-2492,108,-46,1114
1,441,20273,-6058,-15357,-2664,116,-11,1118
1,442,20278,-6191,-15347,-2992,121,32,1120
1,443,20283,-6300,-15349,-2958,118,71,1129
1,444,20288,-6235,-15416,-2490,115,95,1137
1,445,20293,-6149,-15550,-2091,114,101,1147
1,446,20298,-6080,-15598,-2095,117,100,1153
1,447,20303,-6180,-15494,-2367,114,103,1166
1,448,20308,-6241,-15453,-2352,108,89,1167
1,449,20313,-6173,-15389,-2379,104,78,1175
1,450,20318,-5946,-15369,-2405,104,87,1180
1,451,20323,-5805,-15395,-2309,108,101,1181
1,452,20328,-5828,-15412,-2064,110,96,1182
1,453,20333,-6010,-15448,-1943,102,37,1186
1,454,20338,-6172,-15445,-2128,96,-47,1192
1,455,20343,-6186,-15448,-2452,93,-92,1193
1,456,20348,-6191,-15446,-2600,95,-85,1192
1,457,20353,-6334,-15474,-2534,97,-56,1184
1,458,20358,-6557,-15502,-2428,98,-40,1180
1,459,20363,-6813,-15556,-2305,96,-48,1177
1,460,20368,-7095,-15577,-2050,90,-70,1172
1,461,20373,-7416,-15669,-1990,85,-88,1165
1,462,20378,-7431,-15646,-2257,83,-86,1157
1,463,20383,-7234,-15578,-2563,87,-43,1149
1,464,20388,-7252,-15583,-2488,84,17,1135
1,465,20393,-7527,-15555,-2233,84,42,1120
1,466,20398,-7677,-15478,-2172,83,37,1108
1,467,20403,-7595,-15434,-2306,81,31,1096
1,468,20408,-7482,-15440,-2282,75,49,1080
1,469,20413,-7525,-15373,-2114,71,67,1061
1,470,20418,-7677,-15345,-2012,68,57,1045
1,471,20423,-7711,-15282,-2209,67,29,1028
1,472,20428,-7696,-15191,-2546,63,15,1011
1,473,20433,-7719,-15083,-2534,60,25,991
1,474,20438,-7801,-15041,-2444,59,43,970
1,475,20443,-8017,-14995,-2514,59,59,949
1,476,20448,-7890,-14898,-2679,53,73,930
1,477,20453,-7702,-14790,-2518,51,84,909
1,478,20458,-7752,-14662,-2158,49,86,886
1,479,20463,-7947,-14558,-2116,45,74,864
1,480,20468,-8110,-14469,-2309,44,58,843
1,481,20473,-8270,-14495,-2451,41,47,823
1,482,20478,-8267,-14497,-2568,38,48,802
1,483,20483,-7880,-14482,-2738,35,60,784
1,484,20488,-7595,-14528,-2823,34,98,761
1,485,20493,-7750,-14546,-2710,32,145,728
1,486,20498,-7903,-14473,-2540,32,177,705
1,487,20503,-7727,-14343,-2419,31,183,690
1,488,20508,-7451,-14310,-2240,25,179,670
1,489,20513,-7334,-14311,-2092,22,163,645
1,490,20518,-7410,-14242,-2025,19,134,624
1,491,20523,-7509,-14102,-2141,16,84,604
1,492,20528,-7617,-13999,-2316,9,42,580
1,493,20533,-7584,-13943,-2501,6,25,560
1,494,20538,-7549,-13902,-2515,7,27,542
1,495,20543,-7514,-13902,-2521,4,36,517
1,496,20548,-7530,-13871,-2547,5,34,494
1,497,20553,-7657,-13803,-2607,4,24,471
1,498,20558,-7702,-13695,-2578,-2,14,446
1,499,20563,-7501,-13597,-2471,-5,8,430
1,500,20568,-7316,-13514,-2213,-7,-9,407
1,501,20573,-7370,-13455,-1972,-7,-42,382
1,502,20578,-7738,-13427,-1953,-11,-103,359
1,503,20583,-8173,-13378,-2296,-17,-162,333
1,504,20588,-8058,-13378,-2755,-19,-185,313
1,505,20593,-7681,-13364,-2893,-18,-158,293
1,506,20598,-7510,-13417,-2684,-18,-106,265
1,507,20603,-7730,-13405,-2470,-16,-78,235
1,508,20608,-8050,-13288,-2400,-14,-86,206
1,509,20613,-8280,-13255,-2385,-19,-104,184
1,510,20618,-8281,-13315,-2460,-21,-110,159
1,511,20623,-8014,-13309,-2487,-19,-93,132
1,512,20628,-7850,-13429,-2544,-19,-63,105
1,513,20633,-7982,-13462,-2603,-18,-42,75
1,514,20638,-8177,-13391,-2615,-19,-33,43
1,515,20643,-8117,-13296,-2572,-22,-29,18
1,516,20648,-7951,-13277,-2470,-20,-9,-5
1,517,20653,-7796,-13342,-2313,-16,17,-35
1,518,20658,-7667,-13360,-2122,-15,19,-65
1,519,20663,-7679,-13449,-2066,-18,-17,-93
1,520,20668,-7700,-13451,-2109,-21,-68,-123
1,521,20673,-7583,-13406,-2195,-29,-135,-172
1,522,20678,-7615,-13375,-2270,-22,-137,-200
1,523,20683,-7732,-13343,-2402,-20,-142,-229
1,524,20688,-7760,-13331,-2479,-21,-154,-257
1,525,20693,-7766,-13372,-2464,-24,-167,-286
1,526,20698,-7689,-13333,-2426,-23,-169,-313
1,527,20703,-7590,-13385,-2395,-20,-157,-342
1,528,20708,-7509,-13385,-2351,-18,-145,-374
1,529,20713,-7453,-13268,-2211,-18,-150,-404
1,530,20718,-7442,-13294,-2099,-19,-170,-431
1,531,20723,-7369,-13291,-2140,-21,-201,-457
1,532,20728,-7255,-13282,-2227,-21,-227,-486
1,533,20733,-7269,-13312,-2222,-17,-246,-515
1,534,20738,-7340,-13380,-2310,-19,-262,-544
1,535,20743,-7354,-13486,-2508,-21,-275,-577
1,536,20748,-7247,-13470,-2661,-17,-275,-604
1,537,20753,-7062,-13484,-2751,-14,-253,-637
1,538,20758,-6969,-13543,-2753,-10,-219,-670
1,539,20763,-7000,-13624,-2609,-7,-194,-700
1,540,20768,-7047,-13691,-2394,-6,-191,-729
1,541,20773,-6923,-13854,-2184,-7,-196,-755
1,542,20778,-6681,-14123,-2023,-5,-199,-781
1,543,20783,-6536,-14327,-1810,-5,-203,-813
1,544,20788,-6481,-14533,-1697,-5,-217,-842
1,545,20793,-6421,-14773,-1672,-6,-242,-868
1,546,20798,-6312,-14918,-1640,-8,-275,-898
1,547,20803,-6275,-14987,-1521,-12,-307,-926
1,548,20808,-6535,-15124,-1395,-13,-339,-955
1,549,20813,-6740,-15254,-1564,-17,-367,-983
1,550,20818,-6791,-15330,-1940,-20,-379,-1008
1,551,20823,-6628,-15439,-2130,-21,-354,-1036
1,552,20828,-6441,-15543,-2124,-26,-309,-1062
1,553,20833,-6320,-15667,-2002,-26,-265,-1092
1,554,20838,-6408,-15653,-1943,-24,-235,-1125
1,555,20843,-6484,-15636,-2018,-23,-207,-1156
1,556,20848,-6510,-15593,-1980,-18,-184,-1181
1,557,20853,-6468,-15579,-1747,-20,-168,-1207
1,558,20858,-6365,-15690,-1659,-23,-164,-1233
1,559,20863,-6162,-15854,-1770,-23,-157,-1259
1,560,20868,-6051,-15968,-1829,-23,-141,-1291
1,561,20873,-6026,-16041,-1571,-25,-135,-1318
1,562,20878,-5952,-16084,-1323,-31,-151,-1340
1,563,20883,-5777,-16087,-1364,-35,-181,-1360
1,564,20888,-5645,-16075,-1432,-39,-207,-1383
1,565,20893,-5722,-16028,-1469,-38,-229,-1406
1,566,20898,-5864,-16061,-1660,-41,-253,-1432
1,567,20903,-5887,-16112,-2008,-49,-271,-1455
1,568,20908,-5801,-16090,-2098,-50,-267,-1474
1,569,20913,-5841,-16133,-1952,-55,-249,-1497
1,570,20918,-5828,-16088,-1875,-55,-229,-1520
1,571,20923,-5768,-16000,-2069,-54,-208,-1541
1,572,20928,-5801,-16007,-2156,-54,-180,-1565
1,573,20933,-5781,-16019,-1907,-57,-162,-1586
1,574,20938,-5637,-15997,-1674,-62,-166,-1601
1,575,20943,-5309,-16071,-1749,-64,-174,-1620
1,576,20948,-5010,-16159,-1945,-62,-165,-1639
1,577,20953,-5217,-16241,-1844,-64,-149,-1664
1,578,20958,-5564,-16261,-1658,-74,-152,-1684
1,579,20963,-5638,-16217,-1656,-78,-175,-1695
1,580,20968,-5395,-16252,-1818,-79,-172,-1706
1,581,20973,-5195,-16346,-1876,-85,-137,-1722
1,582,20978,-5037,-16388,-1910,-84,-94,-1736
1,583,20983,-4832,-16344,-1862,-85,-70,-1746
1,584,20988,-4641,-16352,-1828,-90,-66,-1758
1,585,20993,-4597,-16381,-1616,-98,-78,-1771
1,586,20998,-4694,-16398,-1310,-101,-101,-1783
1,587,21003,-4787,-16375,-1204,-102,-131,-1787
1,588,21008,-4725,-16419,-1614,-106,-151,-1790
1,589,21013,-4515,-16404,-2174,-107,-147,-1791
1,590,21018,-4255,-16502,-2499,-110,-110,-1787
1,591,21023,-4098,-16524,-2643,-110,-64,-1790
1,592,21028,-3941,-16360,-2730,-112,-3,-1785
1,593,21033,-3576,-16332,-2907,-107,76,-1777
1,594,21038,-2341,-16438,-1904,-93,217,-1759
1,595,21043,-2163,-16554,-950,-94,177,-1749
1,596,21048,-2121,-16548,-444,-102,43,-1740
1,597,21053,-2009,-16581,-748,-111,-125,-1719
1,598,21058,-672,-20579,-820,-82,-231,-1725
1,599,21063,72,-11492,-6820,175,750,-1649
1,600,21068,-27123,-3740,-7838,-367,-628,-1581
1,601,21073,-7937,-27055,-1725,-292,-1109,-918
1,602,21078,336,291,-6114,-465,-878,-1213
1,603,21083,19953,-18396,3501,-343,-40,-707
1,604,21088,15319,-21794,366,-87,402,-1252
1,605,21093,-9371,-14276,-5682,-142,39,-1615
1,606,21098,-22293,-12493,-7918,-237,-986,-1399
1,607,21103,-13802,-9161,-5354,-428,-1481,-1239
1,608,21108,3794,-12540,-1067,-349,-849,-962
1,609,21113,12330,-16709,-1320,-196,271,-1010
1,610,21118,24306,-4768,-7373,-177,829,-1201
1,611,21123,-2369,-8731,19081,-742,761,-859
1,612,21128,-32768,-4329,21749,-540,-3405,-657
1,613,21133,-12627,-2931,-32768,995,-19896,1561
1,614,21138,32767,-27724,-30642,1131,-6947,2323
1,615,21143,31964,-32768,-22593,-978,9696,441
1,616,21148,-23244,-15386,22779,-1037,16673,-1471
1,617,21153,-32768,5711,30556,448,8812,-1153
1,618,21158,-17665,-9320,-31273,1343,-4256,1655
1,619,21163,20071,-21093,-20753,249,3071,1508
1,620,21168,32767,-19499,11388,-583,5691,868
1,621,21173,13032,-19776,32767,-413,6135,901
1,622,21178,-20074,-23835,26077,262,-566,524
1,623,21183,-27316,-14877,-28984,289,-7072,-107
1,624,21188,-14147,-15175,-32768,-232,-4673,555
1,625,21193,7790,-18386,-12539,-709,-1758,968
1,626,21198,18919,-21253,20219,-503,151,835
1,627,21203,5846,-19661,12186,96,907,377
1,628,21208,-13858,-20548,-27936,406,1074,182
1,629,21213,-21428,-16973,-31266,137,1814,222
1,630,21218,-7904,-14712,4384,-312,1887,645
1,631,21223,11391,-18650,29701,-348,999,895
1,632,21228,15711,-18820,17898,-51,202,549
1,633,21233,3367,-20100,-10543,186,210,255
1,634,21238,-13519,-16768,-19933,31,531,198
1,635,21243,-14508,-14928,-251,-285,90,553
1,636,21248,-1065,-15646,15332,-466,-1273,838
1,637,21253,10374,-17735,4557,-302,-1963,697
1,638,21258,5734,-17837,-14141,-3,-875,346
1,639,21263,-8306,-17141,-17251,52,701,230
1,640,21268,-15453,-15308,-7876,-102,931,388
1,641,21273,-7440,-14371,3917,-237,131,605
1,642,21278,4489,-15550,3973,-219,-409,623
1,643,21283,6527,-16838,-5282,-70,155,407
1,644,21288,-1811,-16579,-7819,44,1208,228
1,645,21293,-9206,-15285,-4033,-21,1298,254
1,646,21298,-7782,-13773,1299,-147,411,394
1,647,21303,-123,-14294,1855,-198,-387,490
1,648,21308,4408,-15183,-1844,-137,-245,404
1,649,21313,1301,-15524,-5580,-45,501,269
1,650,21318,-4372,-15005,-4826,-14,860,227
1,651,21323,-6326,-13965,-2715,-89,426,292
1,652,21328,-2885,-13778,-1998,-163,-175,376
1,653,21333,1087,-14658,-1577,-154,-188,372
1,654,21338,1280,-14877,-3458,-86,253,268
1,655,21343,-1820,-14562,-4156,-14,663,210
1,656,21348,-4207,-14377,-3863,-37,576,245
1,657,21353,-3760,-14417,-2302,-104,186,284
1,658,21358,-1498,-14333,-779,-145,-70,276
1,659,21363,-28,-14567,-1370,-110,-6,240
1,660,21368,-1206,-15045,-3606,-43,236,198
1,661,21373,-3204,-14975,-4871,-27,385,163
1,662,21378,-4028,-14697,-3392,-57,323,182
1,663,21383,-2617,-15200,-1795,-104,127,217
1,664,21388,-1114,-15228,-1989,-104,58,195
1,665,21393,-903,-15546,-2745,-64,226,153
1,666,21398,-2351,-15615,-3864,-23,400,120
1,667,21403,-2767,-15675,-1781,-67,289,143
1,668,21408,-1554,-15706,-1518,-93,109,138
1,669,21413,-891,-15889,-1966,-75,99,116
1,670,21418,-1669,-15832,-2736,-40,204,89
1,671,21423,-2774,-15635,-3134,-25,274,76
1,672,21428,-2996,-15650,-2734,-41,231,85
1,673,21433,-2067,-15662,-2510,-65,129,91
1,674,21438,-964,-15768,-2729,-63,104,86
1,675,21443,-701,-15965,-3048,-40,185,62
1,676,21448,-1517,-15863,-2941,-18,271,36
1,677,21453,-2454,-15930,-2213,-21,251,37
1,678,21458,-2646,-15891,-1688,-46,123,45
1,679,21463,-2023,-15967,-1733,-58,4,47
1,680,21468,-1589,-16181,-2199,-42,-24,41
1,681,21473,-1796,-16304,-2620,-29,21,21
1,682,21478,-2423,-16366,-2760,-23,46,8
1,683,21483,-2798,-16385,-2872,-30,10,9
1,684,21488,-2780,-16354,-2984,-41,-22,6
1,685,21493,-2531,-16354,-2987,-35,1,-6
1,686,21498,-2348,-16379,-2963,-19,80,-17
1,687,21503,-2337,-16387,-2963,-5,165,-27
1,688,21508,-2419,-16306,-2863,-3,192,-36
1,689,21513,-2381,-16247,-2492,-10,158,-41
1,690,21518,-2275,-16210,-2140,-16,97,-46
1,691,21523,-2272,-16142,-2088,-13,46,-50
1,692,21528,-2309,-16175,-2319,-8,29,-58
1,693,21533,-2402,-16249,-2537,-4,11,-67
1,694,21538,-2406,-16258,-2546,-4,-27,-74
1,695,21543,-2452,-16171,-2494,-12,-79,-81
1,696,21548,-2526,-16111,-2569,-12,-118,-87
1,697,21553,-2775,-16079,-2753,-5,-111,-93
1,698,21558,-3043,-16140,-2916,-3,-80,-98
1,699,21563,-3158,-16160,-3006,1,-55,-98
1,700,21568,-2989,-16107,-3142,3,-38,-104
1,701,21573,-2788,-16062,-3404,3,-10,-110
1,702,21578,-2649,-16061,-3561,12,47,-120
1,703,21583,-2676,-15986,-3351,21,118,-131
1,704,21588,-2788,-15929,-2871,25,165,-133
1,705,21593,-2749,-15905,-2558,27,170,-132
1,706,21598,-2556,-15876,-2512,26,141,-136
1,707,21603,-2309,-15957,-2660,25,105,-140
1,708,21608,-2244,-15929,-2597,29,69,-144
1,709,21613,-2391,-15888,-2563,29,37,-146
1,710,21618,-2610,-15858,-2655,25,-1,-146
1,711,21623,-2703,-15851,-2856,25,-27,-146
1,712,21628,-2704,-15880,-3056,27,-27,-148
1,713,21633,-2610,-15964,-3147,31,-8,-151
1,714,21638,-2642,-16039,-3238,35,18,-153
1,715,21643,-2710,-16011,-3406,38,46,-157
1,716,21648,-2730,-15990,-3476,39,79,-161
1,717,21653,-2725,-15980,-3342,39,113,-161
1,718,21658,-2694,-15903,-2998,43,139,-162
1,719,21663,-2620,-15819,-2908,47,155,-160
1,720,21668,-2543,-15915,-2879,51,165,-165
1,721,21673,-2499,-15969,-2904,53,159,-168
1,722,21678,-2342,-15939,-2831,50,145,-164
1,723,21683,-2168,-15911,-2825,45,122,-162
1,724,21688,-2053,-15834,-2889,47,101,-159
1,725,21693,-2012,-15766,-2965,48,97,-156
1,726,21698,-2053,-15713,-2865,51,92,-153
1,727,21703,-2117,-15788,-2741,52,72,-150
1,728,21708,-2161,-15891,-2721,46,32,-144
1,729,21713,-1997,-16023,-2846,38,3,-142
1,730,21718,-1811,-16053,-3049,36,4,-134
1,731,21723,-1748,-16045,-3121,41,22,-135
1,732,21728,-1919,-15954,-3082,41,38,-136
1,733,21733,-2063,-15812,-3034,41,39,-130
1,734,21738,-1995,-15806,-2942,40,35,-122
1,735,21743,-1878,-15809,-2875,39,33,-116
1,736,21748,-1852,-15748,-2798,39,26,-113
1,737,21753,-1897,-15678,-2814,38,9,-114
1,738,21758,-1961,-15602,-2925,36,-17,-109
1,739,21763,-1931,-15626,-2969,33,-36,-103
1,740,21768,-1922,-15719,-2862,30,-44,-96
1,741,21773,-1851,-15963,-2899,28,-59,-88
1,742,21778,-1892,-15996,-3046,24,-71,-84
1,743,21783,-1886,-15940,-3179,19,-72,-79
1,744,21788,-1904,-15871,-3186,17,-64,-75
1,745,21793,-1957,-15815,-3185,20,-37,-71
1,746,21798,-2075,-15750,-3177,21,-9,-67
1,747,21803,-2134,-15710,-3091,20,13,-66
1,748,21808,-2134,-15738,-2952,19,5,-62
1,749,21813,-2082,-15779,-2846,15,-16,-58
1,750,21818,-2048,-15797,-2834,12,-40,-52
1,751,21823,-2114,-15815,-2848,11,-57,-49
1,752,21828,-2196,-15800,-2846,10,-64,-46
1,753,21833,-2375,-15822,-2807,8,-79,-42
1,754,21838,-2491,-15916,-2831,2,-100,-41
1,755,21843,-2480,-16019,-3052,-2,-112,-37
1,756,21848,-2402,-16075,-3210,-3,-101,-34
1,757,21853,-2378,-16097,-3278,0,-73,-37
1,758,21858,-2554,-16082,-3196,-3,-41,-39
1,759,21863,-2685,-16161,-3128,-4,-14,-34
1,760,21868,-2774,-16135,-3104,-6,7,-34
1,761,21873,-2679,-16051,-2974,-6,32,-33
1,762,21878,-2583,-15987,-2843,-6,50,-35
1,763,21883,-2560,-16043,-2917,-11,64,-36
1,764,21888,-2690,-16036,-2924,-10,62,-34
1,765,21893,-2698,-16047,-2924,-11,49,-33
1,766,21898,-2657,-16021,-2869,-15,34,-33
1,767,21903,-2590,-16019,-2848,-21,28,-32
1,768,21908,-2530,-15982,-2937,-22,26,-32
1,769,21913,-2561,-15986,-3017,-19,25,-31
1,770,21918,-2539,-15966,-3052,-22,26,-32
1,771,21923,-2446,-16017,-3053,-24,18,-28
1,772,21928,-2352,-16106,-3080,-24,12,-24
1,773,21933,-2295,-16112,-3031,-24,13,-26
1,774,21938,-2348,-16134,-2933,-25,8,-27
1,775,21943,-2392,-16149,-2981,-30,2,-26
1,776,21948,-2357,-16112,-3124,-33,-3,-21
1,777,21953,-2325,-16100,-3126,-34,2,-17
1,778,21958,-2300,-16119,-3019,-36,15,-13
1,779,21963,-2287,-16128,-2905,-36,23,-15
1,780,21968,-2351,-16065,-2900,-39,22,-15
1,781,21973,-2373,-16104,-3108,-38,22,-15
1,782,21978,-2336,-16158,-3211,-36,30,-14
1,783,21983,-2326,-16163,-3109,-38,46,-10
1,784,21988,-2271,-16113,-2930,-41,51,-5
1,785,21993,-2204,-16055,-3021,-43,54,-5
1,786,21998,-2191,-16012,-3186,-42,67,-7
1,787,22003,-2189,-16020,-3066,-39,75,-3
1,788,22008,-2159,-15977,-2801,-42,62,0
1,789,22013,-2031,-15978,-2702,-52,34,2
1,790,22018,-2026,-16011,-2837,-49,4,5
1,791,22023,-2052,-15958,-3060,-47,-13,8
1,792,22028,-2063,-15906,-3097,-47,-11,10
1,793,22033,-2122,-15906,-2990,-52,-20,10
1,794,22038,-2218,-15948,-3022,-55,-35,14
1,795,22043,-2254,-15993,-3128,-56,-40,17
1,796,22048,-2225,-15952,-3143,-54,-35,20
1,797,22053,-2180,-15881,-3114,-52,-23,22
1,798,22058,-2193,-15884,-3090,-51,-21,20
1,799,22063,-2286,-15909,-3043,-54,-23,20
1,800,22068,-2258,-16015,-3109,-55,-25,23
1,801,22073,-2176,-16053,-3158,-55,-19,24
1,802,22078,-2241,-16092,-3139,-54,-11,25
1,803,22083,-2276,-15985,-3130,-54,3,25
1,804,22088,-2286,-15888,-3145,-52,22,25
1,805,22093,-2212,-15842,-3144,-50,45,27
1,806,22098,-2134,-15864,-3076,-48,62,27
1,807,22103,-2011,-15942,-2895,-49,62,27
1,808,22108,-1958,-15965,-2743,-51,48,27
1,809,22113,-2083,-16016,-2776,-51,25,27
1,810,22118,-2149,-15971,-2929,-51,10,30
1,811,22123,-2075,-15944,-3009,-51,10,31
1,812,22128,-2008,-15977,-2909,-52,17,34
1,813,22133,-2068,-16091,-2866,-51,12,34
1,814,22138,-2033,-16146,-2953,-53,-17,37
1,815,22143,-2039,-16102,-3044,-53,-22,38
1,816,22148,-2098,-16084,-3050,-50,-14,38
1,817,22153,-2177,-16036,-2960,-49,0,38
1,818,22158,-2179,-16011,-2908,-47,0,38
1,819,22163,-2199,-16008,-2917,-48,-12,41
1,820,22168,-2189,-16039,-2939,-51,-21,37
1,821,22173,-2110,-16054,-3101,-49,-24,37
1,822,22178,-2061,-16057,-3121,-48,-15,39
1,823,22183,-2094,-16050,-3084,-42,-3,39
1,824,22188,-2216,-16052,-3098,-41,7,36
1,825,22193,-2243,-15995,-3142,-43,10,36
1,826,22198,-2172,-15942,-3109,-39,18,36
1,827,22203,-2151,-15872,-3105,-37,33,36
1,828,22208,-2160,-15786,-3128,-37,44,35
1,829,22213,-2139,-15779,-3110,-33,41,35
1,830,22218,-2069,-15797,-2943,-31,34,34
1,831,22223,-2007,-15928,-2819,-30,15,35
1,832,22228,-2107,-16110,-2798,-32,-7,35
1,833,22233,-2226,-16145,-2821,-34,-27,34
1,834,22238,-2227,-16059,-3003,-33,-43,34
1,835,22243,-2247,-16042,-3215,-34,-42,34
1,836,22248,-2278,-16058,-3381,-32,-19,31
1,837,22253,-2309,-16053,-3262,-26,12,30
1,838,22258,-2317,-16074,-3033,-24,32,30
1,839,22263,-2324,-15977,-2987,-23,34,27
1,840,22268,-2330,-16008,-3079,-21,37,24
1,841,22273,-2304,-15951,-3070,-20,38,21
1,842,22278,-2241,-15945,-2941,-18,36,22
1,843,22283,-2218,-16012,-2910,-19,22,23
1,844,22288,-2252,-16059,-2990,-20,8,19
1,845,22293,-2243,-16078,-2997,-20,-1,17
1,846,22298,-2235,-16043,-2930,-20,-6,18
1,847,22303,-2206,-16050,-2936,-21,-14,16
1,848,22308,-2179,-16037,-3040,-16,-15,17
1,849,22313,-2160,-15984,-3176,-12,-14,14
1,850,22318,-2174,-15987,-3131,-12,-11,15
1,851,22323,-2142,-15937,-3103,-14,-21,13
1,852,22328,-2155,-15916,-3045,-13,-35,13
1,853,22333,-2185,-15917,-3004,-13,-43,12
1,854,22338,-2215,-15910,-3034,-12,-46,11
1,855,22343,-2237,-15918,-3102,-9,-45,9
1,856,22348,-2230,-15934,-3158,-13,-49,9
1,857,22353,-2277,-15953,-3167,-12,-53,10
1,858,22358,-2374,-15969,-3286,-10,-51,6
1,859,22363,-2340,-15942,-3361,-5,-34,6
1,860,22368,-2351,-15877,-3332,-3,-2,1
1,861,22373,-2375,-15866,-3280,0,25,-3
1,862,22378,-2388,-15910,-3189,-1,38,-4
1,863,22383,-2314,-15889,-3106,2,42,-3
1,864,22388,-2226,-15869,-3048,5,45,-4
1,865,22393,-2191,-15868,-2985,6,40,-7
1,866,22398,-2256,-15824,-2930,7,26,-8
1,867,22403,-2287,-15842,-2921,5,8,-10
1,868,22408,-2211,-15837,-2942,4,-14,-7
1,869,22413,-2185,-15859,-2993,4,-26,-10
1,870,22418,-2159,-15894,-3080,4,-34,-11
1,871,22423,-2153,-15886,-3190,5,-37,-11
1,872,22428,-2231,-15846,-3297,5,-42,-9
1,873,22433,-2261,-15840,-3207,5,-40,-12
1,874,22438,-2296,-15918,-3178,9,-37,-15
1,875,22443,-2326,-16006,-3174,10,-33,-14
1,876,22448,-2356,-16012,-3200,10,-31,-14
1,877,22453,-2305,-16013,-3370,10,-25,-17
1,878,22458,-2275,-15964,-3395,10,-8,-22
1,879,22463,-2214,-15885,-3326,14,10,-21
1,880,22468,-2292,-15837,-3249,14,25,-23
1,881,22473,-2291,-15838,-3180,14,31,-26
1,882,22478,-2282,-15833,-3180,16,33,-26
1,883,22483,-2206,-15795,-3121,18,31,-24
1,884,22488,-2279,-15821,-3041,15,23,-27
1,885,22493,-2364,-15874,-3091,14,15,-27
1,886,22498,-2379,-15853,-3274,15,8,-29
1,887,22503,-2256,-15837,-3394,20,64,-31
1,888,22508,-2214,-15812,-3216,22,90,-33
1,889,22513,-2183,-15753,-3014,23,91,-32
1,890,22518,-2224,-15734,-3035,23,74,-35
1,891,22523,-2243,-15758,-2998,21,47,-35
1,892,22528,-2152,-15830,-2980,20,22,-34
1,893,22533,-2087,-15853,-3023,19,3,-31
1,894,22538,-2112,-15865,-3127,17,-13,-33
1,895,22543,-2177,-15909,-3301,17,-23,-34
1,896,22548,-2177,-15892,-3422,18,-19,-33
1,897,22553,-2155,-15841,-3374,18,-9,-33
1,898,22558,-2158,-15803,-3207,20,-6,-31
1,899,22563,-2130,-15861,-3144,21,-4,-29
1,900,22568,-2077,-15891,-3165,23,1,-34
1,901,22573,-2121,-15957,-3107,22,-3,-34
1,902,22578,-2133,-15991,-3080,19,-16,-30
1,903,22583,-2074,-15975,-3120,18,-25,-28
1,904,22588,-2013,-15957,-3144,17,-19,-27
1,905,22593,-2034,-15942,-3189,21,-8,-31
1,906,22598,-2096,-15960,-3155,22,-2,-30
1,907,22603,-2151,-15976,-3030,20,-7,-30
1,908,22608,-2128,-16050,-3011,18,-19,-26
1,909,22613,-2073,-16100,-3145,17,-24,-26
1,910,22618,-2031,-16078,-3154,19,-16,-28
1,911,22623,-2015,-16058,-3197,20,-8,-25
1,912,22628,-2096,-16022,-3160,19,-4,-22
1,913,22633,-2153,-16034,-3129,22,-5,-23
1,914,22638,-2112,-16074,-3168,19,-7,-22
1,915,22643,-2084,-16038,-3085,21,-5,-23
1,916,22648,-2103,-15982,-2993,19,-5,-20
1,917,22653,-2038,-15923,-3004,21,-13,-20
1,918,22658,-2037,-15890,-2954,20,-28,-24
1,919,22663,-2102,-15978,-2931,22,-50,-21
1,920,22668,-2186,-16127,-2952,18,-76,-19
1,921,22673,-2305,-16209,-3126,15,-92,-21
1,922,22678,-2215,-16194,-3291,16,-86,-17
1,923,22683,-2218,-16143,-3374,17,-60,-17
1,924,22688,-2283,-16122,-3404,17,-22,-18
1,925,22693,-2350,-16053,-3364,20,12,-22
1,926,22698,-2287,-16038,-3236,22,38,-23
1,927,22703,-2278,-15947,-3082,22,44,-21
1,928,22708,-2267,-15923,-2904,20,35,-23
1,929,22713,-2279,-15946,-2876,21,22,-21
1,930,22718,-2180,-15992,-2960,20,8,-24
1,931,22723,-2175,-16022,-2994,18,-7,-24
1,932,22728,-2239,-16012,-3025,17,-26,-25
1,933,22733,-2291,-15967,-3131,13,-30,-27
1,934,22738,-2251,-15998,-3262,15,-29,-25
1,935,22743,-2168,-15942,-3319,18,-10,-24
1,936,22748,-2101,-15903,-3302,16,12,-25
1,937,22753,-2120,-15852,-3194,17,21,-25
1,938,22758,-2135,-15792,-3093,18,15,-23
1,939,22763,-2159,-15796,-3066,18,9,-22
1,940,22768,-2139,-15787,-3036,18,1,-22
1,941,22773,-2135,-15810,-2991,17,-11,-23
1,942,22778,-2136,-15889,-2969,15,-29,-20
1,943,22783,-2150,-15962,-3015,13,-46,-21
1,944,22788,-2175,-16008,-3165,14,-56,-23
1,945,22793,-2264,-16018,-3238,14,-47,-22
1,946,22798,-2340,-16031,-3231,12,-35,-21
1,947,22803,-2261,-16003,-3206,15,-12,-21
1,948,22808,-2224,-16001,-3241,15,14,-23
1,949,22813,-2200,-15962,-3231,17,28,-24
1,950,22818,-2200,-15919,-3059,16,40,-26
1,951,22823,-2176,-15917,-2956,14,36,-22
1,952,22828,-2126,-15929,-2953,16,23,-24
1,953,22833,-2061,-15966,-2963,14,13,-24
1,954,22838,-2050,-16024,-3036,14,7,-23
1,955,22843,-2078,-16006,-3051,15,-2,-22
1,956,22848,-2150,-16058,-3043,11,-7,-24
1,957,22853,-2183,-16057,-3102,8,-13,-23
1,958,22858,-2199,-16063,-3123,12,-8,-21
1,959,22863,-2159,-16103,-3159,11,2,-23
1,960,22868,-2115,-16096,-3133,9,7,-20
1,961,22873,-2124,-16085,-3067,10,-3,-20
1,962,22878,-2120,-16055,-3028,11,-10,-19
1,963,22883,-2124,-15995,-3073,12,-18,-18
1,964,22888,-2093,-16054,-3131,11,-20,-17
1,965,22893,-2090,-16136,-3082,10,-19,-15
1,966,22898,-2110,-16144,-3000,8,-19,-17
1,967,22903,-2180,-16068,-3013,6,-30,-17
1,968,22908,-2173,-16027,-3132,6,-33,-16
1,969,22913,-2196,-16042,-3182,8,-23,-15
1,970,22918,-2219,-16022,-3182,7,-12,-17
1,971,22923,-2190,-16043,-3122,8,-5,-16
1,972,22928,-2159,-16075,-3147,7,1,-16
1,973,22933,-2182,-16085,-3173,9,2,-18
1,974,22938,-2174,-16064,-3091,8,2,-17
1,975,22943,-2195,-16017,-3099,7,4,-17
1,976,22948,-2157,-16008,-3124,8,9,-17
1,977,22953,-2132,-15997,-3113,4,11,-18
1,978,22958,-2090,-16000,-3074,6,11,-17
1,979,22963,-2099,-16001,-3052,6,6,-15
1,980,22968,-2049,-15949,-3083,6,-3,-14
1,981,22973,-1963,-15928,-3119,6,-7,-13
1,982,22978,-1923,-15910,-3019,5,-12,-11
1,983,22983,-1986,-15979,-3007,5,-20,-13
1,984,22988,-2114,-16015,-2942,4,-32,-10
1,985,22993,-2098,-16018,-3019,1,-43,-7
1,986,22998,-1956,-16000,-3131,1,-44,-8
1,987,23003,-1954,-16004,-3212,2,-35,-8
1,988,23008,-2028,-15973,-3155,2,-24,-10
1,989,23013,-2074,-15891,-3093,1,-25,-8
1,990,23018,-2147,-15852,-3120,-2,-35,-9
1,991,23023,-2145,-15818,-3164,-2,-41,-4
1,992,23028,-2116,-15864,-3067,1,-37,-3
1,993,23033,-2140,-16022,-3074,3,-29,-3
1,994,23038,-2174,-16129,-3111,2,-25,-5
1,995,23043,-2207,-16182,-3110,2,-27,-6
1,996,23048,-2212,-16108,-3117,0,-22,-7
1,997,23053,-2223,-16011,-3163,-1,-15,-4
1,998,23058,-2241,-16003,-3188,2,1,-3
1,999,23063,-2259,-16002,-3152,4,16,-8
