event_id,seq,ts_ms,ax,ay,az,gx,gy,gz
13,0,798167,-1919,-16116,-3071,2,107,-1
13,1,798172,-1743,-16071,-3142,0,71,2
13,2,798177,-1549,-16025,-3450,4,33,5
13,3,798182,-1425,-16033,-3728,1,14,3
13,4,798187,-1536,-15979,-3819,0,5,2
13,5,798192,-1793,-16018,-3754,-5,-11,-2
13,6,798197,-1946,-16010,-3734,-8,-17,-2
13,7,798202,-1896,-15984,-3935,-8,10,-3
13,8,798207,-1885,-15990,-3788,-8,60,-6
13,9,798212,-1893,-15993,-3228,-10,77,-8
13,10,798217,-1813,-16078,-2983,-5,30,-3
13,11,798222,-1638,-16076,-3740,-8,-53,-3
13,12,798227,-1661,-16102,-3963,-8,-20,-3
13,13,798232,-1670,-16077,-3949,-10,12,-7
13,14,798237,-1763,-16051,-3904,-14,25,-16
13,15,798242,-1880,-15968,-3835,-12,34,-18
13,16,798247,-1862,-15917,-3814,-14,50,-19
13,17,798252,-1929,-15910,-3488,-13,71,-24
13,18,798257,-1928,-15832,-3007,-16,63,-26
13,19,798262,-1840,-15811,-3020,-14,13,-22
13,20,798267,-1674,-15819,-3407,-12,-35,-21
13,21,798272,-1556,-15922,-3686,-14,-56,-21
13,22,798277,-1605,-15956,-3681,-17,-68,-23
13,23,798282,-1678,-15906,-3823,-18,-82,-27
13,24,798287,-1784,-15874,-4169,-17,-77,-30
13,25,798292,-1725,-15876,-4323,-17,-46,-28
13,26,798297,-1641,-15924,-4102,-18,-1,-31
13,27,798302,-1700,-15999,-3767,-15,24,-31
13,28,798307,-1678,-16056,-3595,-15,21,-34
13,29,798312,-1629,-16150,-3629,-11,13,-36
13,30,798317,-1654,-16220,-3577,-11,13,-37
13,31,798322,-1699,-16076,-3528,-9,2,-38
13,32,798327,-1785,-16050,-3653,-12,-21,-38
13,33,798332,-1771,-16070,-3827,-10,-39,-34
13,34,798337,-1764,-16015,-3812,-13,-42,-35
13,35,798342,-1849,-15990,-3700,-12,-36,-34
13,36,798347,-1834,-15969,-3744,-8,-27,-34
13,37,798352,-1782,-15961,-3714,-6,-24,-34
13,38,798357,-1737,-15892,-3581,-6,-23,-31
13,39,798362,-1764,-15764,-3454,-4,-34,-27
13,40,798367,-1801,-15782,-3643,-2,-46,-26
13,41,798372,-1730,-15776,-3974,1,-45,-22
13,42,798377,-1621,-15782,-3993,0,-30,-22
13,43,798382,-1643,-15753,-3804,-2,-24,-21
13,44,798387,-1666,-15739,-3887,-2,-20,-21
13,45,798392,-1818,-15712,-4099,2,-5,-23
13,46,798397,-1840,-15649,-4117,4,24,-19
13,47,798402,-1805,-15700,-3837,2,48,-18
13,48,798407,-1721,-15838,-3596,-1,50,-14
13,49,798412,-1713,-15910,-3414,1,42,-15
13,50,798417,-1799,-15956,-3384,2,44,-20
13,51,798422,-1776,-15898,-3477,4,50,-11
13,52,798427,-1712,-15849,-3382,3,42,-11
13,53,798432,-1690,-15849,-3050,1,7,-10
13,54,798437,-1757,-15834,-3102,3,-47,-5
13,55,798442,-1831,-15838,-3492,3,-76,-2
13,56,798447,-1816,-15822,-3671,-1,-55,-1
13,57,798452,-1895,-15875,-3629,1,-23,1
13,58,798457,-1837,-15937,-3461,0,-23,4
13,59,798462,-1763,-15938,-3572,-1,-48,3
13,60,798467,-1773,-15984,-3626,-1,-65,3
13,61,798472,-1924,-15971,-3734,-3,-61,2
13,62,798477,-2060,-15938,-3724,-2,-45,0
13,63,798482,-2145,-15937,-3687,-2,-36,2
13,64,798487,-2138,-15899,-3710,-3,-37,5
13,65,798492,-1973,-15903,-3738,0,-39,6
13,66,798497,-1720,-16021,-3850,2,-26,4
13,67,798502,-1724,-16138,-3736,-1,0,1
13,68,798507,-1936,-15996,-3443,-4,7,-4
13,69,798512,-1991,-15890,-3509,-4,7,-4
13,70,798517,-1916,-15903,-3631,-2,30,-5
13,71,798522,-1829,-15960,-3473,-4,66,-6
13,72,798527,-1726,-15965,-3291,-4,84,-8
13,73,798532,-1770,-15968,-3248,-1,74,-9
13,74,798537,-1779,-15904,-3344,-4,48,-11
13,75,798542,-1737,-15858,-3333,-8,22,-9
13,76,798547,-1623,-15867,-3317,-8,-7,-4
13,77,798552,-1624,-15951,-3355,-8,-38,-3
13,78,798557,-1733,-15951,-3715,-5,-65,-4
13,79,798562,-1794,-15836,-4034,-3,-64,-4
13,80,798567,-1935,-15817,-4034,-7,-37,-6
13,81,798572,-1847,-15942,-3808,-8,-18,-5
13,82,798577,-1568,-16022,-3599,-5,-13,-1
13,83,798582,-1503,-16065,-3431,-5,-8,-6
13,84,798587,-1894,-15817,-3541,2,2,-10
13,85,798592,-2000,-15723,-3534,0,-6,-11
13,86,798597,-2013,-15751,-3457,0,-27,-8
13,87,798602,-1784,-15729,-3485,-3,-47,-1
13,88,798607,-1631,-15752,-3696,0,-45,-3
13,89,798612,-1592,-15874,-3801,3,-24,-7
13,90,798617,-1570,-15927,-3804,3,6,-9
13,91,798622,-1632,-15926,-3785,4,35,-11
13,92,798627,-1733,-15902,-3836,1,54,-13
13,93,798632,-1783,-15849,-3826,-1,59,-13
13,94,798637,-1784,-15847,-3688,-2,48,-12
13,95,798642,-1786,-15894,-3420,-3,23,-12
13,96,798647,-1864,-15867,-3294,-1,-7,-12
13,97,798652,-1835,-15873,-3574,4,-26,-6
13,98,798657,-1778,-15827,-3744,4,-13,-8
13,99,798662,-1747,-15793,-3603,2,6,-5
13,100,798667,-1771,-15815,-3451,1,-7,-4
13,101,798672,-1610,-15882,-3569,2,-35,-4
13,102,798677,-1628,-15864,-3702,4,-40,-3
13,103,798682,-1746,-15827,-3872,4,-23,-5
13,104,798687,-1779,-15787,-3859,5,-1,-6
13,105,798692,-1700,-15778,-3828,2,-5,-2
13,106,798697,-1674,-15830,-3825,2,-29,0
13,107,798702,-1693,-15832,-3895,4,-37,-1
13,108,798707,-1739,-15855,-4109,6,-22,2
13,109,798712,-1798,-15892,-4034,5,7,1
13,110,798717,-1805,-15896,-3843,6,20,-3
13,111,798722,-1784,-15892,-3743,1,14,-1
13,112,798727,-1690,-15899,-3671,3,3,1
13,113,798732,-1692,-15867,-3652,4,4,0
13,114,798737,-1870,-15869,-3679,4,4,1
13,115,798742,-1937,-15827,-3816,7,-2,0
13,116,798747,-1935,-15784,-3947,5,-5,5
13,117,798752,-1876,-15794,-3870,2,1,6
13,118,798757,-1855,-15838,-3648,2,14,8
13,119,798762,-1733,-15866,-3563,4,22,7
13,120,798767,-1646,-15848,-3699,4,30,9
13,121,798772,-1650,-15777,-3729,2,31,6
13,122,798777,-1784,-15718,-3767,2,18,8
13,123,798782,-1956,-15672,-3869,-1,11,9
13,124,798787,-1869,-15722,-4003,-5,26,8
13,125,798792,-1714,-15788,-3880,-4,61,10
13,126,798797,-1773,-15778,-3582,-5,89,6
13,127,798802,-1834,-15732,-3382,-7,83,5
13,128,798807,-1819,-15746,-3504,-6,52,9
13,129,798812,-1750,-15790,-3625,-5,33,11
13,130,798817,-1775,-15766,-3581,-7,28,10
13,131,798822,-1845,-15735,-3624,-7,13,13
13,132,798827,-1771,-15686,-3814,-7,-7,13
13,133,798832,-1777,-15682,-3947,-9,-12,14
13,134,798837,-1870,-15689,-3848,-10,-4,14
13,135,798842,-2027,-15613,-3702,-12,8,14
13,136,798847,-1962,-15585,-3692,-7,12,18
13,137,798852,-1725,-15609,-3814,-6,11,19
13,138,798857,-1578,-15726,-3808,-8,12,20
13,139,798862,-1610,-15732,-3475,-13,-6,18
13,140,798867,-1877,-15725,-3310,-10,-29,15
13,141,798872,-1875,-15706,-3739,-10,-37,15
13,142,798877,-1725,-15756,-3865,-12,-9,16
13,143,798882,-1694,-15790,-3418,-13,16,17
13,144,798887,-1907,-15837,-3107,-14,-2,11
13,145,798892,-1982,-15876,-3424,-13,-44,12
13,146,798897,-1846,-15891,-3866,-12,-49,13
13,147,798902,-1738,-15925,-3730,-13,-25,14
13,148,798907,-1760,-16045,-3475,-12,-25,16
13,149,798912,-1835,-16137,-3531,-11,-66,13
13,150,798917,-1891,-16117,-3937,-12,-107,15
13,151,798922,-1948,-16080,-4231,-11,-94,14
13,152,798927,-2028,-16202,-4219,-6,-48,13
13,153,798932,-1980,-16237,-4133,-4,-7,13
13,154,798937,-1835,-16200,-4099,-3,15,12
13,155,798942,-1936,-16258,-4090,-5,30,11
13,156,798947,-2017,-16252,-4006,-5,53,11
13,157,798952,-2112,-16168,-3229,-1,92,9
13,158,798957,-1984,-16155,-3107,-1,70,9
13,159,798962,-1793,-16099,-3207,0,41,10
13,160,798967,-1713,-16068,-3228,3,19,10
13,161,798972,-1730,-16102,-3177,-3,-6,10
13,162,798977,-1772,-16075,-3136,-6,-35,6
13,163,798982,-1856,-15963,-3331,-1,-53,6
13,164,798987,-2025,-15806,-3639,0,-42,2
13,165,798992,-2138,-15842,-3732,0,-12,4
13,166,798997,-2013,-15951,-3786,-1,4,6
13,167,799002,-1839,-15896,-3665,-6,2,7
13,168,799007,-1823,-15955,-3485,-6,-16,8
13,169,799012,-1936,-15965,-3498,-7,-33,7
13,170,799017,-1969,-15934,-3698,-5,-39,6
13,171,799022,-1846,-15939,-3874,-4,-29,5
13,172,799027,-1749,-15891,-3899,-1,-14,6
13,173,799032,-1742,-15874,-3872,-3,-5,2
13,174,799037,-1935,-15883,-3922,-4,5,1
13,175,799042,-2097,-15899,-3950,-3,24,0
13,176,799047,-2041,-15909,-3791,-5,46,2
13,177,799052,-1807,-15960,-3537,-5,56,7
13,178,799057,-1667,-15985,-3459,-6,50,5
13,179,799062,-1729,-16035,-3534,-4,44,-2
13,180,799067,-1834,-15970,-3514,-3,44,-4
13,181,799072,-1946,-15881,-3366,-8,47,-4
13,182,799077,-1916,-15863,-3306,-10,37,-4
13,183,799082,-1778,-15775,-3400,-8,16,-3
13,184,799087,-1828,-15746,-3429,-8,-6,-5
13,185,799092,-1943,-15670,-3579,-6,-37,-5
13,186,799097,-1936,-15667,-3758,-4,-56,-5
13,187,799102,-2011,-15648,-3866,-8,-50,-5
13,188,799107,-2016,-15653,-3821,-5,-37,-6
13,189,799112,-2028,-15693,-3866,-5,-30,-1
13,190,799117,-1882,-15761,-3968,-9,-28,-2
13,191,799122,-1810,-15842,-3807,-7,-28,-7
13,192,799127,-1821,-15930,-3670,-6,-42,-5
13,193,799132,-1793,-15966,-3854,-6,-54,-7
13,194,799137,-1830,-15982,-4090,-4,-51,-7
13,195,799142,-1981,-15985,-3974,-4,-37,-6
13,196,799147,-2113,-16027,-3849,-5,-34,-7
13,197,799152,-2041,-16058,-3990,-7,-33,-4
13,198,799157,-1930,-15991,-4057,-5,-24,-1
13,199,799162,-1908,-15985,-3896,-6,-9,-3
13,200,799167,-1956,-15958,-3649,-7,-2,-3
13,201,799172,-1758,-15867,-3552,-6,-8,4
13,202,799177,-1681,-15895,-3689,-2,-10,3
13,203,799182,-1738,-15956,-3795,0,-3,4
13,204,799187,-1675,-15921,-3814,1,9,3
13,205,799192,-1760,-15916,-3783,0,10,-3
13,206,799197,-1853,-15916,-3827,-4,6,-6
13,207,799202,-1839,-15835,-3752,-2,7,-6
13,208,799207,-1910,-15827,-3824,-2,7,-6
13,209,799212,-1889,-15805,-3817,-2,7,-9
13,210,799217,-1848,-15756,-3751,-2,0,-7
13,211,799222,-1822,-15767,-3739,0,-19,-4
13,212,799227,-1815,-15806,-3785,1,-32,-6
13,213,799232,-1884,-15844,-3766,0,-28,-5
13,214,799237,-1874,-15822,-3666,0,-19,-5
13,215,799242,-1724,-15849,-3820,2,-15,-5
13,216,799247,-1581,-15826,-4011,1,-4,-5
13,217,799252,-1632,-15858,-3923,-1,-1,-6
13,218,799257,-1771,-15875,-3798,-3,-12,-6
13,219,799262,-1792,-15751,-3814,-1,-16,-6
13,220,799267,-1837,-15764,-3895,1,-11,-6
13,221,799272,-1862,-15836,-3850,3,-4,-5
13,222,799277,-1858,-15837,-3685,1,-7,-3
13,223,799282,-1807,-15827,-3668,1,-18,-2
13,224,799287,-1801,-15875,-3783,0,-23,-2
13,225,799292,-1859,-15968,-3836,3,-13,0
13,226,799297,-1891,-15956,-3738,3,0,-1
13,227,799302,-1887,-15937,-3726,5,5,-1
13,228,799307,-1845,-15887,-3809,3,2,-4
13,229,799312,-1786,-15897,-3978,4,1,-1
13,230,799317,-1865,-15846,-3788,4,8,-5
13,231,799322,-2000,-15843,-3444,3,-13,-4
13,232,799327,-1938,-15834,-3644,4,-13,-3
13,233,799332,-1797,-15861,-3637,3,5,-2
13,234,799337,-1762,-15902,-3399,-1,8,-5
13,235,799342,-1788,-15891,-3284,-2,-11,-3
13,236,799347,-1821,-15851,-3426,0,-35,-1
13,237,799352,-1745,-15860,-3519,3,-38,2
13,238,799357,-1712,-15893,-3548,2,-33,3
13,239,799362,-1690,-15902,-3672,0,-38,2
13,240,799367,-1635,-15913,-3787,-2,-45,0
13,241,799372,-1654,-15895,-3902,0,-49,2
13,242,799377,-1703,-15858,-3990,-2,-38,0
13,243,799382,-1735,-15845,-3971,-5,-15,-2
13,244,799387,-1795,-15847,-3780,-2,6,-4
13,245,799392,-1730,-15802,-3547,3,4,-4
13,246,799397,-1702,-15781,-3512,0,-10,-7
13,247,799402,-1847,-15807,-3486,-2,-16,-7
13,248,799407,-2011,-15808,-3426,-2,-27,-7
13,249,799412,-2081,-15808,-3539,-3,-34,-9
13,250,799417,-2010,-15719,-3629,-5,-43,-7
13,251,799422,-1949,-15769,-3618,-4,-54,-3
13,252,799427,-2021,-15837,-3611,-4,-65,-1
13,253,799432,-2043,-15842,-3725,-1,-68,-1
13,254,799437,-2017,-15878,-4019,0,-50,-1
13,255,799442,-2040,-15957,-4059,-3,-17,1
13,256,799447,-1978,-16005,-3994,-1,4,1
13,257,799452,-1872,-16074,-4002,-3,6,-2
13,258,799457,-1821,-16062,-4012,-4,7,1
13,259,799462,-1813,-15985,-3961,-6,8,-2
13,260,799467,-1867,-15933,-3853,-4,13,-6
13,261,799472,-1937,-15892,-3784,-2,14,-7
13,262,799477,-1914,-15855,-3699,-1,10,-9
13,263,799482,-1872,-15827,-3587,-1,7,-11
13,264,799487,-1847,-15827,-3606,1,5,-8
13,265,799492,-1859,-15849,-3645,2,7,-11
13,266,799497,-1931,-15877,-3640,0,-2,-9
13,267,799502,-1944,-15853,-3729,-1,-8,-9
13,268,799507,-2023,-15845,-3752,2,-9,-11
13,269,799512,-2026,-15841,-3798,0,-8,-6
13,270,799517,-1938,-15858,-3767,2,-3,-5
13,271,799522,-1752,-15839,-3845,0,0,-5
13,272,799527,-1779,-15892,-3955,0,-1,-3
13,273,799532,-1926,-15921,-4023,3,1,-4
13,274,799537,-1895,-15885,-3943,0,10,-7
13,275,799542,-1813,-15922,-3858,2,20,-6
13,276,799547,-1772,-15906,-3764,0,26,-5
13,277,799552,-1738,-15901,-3722,-1,19,-5
13,278,799557,-1732,-15885,-3692,-2,6,-9
13,279,799562,-1729,-15885,-3809,2,-7,-6
13,280,799567,-1802,-15905,-3796,4,-13,-6
13,281,799572,-1881,-15875,-3764,0,-10,-12
13,282,799577,-1942,-15853,-3746,1,-8,-12
13,283,799582,-1846,-15823,-3793,4,-3,-9
13,284,799587,-1824,-15851,-3781,5,11,-8
13,285,799592,-1844,-15844,-3711,4,26,-10
13,286,799597,-1970,-15815,-3686,5,34,-13
13,287,799602,-2026,-15849,-3735,4,38,-11
13,288,799607,-1894,-15801,-3636,3,41,-7
13,289,799612,-1811,-15837,-3620,4,34,-7
13,290,799617,-1729,-15892,-3708,4,23,-9
13,291,799622,-1686,-15876,-3720,2,22,-10
13,292,799627,-1746,-15917,-3707,1,24,-10
13,293,799632,-1760,-15865,-3709,4,31,-8
13,294,799637,-1842,-15903,-3767,5,42,-8
13,295,799642,-1813,-15899,-3760,1,41,-11
13,296,799647,-1723,-15930,-3664,1,28,-12
13,297,799652,-1682,-15884,-3557,-1,5,-9
13,298,799657,-1704,-15870,-3613,0,-15,-8
13,299,799662,-1743,-15846,-3686,0,-16,-10
13,300,799667,-1845,-15848,-3793,5,-11,-7
13,301,799672,-1827,-15844,-3799,3,-4,-7
13,302,799677,-1770,-15872,-3757,3,-3,-10
13,303,799682,-1790,-15844,-3724,1,-6,-9
13,304,799687,-1870,-15803,-3751,3,-5,-13
13,305,799692,-1933,-15829,-3687,2,-14,-14
13,306,799697,-1852,-15833,-3662,1,-26,-9
13,307,799702,-1795,-15828,-3653,1,-34,-5
13,308,799707,-1771,-15803,-3590,-1,-34,-5
13,309,799712,-1802,-15846,-3595,1,-29,-7
13,310,799717,-1814,-15955,-3639,4,-28,-5
13,311,799722,-1795,-15950,-3583,3,-35,-4
13,312,799727,-1803,-15943,-3616,0,-48,-4
13,313,799732,-1820,-15932,-3605,1,-55,-2
13,314,799737,-1877,-15924,-3472,-3,-54,-4
13,315,799742,-1864,-15895,-3554,1,-56,-4
13,316,799747,-1725,-15853,-3825,4,-51,0
13,317,799752,-1654,-15858,-3997,0,-37,0
13,318,799757,-1643,-15840,-3892,0,-32,-1
13,319,799762,-1775,-15804,-3798,-4,-35,-3
13,320,799767,-1801,-15850,-3873,-5,-32,-1
13,321,799772,-1704,-15869,-3881,0,-12,-1
13,322,799777,-1672,-15849,-3750,0,18,-5
13,323,799782,-1732,-15875,-3450,1,18,-5
13,324,799787,-1838,-15849,-3330,-2,-8,-5
13,325,799792,-1887,-15822,-3497,-3,-29,-4
13,326,799797,-1870,-15828,-3665,-1,-30,-2
13,327,799802,-1859,-15838,-3643,-1,-15,-5
13,328,799807,-1828,-15821,-3495,-4,-18,-2
13,329,799812,-1777,-15843,-3601,-4,-32,-2
13,330,799817,-1952,-15901,-3795,-5,-37,-3
13,331,799822,-2127,-15930,-3936,-3,-25,-5
13,332,799827,-2141,-15944,-3908,-6,-5,-3
13,333,799832,-2087,-15946,-3809,-5,6,0
13,334,799837,-2184,-15947,-3670,-5,2,1
13,335,799842,-2164,-15962,-3747,-3,-6,2
13,336,799847,-2024,-15964,-3890,-1,0,7
13,337,799852,-1831,-15959,-3902,-2,11,5
13,338,799857,-1899,-15976,-3831,-4,19,0
13,339,799862,-2012,-15940,-3773,-3,12,1
13,340,799867,-1957,-15869,-3875,-3,9,3
13,341,799872,-1860,-15845,-3882,-4,28,1
13,342,799877,-1901,-15910,-3819,-4,44,-1
13,343,799882,-1958,-15899,-3725,-5,40,-2
13,344,799887,-2077,-15829,-3597,-3,11,-1
13,345,799892,-2196,-15769,-3635,-1,-14,1
13,346,799897,-2163,-15735,-3685,-4,-16,5
13,347,799902,-2164,-15757,-3716,-4,-4,5
13,348,799907,-2255,-15853,-3818,1,-8,8
13,349,799912,-2440,-15823,-3747,-1,-22,6
13,350,799917,-2611,-15767,-3767,-1,-37,7
13,351,799922,-2547,-15848,-3952,0,-39,13
13,352,799927,-2652,-15884,-3913,1,-25,17
13,353,799932,-2854,-15775,-3762,2,-30,22
13,354,799937,-2813,-15719,-3883,3,-55,28
13,355,799942,-2804,-15756,-4104,6,-60,33
13,356,799947,-2944,-15760,-3934,11,-37,37
13,357,799952,-3097,-15700,-3657,13,-13,44
13,358,799957,-2993,-15693,-3890,20,-14,53
13,359,799962,-2795,-15823,-4157,21,-20,63
13,360,799967,-2734,-15849,-3883,17,-35,71
13,361,799972,-2792,-15769,-3528,16,-65,77
13,362,799977,-2959,-15642,-3787,22,-82,86
13,363,799982,-3138,-15661,-4156,28,-53,92
13,364,799987,-3238,-15633,-4016,29,12,100
13,365,799992,-3141,-15520,-3450,27,67,109
13,366,799997,-2980,-15548,-3090,31,97,117
13,367,800002,-2909,-15606,-3150,36,122,125
13,368,800007,-2964,-15591,-3236,37,138,130
13,369,800012,-3193,-15519,-3068,33,126,139
13,370,800017,-3433,-15480,-2858,31,83,147
13,371,800022,-3571,-15426,-2930,32,35,157
13,372,800027,-3633,-15409,-2948,31,20,171
13,373,800032,-3535,-15488,-2979,36,27,182
13,374,800037,-3319,-15622,-3025,44,18,191
13,375,800042,-3140,-15662,-3184,41,-24,196
13,376,800047,-3210,-15667,-3360,40,-98,202
13,377,800052,-3514,-15769,-4041,48,-174,221
13,378,800057,-3566,-15741,-4365,54,-121,226
13,379,800062,-3567,-15690,-4317,58,-27,227
13,380,800067,-3610,-15711,-4132,63,50,225
13,381,800072,-3556,-15737,-3882,71,78,229
13,382,800077,-3484,-15692,-3607,70,64,233
13,383,800082,-3603,-15701,-3250,74,40,236
13,384,800087,-3686,-15762,-3223,85,15,240
13,385,800092,-3767,-15742,-3583,90,12,243
13,386,800097,-3877,-15625,-3786,91,22,245
13,387,800102,-3899,-15625,-3676,89,21,250
13,388,800107,-3796,-15735,-3690,92,2,254
13,389,800112,-3744,-15795,-3954,97,-1,254
13,390,800117,-3806,-15725,-4014,98,39,250
13,391,800122,-3986,-15677,-3618,95,86,248
13,392,800127,-4246,-15803,-3107,99,115,254
13,393,800132,-4121,-15923,-2981,104,116,258
13,394,800137,-3831,-15901,-3165,102,129,259
13,395,800142,-3713,-15846,-2882,98,143,258
13,396,800147,-3844,-15848,-2480,95,112,257
13,397,800152,-3847,-15838,-2647,96,39,264
13,398,800157,-3910,-15832,-3009,94,-1,269
13,399,800162,-4279,-15844,-3188,91,22,268
13,400,800167,-4270,-15849,-3126,90,62,272
13,401,800172,-3870,-15915,-2869,86,80,281
13,402,800177,-3614,-16118,-2839,80,65,284
13,403,800182,-3597,-16155,-2937,79,30,290
13,404,800187,-3778,-15996,-2964,74,6,288
13,405,800192,-4001,-15917,-3068,73,-3,292
13,406,800197,-4060,-15940,-3249,68,8,301
13,407,800202,-3972,-16062,-3145,66,29,309
13,408,800207,-3858,-16149,-2896,63,34,315
13,409,800212,-3750,-16123,-2980,61,24,318
13,410,800217,-3735,-16026,-3125,63,10,323
13,411,800222,-3739,-15970,-3081,57,-2,329
13,412,800227,-3731,-16042,-2919,54,-37,336
13,413,800232,-3737,-16115,-2879,55,-81,345
13,414,800237,-3753,-16106,-3216,56,-98,349
13,415,800242,-3836,-16050,-3773,59,-66,354
13,416,800247,-3999,-15958,-3783,57,-17,356
13,417,800252,-4119,-15948,-3261,50,4,359
13,418,800257,-4029,-15945,-3129,49,-11,368
13,419,800262,-3927,-15915,-3482,53,-17,375
13,420,800267,-3961,-15803,-3475,58,10,377
13,421,800272,-4132,-15743,-3167,55,19,382
13,422,800277,-4037,-15772,-3260,57,-19,391
13,423,800282,-3968,-15855,-3629,57,-52,398
13,424,800287,-4134,-15889,-3750,58,-36,396
13,425,800292,-4341,-15770,-3678,61,15,396
13,426,800297,-4450,-15798,-3668,61,69,399
13,427,800302,-4220,-15814,-3228,61,98,406
13,428,800307,-3947,-15860,-2899,60,88,410
13,429,800312,-3983,-15911,-2787,64,43,414
13,430,800317,-4081,-15830,-2940,66,-9,422
13,431,800322,-3969,-15814,-3299,70,-48,429
13,432,800327,-4006,-15862,-3652,67,-53,434
13,433,800332,-4135,-15845,-3684,67,-37,435
13,434,800337,-4239,-15773,-3631,67,-18,438
13,435,800342,-4250,-15765,-3755,71,7,445
13,436,800347,-4227,-15799,-3770,71,38,446
13,437,800352,-4172,-15818,-3517,69,55,450
13,438,800357,-4159,-15891,-3233,71,39,454
13,439,800362,-4184,-15923,-3147,74,16,453
13,440,800367,-4172,-15867,-3224,74,10,453
13,441,800372,-4291,-15888,-3223,77,31,456
13,442,800377,-4326,-15882,-3202,75,44,459
13,443,800382,-4074,-15847,-3291,74,38,465
13,444,800387,-3970,-15912,-3418,72,32,464
13,445,800392,-4060,-15968,-3484,71,37,461
13,446,800397,-4256,-15912,-3468,72,52,463
13,447,800402,-4397,-15738,-3349,71,73,465
13,448,800407,-4284,-15723,-3131,73,78,468
13,449,800412,-4115,-15861,-3146,74,73,471
13,450,800417,-3875,-15926,-3236,75,69,476
13,451,800422,-3894,-15722,-3156,73,52,474
13,452,800427,-3906,-15728,-3347,71,29,477
13,453,800432,-3734,-15628,-3483,70,18,479
13,454,800437,-3644,-15679,-3525,70,22,478
13,455,800442,-3682,-15728,-3469,69,34,477
13,456,800447,-3784,-15660,-3387,70,41,471
13,457,800452,-3786,-15652,-3417,72,43,467
13,458,800457,-3698,-15659,-3425,71,51,465
13,459,800462,-3763,-15661,-3165,69,43,465
13,460,800467,-3869,-15598,-2853,66,-16,462
13,461,800472,-3817,-15553,-3107,66,-96,464
13,462,800477,-3808,-15626,-3652,68,-129,463
13,463,800482,-3675,-15714,-4109,72,-87,462
13,464,800487,-3601,-15683,-4096,70,-1,454
13,465,800492,-3831,-15656,-3582,68,74,443
13,466,800497,-3916,-15608,-3575,69,105,434
13,467,800502,-3635,-15521,-3698,69,122,428
13,468,800507,-3544,-15553,-3317,67,142,423
13,469,800512,-3567,-15583,-2872,67,124,416
13,470,800517,-3596,-15555,-2872,63,56,415
13,471,800522,-3484,-15569,-3223,66,-9,411
13,472,800527,-3429,-15687,-3571,66,-28,404
13,473,800532,-3421,-15714,-3672,63,-9,396
13,474,800537,-3470,-15718,-3528,63,11,385
13,475,800542,-3500,-15654,-3414,59,6,376
13,476,800547,-3496,-15637,-3514,59,-8,366
13,477,800552,-3607,-15683,-3745,61,8,355
13,478,800557,-3454,-15602,-3658,58,43,345
13,479,800562,-3353,-15557,-3377,54,56,337
13,480,800567,-3371,-15559,-3126,52,33,331
13,481,800572,-3296,-15516,-3289,52,-6,322
13,482,800577,-3216,-15445,-3570,48,-6,312
13,483,800582,-3182,-15452,-3649,47,26,300
13,484,800587,-3253,-15426,-3414,45,53,287
13,485,800592,-3287,-15373,-3431,44,58,281
13,486,800597,-3071,-15337,-3579,37,48,276
13,487,800602,-2910,-15399,-3339,34,44,265
13,488,800607,-2995,-15427,-3032,34,33,251
13,489,800612,-3103,-15367,-3195,37,6,245
13,490,800617,-3043,-15321,-3568,35,-2,239
13,491,800622,-2821,-15456,-3496,26,6,228
13,492,800627,-2754,-15447,-3016,20,6,218
13,493,800632,-2851,-15442,-2952,22,-16,208
13,494,800637,-2848,-15504,-3303,21,-30,196
13,495,800642,-2757,-15493,-3487,17,-14,184
13,496,800647,-2680,-15430,-3408,10,7,171
13,497,800652,-2677,-15357,-3295,8,7,161
13,498,800657,-2716,-15321,-3222,4,-6,150
13,499,800662,-2813,-15371,-3227,2,-13,140
13,500,800667,-2653,-15342,-3350,1,-3,132
13,501,800672,-2506,-15286,-3284,-3,10,121
13,502,800677,-2508,-15326,-3228,-7,-7,106
13,503,800682,-2521,-15370,-3433,-10,-48,98
13,504,800687,-2579,-15339,-3669,-10,-70,89
13,505,800692,-2693,-15347,-3773,-13,-53,74
13,506,800697,-2611,-15314,-3806,-13,-12,64
13,507,800702,-2521,-15410,-3717,-15,17,52
13,508,800707,-2389,-15523,-3516,-22,19,36
13,509,800712,-2305,-15470,-3296,-19,2,22
13,510,800717,-2388,-15493,-3340,-16,-16,6
13,511,800722,-2517,-15441,-3507,-19,-17,-9
13,512,800727,-2519,-15385,-3555,-20,-11,-22
13,513,800732,-2542,-15329,-3381,-21,-28,-35
13,514,800737,-2547,-15389,-3382,-22,-69,-48
13,515,800742,-2388,-15392,-3654,-25,-97,-60
13,516,800747,-2322,-15409,-3880,-22,-81,-73
13,517,800752,-2401,-15436,-3946,-21,-41,-92
13,518,800757,-2338,-15454,-3840,-23,-6,-104
13,519,800762,-2341,-15518,-3507,-30,6,-123
13,520,800767,-2366,-15588,-3256,-30,-12,-138
13,521,800772,-2191,-15599,-3305,-31,-33,-152
13,522,800777,-1992,-15577,-3311,-29,-46,-164
13,523,800782,-1996,-15597,-3331,-31,-57,-183
13,524,800787,-2428,-15633,-3813,-31,-114,-216
13,525,800792,-2419,-15617,-3998,-34,-109,-228
13,526,800797,-2276,-15650,-4023,-36,-75,-247
13,527,800802,-2193,-15673,-3721,-35,-45,-267
13,528,800807,-2204,-15693,-3570,-31,-54,-283
13,529,800812,-2195,-15657,-3789,-32,-82,-299
13,530,800817,-2346,-15598,-3963,-33,-94,-317
13,531,800822,-2472,-15547,-3735,-35,-86,-334
13,532,800827,-2419,-15534,-3726,-35,-75,-349
13,533,800832,-2251,-15573,-3969,-33,-57,-364
13,534,800837,-2197,-15595,-3876,-39,-33,-385
13,535,800842,-2297,-15609,-3386,-43,-36,-401
13,536,800847,-2127,-15748,-3354,-43,-71,-413
13,537,800852,-1926,-15892,-3718,-43,-89,-430
13,538,800857,-2016,-15975,-3776,-42,-71,-447
13,539,800862,-2086,-16045,-3628,-47,-51,-462
13,540,800867,-2009,-16127,-3457,-50,-56,-478
13,541,800872,-1961,-16104,-3443,-53,-84,-493
13,542,800877,-1830,-16078,-3627,-50,-112,-506
13,543,800882,-1872,-16046,-3863,-50,-123,-521
13,544,800887,-1941,-16029,-4028,-53,-120,-536
13,545,800892,-2001,-15923,-4183,-55,-113,-552
13,546,800897,-2016,-15891,-4222,-59,-97,-563
13,547,800902,-1841,-15898,-4201,-64,-67,-575
13,548,800907,-1593,-15954,-3947,-65,-36,-587
13,549,800912,-1550,-15962,-3654,-67,-22,-597
13,550,800917,-1529,-15979,-3561,-67,-33,-610
13,551,800922,-1634,-16034,-3631,-67,-53,-622
13,552,800927,-1747,-16030,-3622,-74,-67,-632
13,553,800932,-1717,-16098,-3476,-78,-81,-641
13,554,800937,-1630,-16163,-3365,-81,-93,-650
13,555,800942,-1622,-16300,-3289,-87,-110,-663
13,556,800947,-1590,-16343,-3264,-91,-133,-670
13,557,800952,-1502,-16519,-3540,-93,-139,-677
13,558,800957,-1588,-16668,-3669,-99,-128,-689
13,559,800962,-1735,-16639,-3588,-108,-118,-706
13,560,800967,-1832,-16601,-3491,-112,-116,-718
13,561,800972,-1858,-16691,-3730,-114,-120,-729
13,562,800977,-1873,-16728,-3931,-119,-117,-739
13,563,800982,-2028,-16672,-3867,-124,-117,-749
13,564,800987,-2071,-16640,-3846,-130,-134,-759
13,565,800992,-1886,-16674,-4054,-131,-150,-766
13,566,800997,-1600,-16727,-4275,-133,-138,-775
13,567,801002,-1529,-16789,-4193,-142,-111,-789
13,568,801007,-1647,-16865,-4094,-144,-94,-803
13,569,801012,-1760,-16829,-4164,-148,-88,-817
13,570,801017,-1677,-16934,-4517,-148,-64,-827
13,571,801022,-1701,-17139,-4681,-153,-12,-839
13,572,801027,-1687,-17209,-4332,-163,34,-855
13,573,801032,-1738,-17222,-3794,-165,30,-866
13,574,801037,-1791,-17230,-3510,-167,-17,-877
13,575,801042,-1657,-17206,-3461,-168,-54,-881
13,576,801047,-1555,-17335,-3391,-165,-59,-888
13,577,801052,-1431,-17458,-3288,-167,-51,-895
13,578,801057,-1341,-17428,-3047,-174,-70,-903
13,579,801062,-1337,-17378,-3004,-181,-118,-910
13,580,801067,-1356,-17365,-3111,-189,-163,-920
13,581,801072,-1550,-17312,-3314,-195,-178,-931
13,582,801077,-1591,-17267,-3517,-198,-172,-936
13,583,801082,-1683,-17205,-3757,-203,-171,-942
13,584,801087,-1652,-17179,-4021,-209,-185,-949
13,585,801092,-1591,-17234,-4269,-214,-190,-958
13,586,801097,-1851,-17213,-4246,-216,-167,-972
13,587,801102,-2271,-17125,-4270,-215,-123,-985
13,588,801107,-2519,-17016,-4417,-215,-74,-996
13,589,801112,-2372,-16781,-4447,-213,-19,-1004
13,590,801117,-2114,-16707,-4184,-209,30,-1009
13,591,801122,-2357,-16890,-4068,-204,64,-1019
13,592,801127,-2642,-16980,-4079,-201,104,-1029
13,593,801132,-2524,-16922,-4081,-199,162,-1036
13,594,801137,-2310,-16919,-3769,-198,205,-1037
13,595,801142,-2365,-16955,-3031,-198,183,-1042
13,596,801147,-1789,-9976,-4957,-209,89,-1031
13,597,801152,-3385,-10156,2034,-171,-96,-621
13,598,801157,7489,-15300,-18986,63,-503,-240
13,599,801162,-1569,-19377,-560,-207,1525,-933
13,600,801167,171,-17145,7748,-184,450,-825
13,601,801172,465,-17989,-2482,-77,-1031,-662
13,602,801177,-5556,-17011,-10945,-69,-845,-790
13,603,801182,-4675,-16780,-8878,-121,206,-757
13,604,801187,-4659,-15218,-1002,-181,930,-831
13,605,801192,-3237,-16455,-639,-121,562,-779
13,606,801197,-1453,-16754,-3746,-104,25,-755
13,607,801202,-1356,-16752,-5110,-108,30,-781
13,608,801207,-2975,-16799,-2593,-107,322,-797
13,609,801212,-3141,-16385,-1479,-100,331,-793
13,610,801217,-2516,-16220,-3760,-87,97,-778
13,611,801222,-2570,-16311,-5070,-94,34,-779
13,612,801227,-2849,-16219,-4078,-115,128,-778
13,613,801232,-2890,-16130,-3082,-104,207,-777
13,614,801237,-2546,-16021,-3067,-93,221,-777
13,615,801242,-2238,-16016,-3574,-86,195,-771
13,616,801247,-2288,-16011,-3127,-89,170,-767
13,617,801252,-2630,-15849,-2717,-92,91,-759
13,618,801257,-2703,-15830,-3190,-85,21,-748
13,619,801262,-2422,-15802,-3436,-87,37,-741
13,620,801267,-2199,-15819,-3105,-88,74,-736
13,621,801272,-2333,-15811,-2689,-85,55,-727
13,622,801277,-2388,-15858,-3195,-82,3,-717
13,623,801282,-2171,-15894,-3796,-83,23,-708
13,624,801287,-1975,-15895,-3305,-90,99,-697
13,625,801292,-1888,-15897,-2621,-92,109,-683
13,626,801297,-1826,-15970,-2525,-92,37,-669
13,627,801302,-1875,-15918,-2866,-92,-26,-655
13,628,801307,-1809,-15851,-3019,-91,-39,-639
13,629,801312,-1824,-15864,-2943,-90,-43,-625
13,630,801317,-1734,-15847,-3099,-88,-67,-606
13,631,801322,-1610,-15876,-3223,-91,-76,-591
13,632,801327,-1606,-15903,-3539,-90,-74,-576
13,633,801332,-1579,-15886,-3634,-90,-57,-561
13,634,801337,-1535,-15800,-3424,-92,-47,-549
13,635,801342,-1551,-15780,-3618,-86,-63,-528
13,636,801347,-1395,-15784,-3962,-82,-77,-511
13,637,801352,-1287,-15831,-4160,-80,-69,-501
13,638,801357,-1350,-15896,-4283,-74,-47,-487
13,639,801362,-1294,-15950,-4300,-71,-19,-474
13,640,801367,-1261,-15874,-4042,-74,6,-461
13,641,801372,-1168,-15802,-3605,-72,11,-450
13,642,801377,-939,-15777,-3465,-69,2,-429
13,643,801382,-770,-15759,-3313,-63,-11,-414
13,644,801387,-687,-15761,-3205,-59,-26,-396
13,645,801392,-611,-15735,-3293,-56,-42,-377
13,646,801397,-701,-15852,-3425,-51,-47,-366
13,647,801402,-740,-15858,-3522,-51,-48,-353
13,648,801407,-623,-15809,-3497,-52,-43,-340
13,649,801412,-588,-15862,-3244,-48,-45,-324
13,650,801417,-491,-15889,-3195,-43,-70,-313
13,651,801422,-424,-15840,-3514,-40,-95,-298
13,652,801427,-481,-15733,-3963,-38,-99,-287
13,653,801432,-315,-15564,-4216,-31,-103,-274
13,654,801437,-220,-15621,-4294,-29,-110,-261
13,655,801442,-74,-15790,-4206,-29,-104,-252
13,656,801447,27,-15705,-4218,-21,-89,-249
13,657,801452,-149,-15579,-4259,-13,-45,-246
13,658,801457,-400,-15587,-4328,-7,19,-243
13,659,801462,-372,-15622,-4442,0,82,-234
13,660,801467,-243,-15577,-4186,0,134,-229
13,661,801472,-44,-15613,-3835,3,137,-222
13,662,801477,228,-15510,-3412,5,92,-213
13,663,801482,210,-15466,-3282,9,24,-207
13,664,801487,11,-15412,-3420,17,-38,-206
13,665,801492,35,-15390,-3860,22,-60,-194
13,666,801497,-48,-15347,-3746,24,-34,-189
13,667,801502,43,-15312,-3636,24,-22,-186
13,668,801507,408,-15395,-3622,29,-24,-178
13,669,801512,735,-15497,-3679,34,-28,-175
13,670,801517,564,-15445,-3626,35,-65,-170
13,671,801522,450,-15478,-3925,38,-94,-164
13,672,801527,641,-15547,-4148,37,-86,-160
13,673,801532,731,-15577,-4078,38,-43,-156
13,674,801537,740,-15698,-3872,41,-3,-156
13,675,801542,777,-15764,-3826,45,20,-152
13,676,801547,807,-15810,-4090,48,35,-151
13,677,801552,910,-15872,-4174,51,49,-146
13,678,801557,1025,-15840,-4059,51,63,-146
13,679,801562,998,-15873,-4001,52,58,-145
13,680,801567,912,-15948,-4069,59,34,-142
13,681,801572,938,-15872,-4250,60,21,-138
13,682,801577,834,-15747,-4060,58,26,-135
13,683,801582,771,-15684,-3791,61,13,-130
13,684,801587,933,-15640,-3763,61,-20,-122
13,685,801592,1181,-15632,-3921,62,-38,-118
13,686,801597,1322,-15662,-4024,63,-31,-115
13,687,801602,1376,-15657,-3878,64,-18,-110
13,688,801607,1363,-15591,-3757,63,-17,-110
13,689,801612,1256,-15617,-3693,60,-16,-109
13,690,801617,1238,-15596,-3671,62,-16,-107
13,691,801622,1285,-15592,-3694,62,1,-102
13,692,801627,1447,-15594,-3674,57,17,-99
13,693,801632,1478,-15636,-3629,58,20,-96
13,694,801637,1458,-15717,-3723,55,5,-92
13,695,801642,1527,-15705,-3689,49,-3,-86
13,696,801647,1599,-15728,-3724,47,2,-79
13,697,801652,1658,-15785,-3630,48,11,-76
13,698,801657,1853,-15752,-3340,42,11,-70
13,699,801662,1793,-15749,-3258,42,-12,-69
13,700,801667,1673,-15766,-3520,41,-43,-64
13,701,801672,1651,-15700,-3829,38,-61,-56
13,702,801677,1644,-15712,-3988,34,-58,-51
13,703,801682,1672,-15647,-3949,29,-51,-44
13,704,801687,1773,-15609,-3966,25,-52,-41
13,705,801692,1846,-15702,-4176,27,-53,-38
13,706,801697,1803,-15730,-4311,26,-41,-34
13,707,801702,1649,-15710,-4323,25,-16,-33
13,708,801707,1504,-15782,-4369,25,1,-30
13,709,801712,1592,-15790,-4342,22,21,-29
13,710,801717,1642,-15750,-4186,19,41,-26
13,711,801722,1645,-15780,-3961,20,40,-25
13,712,801727,1673,-15777,-3913,22,22,-20
13,713,801732,1650,-15760,-4132,26,13,-17
13,714,801737,1573,-15766,-4283,27,28,-17
13,715,801742,1606,-15752,-4105,22,51,-15
13,716,801747,1605,-15828,-3670,18,59,-11
13,717,801752,1707,-15875,-3486,19,43,-8
13,718,801757,1791,-15861,-3573,21,31,-7
13,719,801762,1873,-15782,-3603,19,32,-8
13,720,801767,1923,-15675,-3603,20,16,-6
13,721,801772,1875,-15547,-3632,17,-21,-5
13,722,801777,1762,-15415,-3943,15,-56,-5
13,723,801782,1530,-15352,-4292,17,-66,-2
13,724,801787,1523,-15302,-4527,18,-47,6
13,725,801792,1635,-15329,-4529,16,-16,5
13,726,801797,1702,-15482,-4320,17,-7,4
13,727,801802,1881,-15671,-4186,20,-19,8
13,728,801807,2141,-15682,-4259,23,-25,5
13,729,801812,2048,-15524,-4323,29,-12,-2
13,730,801817,1659,-15433,-4349,27,-5,-8
13,731,801822,1381,-15262,-4440,28,-18,-7
13,732,801827,1386,-15240,-4558,28,-27,2
13,733,801832,1717,-15350,-4493,29,-18,3
13,734,801837,2121,-15567,-4352,33,-1,7
13,735,801842,2217,-15789,-4411,36,14,4
13,736,801847,1951,-15872,-4529,36,26,-5
13,737,801852,1625,-15811,-4589,34,38,-8
13,738,801857,1438,-15703,-4380,30,60,-6
13,739,801862,1412,-15724,-4040,30,83,-6
13,740,801867,1762,-15868,-3850,30,88,2
13,741,801872,2028,-16021,-3676,33,75,2
13,742,801877,2035,-16271,-3522,34,42,1
13,743,801882,2135,-16417,-3581,31,6,4
13,744,801887,2306,-16207,-4157,26,8,-4
13,745,801892,1941,-15967,-4135,24,21,-4
13,746,801897,1649,-15711,-4225,23,2,-4
13,747,801902,1595,-15569,-4338,19,-20,2
13,748,801907,1761,-15531,-4392,22,-11,9
13,749,801912,1803,-15557,-4108,19,8,9
13,750,801917,1944,-15616,-3972,22,10,11
13,751,801922,1991,-15654,-4082,23,-6,11
13,752,801927,1953,-15588,-4095,17,-20,10
13,753,801932,2026,-15579,-4120,14,-25,12
13,754,801937,2082,-15646,-4103,13,-22,10
13,755,801942,2055,-15691,-4025,9,-11,12
13,756,801947,1918,-15602,-3942,9,1,13
13,757,801952,1818,-15578,-4024,7,11,16
13,758,801957,1853,-15689,-3973,5,18,19
13,759,801962,2055,-15891,-3709,4,15,21
13,760,801967,2336,-15966,-3620,5,0,21
13,761,801972,2213,-15919,-3806,3,-24,16
13,762,801977,1869,-15813,-4020,-1,-49,13
13,763,801982,1781,-15721,-4226,-2,-74,17
13,764,801987,1867,-15748,-4420,-3,-71,21
13,765,801992,1976,-15736,-4461,-6,-51,21
13,766,801997,1998,-15775,-4338,-6,-16,19
13,767,802002,1923,-15784,-4215,-6,12,20
13,768,802007,1827,-15786,-4034,-4,26,19
13,769,802012,1792,-15876,-3739,-5,28,20
13,770,802017,1904,-16060,-3448,-8,20,22
13,771,802022,2261,-16048,-3304,-11,-4,23
13,772,802027,2560,-15957,-3467,-10,-24,24
13,773,802032,2318,-15895,-3709,-4,-38,21
13,774,802037,1869,-15767,-3972,-8,-49,17
13,775,802042,1618,-15637,-4186,-10,-53,21
13,776,802047,1660,-15665,-4261,-13,-39,27
13,777,802052,1915,-15785,-4060,-15,-13,29
13,778,802057,2179,-15867,-3837,-18,0,24
13,779,802062,2248,-15842,-3823,-16,-5,22
13,780,802067,2133,-15717,-4084,-12,-17,24
13,781,802072,1755,-15628,-4083,-13,-6,24
13,782,802077,1654,-15653,-4030,-12,13,26
13,783,802082,1917,-15706,-4046,-12,35,28
13,784,802087,2178,-15797,-3880,-9,43,29
13,785,802092,2213,-15838,-3743,-10,23,27
13,786,802097,2214,-15826,-3761,-10,-6,26
13,787,802102,2058,-15802,-4097,-6,-26,25
13,788,802107,1831,-15776,-4238,-6,-17,25
13,789,802112,1783,-15763,-4363,-2,-3,26
13,790,802117,1788,-15791,-4251,-3,17,29
13,791,802122,1843,-15913,-4060,-6,35,29
13,792,802127,2073,-16005,-3854,-3,42,28
13,793,802132,2216,-15989,-3687,1,35,27
13,794,802137,2145,-15923,-3529,3,7,29
13,795,802142,2057,-15825,-3643,4,-35,27
13,796,802147,2117,-15799,-4034,6,-61,30
13,797,802152,2130,-15810,-4141,7,-53,33
13,798,802157,2203,-15803,-4018,4,-31,32
13,799,802162,2191,-15854,-3861,5,-18,29
13,800,802167,2198,-15873,-3921,8,-9,28
13,801,802172,2160,-15794,-3976,10,-1,29
13,802,802177,2076,-15772,-3990,11,-1,29
13,803,802182,2091,-15845,-3944,14,-18,30
13,804,802187,2248,-15920,-4015,15,-36,30
13,805,802192,2289,-15981,-4012,15,-37,30
13,806,802197,2249,-15982,-3968,17,-27,24
13,807,802202,2167,-15895,-4021,18,-10,22
13,808,802207,2153,-15909,-4068,18,-7,21
13,809,802212,2205,-15885,-4019,17,-15,18
13,810,802217,2135,-15855,-3919,18,-14,15
13,811,802222,2097,-15830,-3948,22,-13,13
13,812,802227,2080,-15876,-4025,22,-3,12
13,813,802232,2129,-15851,-3954,22,11,10
13,814,802237,2233,-15906,-3891,22,10,5
13,815,802242,2213,-15921,-3851,20,11,1
13,816,802247,2135,-15860,-3767,19,11,0
13,817,802252,2243,-15823,-3887,22,3,1
13,818,802257,2362,-15829,-3691,20,-8,-4
13,819,802262,2456,-15873,-3552,19,-35,-5
13,820,802267,2572,-15926,-3799,17,-59,-9
13,821,802272,2562,-15935,-3958,14,-59,-12
13,822,802277,2469,-15965,-3981,16,-46,-13
13,823,802282,2328,-15955,-4019,13,-31,-18
13,824,802287,2213,-15935,-4062,13,-17,-24
13,825,802292,2148,-15897,-4035,9,-4,-27
13,826,802297,2195,-15874,-3854,8,11,-29
13,827,802302,2253,-15927,-3685,4,7,-34
13,828,802307,2253,-15982,-3650,5,-10,-40
13,829,802312,2184,-15969,-3863,8,-21,-40
13,830,802317,2153,-15927,-4068,5,-18,-45
13,831,802322,2111,-15896,-4070,4,-6,-48
13,832,802327,2103,-15833,-3835,1,2,-49
13,833,802332,2075,-15776,-3698,-2,3,-54
13,834,802337,2147,-15763,-3781,-4,4,-57
13,835,802342,2272,-15789,-3761,-3,15,-56
13,836,802347,2346,-15835,-3628,-3,16,-59
13,837,802352,2312,-15729,-3565,-7,-1,-68
13,838,802357,2220,-15690,-3666,-8,-25,-65
13,839,802362,2209,-15753,-3808,-12,-40,-64
13,840,802367,2272,-15767,-3920,-9,-38,-68
13,841,802372,2272,-15820,-3919,-8,-42,-70
13,842,802377,2202,-15849,-3991,-10,-56,-71
13,843,802382,2199,-15843,-4026,-13,-67,-72
13,844,802387,2165,-15878,-4041,-15,-65,-72
13,845,802392,2137,-15911,-3980,-11,-54,-71
13,846,802397,2192,-15909,-3940,-9,-51,-73
13,847,802402,2240,-15887,-3896,-9,-58,-76
13,848,802407,2153,-15918,-4050,-9,-70,-75
13,849,802412,2049,-15870,-4242,-7,-72,-77
13,850,802417,1995,-15757,-4177,-9,-58,-75
13,851,802422,2026,-15774,-4128,-9,-51,-74
13,852,802427,2148,-15915,-4071,-7,-50,-71
13,853,802432,2253,-15913,-4106,-7,-44,-71
13,854,802437,2174,-15847,-4093,-5,-34,-70
13,855,802442,2010,-15846,-3984,-7,-23,-69
13,856,802447,1941,-15776,-4047,-2,-16,-67
13,857,802452,2059,-15741,-4012,-2,-10,-66
13,858,802457,2081,-15755,-3896,-6,-20,-64
13,859,802462,2030,-15813,-3812,-4,-44,-58
13,860,802467,2018,-15829,-3892,-4,-69,-58
13,861,802472,1976,-15801,-4093,-2,-70,-54
13,862,802477,1888,-15779,-4110,1,-43,-51
13,863,802482,1911,-15713,-3958,-2,-23,-47
13,864,802487,2006,-15635,-3930,0,-19,-44
13,865,802492,2046,-15742,-3973,2,-24,-39
13,866,802497,2018,-15773,-3897,1,-27,-37
13,867,802502,1964,-15726,-3754,-2,-34,-35
13,868,802507,1909,-15750,-3837,-1,-45,-34
13,869,802512,1930,-15683,-3968,1,-53,-31
13,870,802517,1905,-15650,-4217,4,-42,-27
13,871,802522,1895,-15649,-4282,2,-30,-26
13,872,802527,1944,-15679,-4251,5,-22,-23
13,873,802532,1961,-15721,-4336,4,-11,-23
13,874,802537,1889,-15672,-4332,7,0,-18
13,875,802542,1827,-15747,-4138,5,12,-19
13,876,802547,1805,-15809,-4017,8,21,-16
13,877,802552,1904,-15803,-3908,9,12,-13
13,878,802557,1937,-15791,-3886,9,-7,-13
13,879,802562,1862,-15811,-3884,10,-23,-13
13,880,802567,1798,-15780,-3988,10,-41,-8
13,881,802572,1788,-15783,-4020,10,-50,-5
13,882,802577,1848,-15817,-4069,12,-50,-2
13,883,802582,1957,-15844,-4107,12,-49,1
13,884,802587,2047,-15976,-4208,11,-39,1
13,885,802592,2128,-16010,-4172,11,-29,1
13,886,802597,2067,-15896,-3996,9,-21,0
13,887,802602,1968,-15948,-3819,12,-27,0
13,888,802607,1903,-15842,-3753,12,-35,2
13,889,802612,1873,-15690,-3742,11,-40,3
13,890,802617,1885,-15746,-3740,8,-54,10
13,891,802622,1966,-15805,-3871,7,-73,12
13,892,802627,2061,-15897,-3848,4,-81,15
13,893,802632,2040,-15875,-3834,3,-71,12
13,894,802637,1854,-15837,-4042,3,-39,2
13,895,802642,1735,-15752,-4066,2,-12,4
13,896,802647,1752,-15678,-3883,-3,5,4
13,897,802652,1829,-15680,-3873,-1,-4,9
13,898,802657,1862,-15705,-3826,-4,-7,10
13,899,802662,1909,-15773,-3823,-5,1,11
13,900,802667,1963,-15962,-3876,-3,10,12
13,901,802672,2146,-16141,-3838,-1,16,9
13,902,802677,2193,-16111,-3795,-4,13,8
13,903,802682,1998,-16035,-3894,-5,4,2
13,904,802687,1799,-15928,-3873,-8,-1,2
13,905,802692,1813,-15851,-3799,-8,-10,7
13,906,802697,1980,-15838,-3799,-10,-24,10
13,907,802702,2176,-15889,-3805,-10,-33,12
13,908,802707,2287,-15889,-3686,-7,-41,14
13,909,802712,2263,-15978,-3630,-10,-47,16
13,910,802717,2175,-15872,-3710,-10,-42,15
13,911,802722,2132,-15731,-3742,-10,-35,11
13,912,802727,2005,-15741,-3673,-11,-37,11
13,913,802732,1910,-15677,-3617,-13,-52,13
13,914,802737,1932,-15644,-3883,-12,-68,15
13,915,802742,2019,-15689,-4026,-9,-71,18
13,916,802747,2069,-15696,-4064,-11,-56,18
13,917,802752,2188,-15759,-4033,-12,-43,20
13,918,802757,2157,-15829,-4029,-10,-30,15
13,919,802762,1981,-15826,-4086,-8,-9,13
13,920,802767,1862,-15841,-4015,-7,11,11
13,921,802772,1886,-15851,-3867,-8,23,12
13,922,802777,1887,-15892,-3729,-9,14,14
13,923,802782,1976,-15893,-3578,-5,-11,18
13,924,802787,2011,-15920,-3618,-2,-36,17
13,925,802792,2073,-15981,-3749,-1,-48,18
13,926,802797,2110,-15924,-3818,2,-55,19
13,927,802802,2121,-15890,-3961,5,-57,19
13,928,802807,2160,-15892,-4116,3,-50,15
13,929,802812,2165,-15877,-4080,3,-47,14
13,930,802817,2150,-15815,-4003,5,-41,14
13,931,802822,2011,-15772,-4071,8,-38,13
13,932,802827,2074,-15729,-4127,8,-37,14
13,933,802832,2167,-15728,-4006,14,-35,15
13,934,802837,2214,-15777,-3991,16,-38,18
13,935,802842,2115,-15852,-4087,17,-36,16
13,936,802847,2029,-15838,-4143,20,-32,15
13,937,802852,2011,-15813,-4117,21,-17,17
13,938,802857,2029,-15863,-4045,22,-8,19
13,939,802862,2161,-15890,-3982,22,-8,18
13,940,802867,2137,-15886,-3891,25,-6,15
13,941,802872,1972,-15842,-3914,30,-16,18
13,942,802877,2054,-15777,-4023,29,-17,19
13,943,802882,2161,-15781,-4006,29,-17,17
13,944,802887,2231,-15755,-3968,29,-13,16
13,945,802892,2178,-15803,-3903,33,-13,16
13,946,802897,2192,-15746,-3913,35,-19,16
13,947,802902,2239,-15741,-4056,37,-17,13
13,948,802907,2189,-15713,-4015,35,-13,13
13,949,802912,2160,-15651,-3953,35,-22,15
13,950,802917,2173,-15575,-3948,34,-45,18
13,951,802922,2132,-15563,-3946,30,-52,16
13,952,802927,2125,-15578,-3998,31,-39,17
13,953,802932,2196,-15590,-3996,36,-11,19
13,954,802937,2182,-15582,-3966,36,14,19
13,955,802942,2133,-15578,-3904,32,23,11
13,956,802947,2139,-15617,-3771,27,22,12
13,957,802952,2287,-15681,-3644,24,21,13
13,958,802957,2160,-15725,-3462,22,17,11
13,959,802962,2003,-15672,-3501,23,-1,10
13,960,802967,1971,-15611,-3652,21,-16,10
13,961,802972,2010,-15641,-3965,18,-26,12
13,962,802977,2025,-15753,-4036,15,-25,15
13,963,802982,2063,-15882,-3989,11,-7,8
13,964,802987,2137,-15960,-4021,9,-2,10
13,965,802992,2102,-15934,-3888,5,7,2
13,966,802997,1917,-15883,-3821,2,-4,0
13,967,803002,1734,-15824,-4079,1,-27,1
13,968,803007,1657,-15827,-4348,2,-39,1
13,969,803012,1647,-15905,-4393,2,-30,3
13,970,803017,1966,-16024,-4271,-1,-14,2
13,971,803022,2139,-16114,-4160,-3,-1,0
13,972,803027,2145,-16166,-4158,-2,11,-7
13,973,803032,2016,-16146,-4141,-4,22,-8
13,974,803037,1834,-16008,-3997,-8,38,-10
13,975,803042,1758,-15928,-3725,-8,47,-9
13,976,803047,1808,-15936,-3501,-12,36,-8
13,977,803052,1918,-15977,-3538,-16,15,-6
13,978,803057,2124,-16168,-3746,-15,2,-3
13,979,803062,2187,-16165,-3811,-16,-2,-2
13,980,803067,2026,-16089,-3792,-19,-13,-5
13,981,803072,1892,-15995,-4036,-20,-29,-6
13,982,803077,1800,-15911,-4227,-21,-23,-7
13,983,803082,1733,-15925,-4082,-23,-4,-5
13,984,803087,1786,-15955,-3793,-24,3,-3
13,985,803092,1929,-15974,-3750,-23,-2,-2
13,986,803097,2041,-15945,-3718,-26,-14,-2
13,987,803102,2010,-15897,-3655,-28,-36,1
13,988,803107,1927,-15919,-3820,-26,-68,0
13,989,803112,1815,-15855,-4141,-25,-97,1
13,990,803117,1840,-15789,-4293,-26,-97,3
13,991,803122,1970,-15794,-4378,-27,-80,5
13,992,803127,2001,-15822,-4408,-24,-42,5
13,993,803132,1994,-15801,-4305,-24,-2,-1
13,994,803137,1880,-15695,-4213,-20,16,-2
13,995,803142,1817,-15637,-4059,-20,19,0
13,996,803147,1869,-15579,-4088,-20,5,2
13,997,803152,1924,-15630,-4185,-18,-13,6
13,998,803157,1890,-15668,-4153,-16,-30,6
13,999,803162,1826,-15711,-4146,-13,-40,8
