event_id,seq,ts_ms,ax,ay,az,gx,gy,gz
2,0,294016,-1216,-16340,1464,4,-3,-5
2,1,294021,-1257,-16344,1520,4,-4,-4
2,2,294026,-1264,-16322,1498,2,-7,-3
2,3,294031,-1296,-16318,1475,1,-13,-2
2,4,294036,-1287,-16290,1496,1,-15,-3
2,5,294041,-1292,-16299,1466,3,-18,-2
2,6,294046,-1315,-16343,1459,3,-17,-3
2,7,294051,-1335,-16298,1449,3,-14,-2
2,8,294056,-1312,-16317,1429,3,-17,-1
2,9,294061,-1357,-16351,1432,4,-20,-2
2,10,294066,-1301,-16352,1423,4,-17,-4
2,11,294071,-1306,-16341,1419,3,-14,-2
2,12,294076,-1310,-16361,1437,4,-13,-2
2,13,294081,-1287,-16357,1466,4,-9,-2
2,14,294086,-1265,-16346,1426,1,-3,-5
2,15,294091,-1285,-16347,1424,3,-3,-5
2,16,294096,-1263,-16365,1441,4,4,-4
2,17,294101,-1224,-16357,1445,6,3,-4
2,18,294106,-1236,-16369,1477,4,4,-2
2,19,294111,-1266,-16363,1456,3,0,-1
2,20,294116,-1258,-16355,1504,2,-2,-2
2,21,294121,-1247,-16358,1456,1,-4,-1
2,22,294126,-1241,-16352,1464,3,-8,-2
2,23,294131,-1281,-16368,1480,5,-12,-3
2,24,294136,-1310,-16345,1480,2,-15,-1
2,25,294141,-1293,-16345,1521,4,-21,0
2,26,294146,-1212,-16335,1458,3,-17,-1
2,27,294151,-1259,-16349,1423,2,-11,-1
2,28,294156,-1243,-16372,1462,3,-6,-1
2,29,294161,-1255,-16337,1487,4,-7,-3
2,30,294166,-1291,-16320,1492,3,-4,-1
2,31,294171,-1281,-16314,1470,1,-7,-1
2,32,294176,-1236,-16335,1503,2,-8,-1
2,33,294181,-1250,-16373,1481,4,-10,-1
2,34,294186,-1257,-16334,1447,5,-13,1
2,35,294191,-1278,-16335,1424,4,-19,0
2,36,294196,-1234,-16280,1460,5,-23,-2
2,37,294201,-1225,-16310,1476,3,-25,-1
2,38,294206,-1266,-16313,1462,2,-22,-1
2,39,294211,-1252,-16328,1465,4,-21,0
2,40,294216,-1309,-16307,1509,3,-20,1
2,41,294221,-1310,-16293,1490,1,-25,-1
2,42,294226,-1341,-16378,1437,2,-34,1
2,43,294231,-1315,-16384,1453,1,-36,3
2,44,294236,-1279,-16373,1466,5,-38,1
2,45,294241,-1360,-16349,1446,7,-34,-3
2,46,294246,-1387,-16402,1474,5,-27,-2
2,47,294251,-1369,-16427,1480,3,-22,-4
2,48,294256,-1340,-16415,1427,3,-20,-5
2,49,294261,-1287,-16458,1472,6,-13,-3
2,50,294266,-1335,-16443,1517,6,-2,-4
2,51,294271,-1301,-16437,1510,4,4,-8
2,52,294276,-1257,-16447,1526,5,11,-7
2,53,294281,-1261,-16424,1528,7,16,-5
2,54,294286,-1237,-16448,1552,6,17,-8
2,55,294291,-1258,-16460,1550,6,16,-8
2,56,294296,-1258,-16441,1558,8,14,-6
2,57,294301,-1213,-16456,1581,5,9,-8
2,58,294306,-1193,-16449,1553,5,3,-4
2,59,294311,-1233,-16386,1576,5,-1,-7
2,60,294316,-1209,-16360,1550,6,-3,-7
2,61,294321,-1229,-16424,1531,3,-4,-6
2,62,294326,-1168,-16406,1575,8,-11,-5
2,63,294331,-1196,-16390,1582,6,-15,-4
2,64,294336,-1241,-16409,1583,6,-19,-3
2,65,294341,-1245,-16389,1501,5,-23,-6
2,66,294346,-1244,-16392,1521,4,-26,-8
2,67,294351,-1284,-16404,1506,8,-35,-3
2,68,294356,-1327,-16393,1516,9,-36,-3
2,69,294361,-1345,-16424,1540,7,-30,-4
2,70,294366,-1339,-16452,1485,7,-21,-4
2,71,294371,-1255,-16437,1513,4,-13,-5
2,72,294376,-1262,-16432,1501,5,-2,-6
2,73,294381,-1299,-16470,1507,6,8,-4
2,74,294386,-1318,-16443,1508,6,10,-5
2,75,294391,-1327,-16427,1520,6,11,-9
2,76,294396,-1311,-16421,1552,7,9,-7
2,77,294401,-1308,-16415,1554,7,10,-8
2,78,294406,-1303,-16410,1579,6,11,-8
2,79,294411,-1326,-16452,1576,8,7,-5
2,80,294416,-1294,-16488,1525,9,4,-5
2,81,294421,-1276,-16400,1561,9,-1,-5
2,82,294426,-1285,-16402,1546,9,-5,-6
2,83,294431,-1259,-16417,1522,7,-7,-7
2,84,294436,-1234,-16382,1512,2,-5,-8
2,85,294441,-1221,-16387,1475,4,-3,-7
2,86,294446,-1161,-16376,1508,6,-2,-5
2,87,294451,-1180,-16362,1583,4,-5,-6
2,88,294456,-1233,-16322,1580,4,-5,-6
2,89,294461,-1212,-16341,1566,5,-2,-5
2,90,294466,-1202,-16413,1504,4,0,-4
2,91,294471,-1252,-16442,1514,4,-2,-4
2,92,294476,-1239,-16418,1504,3,-3,-3
2,93,294481,-1278,-16393,1537,5,-11,-1
2,94,294486,-1225,-16347,1563,3,-15,-2
2,95,294491,-1217,-16351,1502,1,-14,-2
2,96,294496,-1241,-16393,1537,4,-11,-4
2,97,294501,-1253,-16375,1560,3,-11,-3
2,98,294506,-1311,-16414,1514,3,-14,-2
2,99,294511,-1307,-16405,1469,1,-16,-3
2,100,294516,-1373,-16377,1529,2,-20,-1
2,101,294521,-1356,-16366,1518,4,-20,-2
2,102,294526,-1348,-16386,1467,3,-20,-3
2,103,294531,-1341,-16412,1502,1,-20,-5
2,104,294536,-1285,-16364,1464,3,-21,-4
2,105,294541,-1303,-16381,1474,2,-18,-4
2,106,294546,-1307,-16373,1499,-1,-17,-3
2,107,294551,-1305,-16359,1494,2,-11,-4
2,108,294556,-1300,-16394,1487,2,-3,-9
2,109,294561,-1289,-16419,1463,2,1,-7
2,110,294566,-1252,-16430,1464,0,4,-6
2,111,294571,-1300,-16389,1513,2,6,-6
2,112,294576,-1294,-16373,1544,-1,4,-10
2,113,294581,-1261,-16360,1591,-1,3,-10
2,114,294586,-1306,-16411,1569,-3,4,-8
2,115,294591,-1272,-16394,1574,1,1,-9
2,116,294596,-1222,-16367,1549,-1,-2,-7
2,117,294601,-1246,-16406,1569,-1,-7,-7
2,118,294606,-1285,-16421,1545,0,-11,-6
2,119,294611,-1231,-16395,1534,-3,-9,-6
2,120,294616,-1205,-16428,1531,-3,-7,-9
2,121,294621,-1267,-16418,1563,-5,-9,-8
2,122,294626,-1334,-16421,1549,-5,-12,-8
2,123,294631,-1281,-16406,1511,-4,-16,-7
2,124,294636,-1284,-16372,1562,-5,-19,-8
2,125,294641,-1282,-16415,1532,-2,-19,-10
2,126,294646,-1279,-16391,1508,-2,-18,-12
2,127,294651,-1336,-16407,1441,-4,-16,-7
2,128,294656,-1320,-16431,1479,-6,-11,-4
2,129,294661,-1249,-16416,1479,-6,-11,-6
2,130,294666,-1245,-16378,1426,-6,-8,-10
2,131,294671,-1204,-16336,1462,-5,-2,-8
2,132,294676,-1281,-16366,1511,-5,1,-7
2,133,294681,-1299,-16380,1521,-6,2,-10
2,134,294686,-1340,-16366,1540,-7,-2,-8
2,135,294691,-1296,-16387,1588,-6,-5,-10
2,136,294696,-1287,-16429,1503,-6,-8,-9
2,137,294701,-1257,-16417,1522,-6,-8,-9
2,138,294706,-1214,-16391,1497,-5,-9,-9
2,139,294711,-1235,-16343,1475,-6,-5,-11
2,140,294716,-1186,-16321,1435,-6,-4,-7
2,141,294721,-1181,-16330,1440,-9,-6,-10
2,142,294726,-1245,-16318,1480,-7,-4,-11
2,143,294731,-1248,-16311,1493,-4,-11,-5
2,144,294736,-1221,-16301,1542,-6,-17,-7
2,145,294741,-1254,-16354,1561,-8,-23,-8
2,146,294746,-1282,-16352,1592,-5,-26,-5
2,147,294751,-1288,-16406,1503,-6,-27,-6
2,148,294756,-1289,-16432,1486,-7,-27,-6
2,149,294761,-1289,-16456,1460,-5,-21,-7
2,150,294766,-1287,-16468,1425,-5,-19,-9
2,151,294771,-1232,-16438,1452,-5,-13,-9
2,152,294776,-1237,-16366,1501,-6,-4,-10
2,153,294781,-1255,-16374,1471,-5,2,-7
2,154,294786,-1236,-16367,1469,-8,4,-7
2,155,294791,-1275,-16380,1553,-8,-1,-7
2,156,294796,-1332,-16409,1564,-6,-7,-8
2,157,294801,-1405,-16388,1591,-7,-12,-7
2,158,294806,-1398,-16450,1595,-7,-15,-8
2,159,294811,-1320,-16456,1539,-6,-14,-8
2,160,294816,-1307,-16481,1487,-5,-15,-8
2,161,294821,-1303,-16465,1503,-4,-7,-10
2,162,294826,-1258,-16429,1528,-7,2,-9
2,163,294831,-1251,-16404,1502,-6,9,-8
2,164,294836,-1214,-16430,1458,-4,10,-6
2,165,294841,-1221,-16408,1524,-6,10,-6
2,166,294846,-1223,-16369,1602,-6,6,-7
2,167,294851,-1251,-16377,1584,-7,1,-6
2,168,294856,-1241,-16378,1615,-6,-6,-7
2,169,294861,-1251,-16399,1592,-6,-11,-6
2,170,294866,-1253,-16393,1578,-5,-17,-2
2,171,294871,-1235,-16403,1512,-6,-25,-4
2,172,294876,-1258,-16400,1458,-5,-30,-5
2,173,294881,-1264,-16358,1459,-5,-29,-2
2,174,294886,-1209,-16306,1467,-7,-26,-2
2,175,294891,-1222,-16310,1450,-3,-19,-2
2,176,294896,-1231,-16324,1451,-6,-13,-3
2,177,294901,-1292,-16340,1437,-5,-10,-2
2,178,294906,-1294,-16289,1428,0,-7,-3
2,179,294911,-1319,-16292,1452,-5,-5,-5
2,180,294916,-1330,-16318,1477,-7,-8,-4
2,181,294921,-1283,-16285,1443,-1,-8,-3
2,182,294926,-1217,-16332,1422,-1,-4,-1
2,183,294931,-1244,-16319,1418,-2,5,-4
2,184,294936,-1304,-16314,1453,-3,8,-4
2,185,294941,-1303,-16304,1434,-3,4,-3
2,186,294946,-1267,-16348,1484,-1,5,-5
2,187,294951,-1236,-16350,1486,-2,6,-4
2,188,294956,-1279,-16366,1517,2,5,-5
2,189,294961,-1294,-16351,1538,0,2,-1
2,190,294966,-1272,-16341,1504,0,2,-3
2,191,294971,-1237,-16347,1501,2,3,-2
2,192,294976,-1200,-16363,1494,3,2,-1
2,193,294981,-1228,-16348,1535,6,4,-1
2,194,294986,-1251,-16379,1531,2,2,-2
2,195,294991,-1238,-16379,1521,3,0,1
2,196,294996,-1198,-16385,1541,3,-1,-2
2,197,295001,-1213,-16377,1540,5,-8,-1
2,198,295006,-1239,-16393,1532,5,-12,1
2,199,295011,-1257,-16390,1592,3,-14,1
2,200,295016,-1259,-16403,1623,5,-18,2
2,201,295021,-1274,-16374,1578,5,-23,1
2,202,295026,-1216,-16389,1539,2,-21,0
2,203,295031,-1272,-16430,1514,3,-22,-2
2,204,295036,-1285,-16453,1507,6,-21,0
2,205,295041,-1270,-16416,1516,8,-20,0
2,206,295046,-1273,-16415,1493,6,-20,1
2,207,295051,-1289,-16393,1527,5,-17,-1
2,208,295056,-1261,-16364,1503,8,-19,1
2,209,295061,-1296,-16323,1536,7,-19,1
2,210,295066,-1338,-16343,1553,9,-20,-2
2,211,295071,-1317,-16386,1517,7,-20,1
2,212,295076,-1305,-16425,1512,7,-17,0
2,213,295081,-1321,-16453,1478,10,-14,0
2,214,295086,-1336,-16456,1504,10,-13,1
2,215,295091,-1288,-16444,1509,11,-9,2
2,216,295096,-1245,-16428,1485,9,1,-3
2,217,295101,-1184,-16398,1501,10,5,-2
2,218,295106,-1219,-16359,1497,10,10,-3
2,219,295111,-1230,-16325,1432,12,10,2
2,220,295116,-1226,-16267,1474,15,7,2
2,221,295121,-1189,-16260,1501,14,1,1
2,222,295126,-1206,-16269,1516,12,-8,0
2,223,295131,-1197,-16267,1571,13,-11,0
2,224,295136,-1290,-16280,1526,11,-18,1
2,225,295141,-1322,-16323,1550,10,-25,2
2,226,295146,-1311,-16342,1551,13,-31,2
2,227,295151,-1301,-16356,1539,16,-33,2
2,228,295156,-1274,-16394,1501,15,-29,1
2,229,295161,-1294,-16434,1489,14,-23,2
2,230,295166,-1307,-16411,1504,13,-13,-1
2,231,295171,-1307,-16436,1441,17,-9,2
2,232,295176,-1289,-16430,1465,17,-5,1
2,233,295181,-1319,-16407,1547,14,1,-3
2,234,295186,-1334,-16418,1604,13,1,-2
2,235,295191,-1306,-16440,1594,14,-2,-1
2,236,295196,-1304,-16443,1579,15,-3,-1
2,237,295201,-1275,-16458,1571,15,0,-1
2,238,295206,-1240,-16492,1575,15,1,-3
2,239,295211,-1243,-16487,1521,15,1,-2
2,240,295216,-1184,-16442,1508,11,3,1
2,241,295221,-1196,-16437,1535,12,6,0
2,242,295226,-1177,-16467,1609,15,11,-1
2,243,295231,-1224,-16457,1640,14,9,0
2,244,295236,-1215,-16462,1577,13,5,-1
2,245,295241,-1211,-16437,1576,10,-2,1
2,246,295246,-1196,-16403,1596,13,-8,2
2,247,295251,-1225,-16405,1575,12,-13,1
2,248,295256,-1203,-16414,1559,11,-16,1
2,249,295261,-1221,-16364,1611,11,-16,0
2,250,295266,-1226,-16350,1557,10,-17,4
2,251,295271,-1207,-16383,1530,11,-10,3
2,252,295276,-1219,-16408,1554,9,-10,2
2,253,295281,-1263,-16366,1543,8,-13,5
2,254,295286,-1238,-16358,1583,9,-13,3
2,255,295291,-1299,-16410,1580,11,-19,3
2,256,295296,-1292,-16408,1548,9,-23,5
2,257,295301,-1298,-16405,1542,6,-28,2
2,258,295306,-1315,-16382,1513,6,-32,2
2,259,295311,-1325,-16377,1514,6,-32,5
2,260,295316,-1357,-16408,1496,5,-31,3
2,261,295321,-1312,-16425,1430,3,-26,-1
2,262,295326,-1236,-16415,1459,5,-18,-1
2,263,295331,-1282,-16390,1446,3,-6,1
2,264,295336,-1293,-16374,1506,5,-3,-3
2,265,295341,-1291,-16376,1539,5,3,-4
2,266,295346,-1288,-16307,1510,5,5,-2
2,267,295351,-1303,-16365,1522,6,5,-5
2,268,295356,-1297,-16385,1537,3,6,-4
2,269,295361,-1223,-16326,1500,1,3,-4
2,270,295366,-1230,-16345,1504,4,2,-3
2,271,295371,-1266,-16334,1569,-1,-2,-3
2,272,295376,-1250,-16341,1544,1,-6,-4
2,273,295381,-1231,-16362,1560,0,-12,-5
2,274,295386,-1268,-16409,1522,0,-11,-5
2,275,295391,-1286,-16414,1550,2,-15,-7
2,276,295396,-1243,-16387,1514,-1,-18,-5
2,277,295401,-1271,-16424,1502,-1,-20,-4
2,278,295406,-1255,-16421,1529,2,-18,-5
2,279,295411,-1228,-16430,1562,-3,-13,-5
2,280,295416,-1290,-16446,1544,-3,-6,-5
2,281,295421,-1249,-16435,1511,-2,1,-7
2,282,295426,-1288,-16433,1515,-3,2,-6
2,283,295431,-1338,-16411,1579,-5,-1,-10
2,284,295436,-1301,-16400,1624,-8,-7,-10
2,285,295441,-1307,-16399,1613,-8,-9,-8
2,286,295446,-1274,-16441,1548,-8,-10,-6
2,287,295451,-1271,-16410,1553,-5,-9,-6
2,288,295456,-1282,-16433,1514,-5,-6,-8
2,289,295461,-1251,-16436,1529,-6,-5,-8
2,290,295466,-1253,-16437,1565,-9,-7,-9
2,291,295471,-1256,-16395,1562,-8,-6,-7
2,292,295476,-1277,-16398,1548,-8,-4,-6
2,293,295481,-1260,-16436,1535,-8,-2,-7
2,294,295486,-1244,-16413,1515,-10,-1,-11
2,295,295491,-1285,-16354,1500,-8,-1,-12
2,296,295496,-1261,-16344,1526,-9,-1,-8
2,297,295501,-1285,-16333,1540,-7,-2,-8
2,298,295506,-1253,-16350,1539,-8,1,-11
2,299,295511,-1276,-16350,1503,-9,1,-13
2,300,295516,-1267,-16357,1537,-11,1,-12
2,301,295521,-1257,-16374,1496,-11,-5,-10
2,302,295526,-1224,-16381,1519,-8,-8,-10
2,303,295531,-1203,-16398,1525,-10,-8,-10
2,304,295536,-1228,-16364,1578,-15,-7,-9
2,305,295541,-1268,-16327,1538,-11,-6,-8
2,306,295546,-1316,-16347,1546,-9,-12,-10
2,307,295551,-1309,-16385,1485,-10,-17,-8
2,308,295556,-1312,-16383,1526,-9,-23,-9
2,309,295561,-1311,-16404,1476,-11,-28,-9
2,310,295566,-1295,-16348,1490,-11,-28,-9
2,311,295571,-1277,-16335,1457,-8,-25,-10
2,312,295576,-1271,-16299,1390,-9,-19,-9
2,313,295581,-1297,-16316,1453,-13,-14,-10
2,314,295586,-1286,-16312,1491,-11,-13,-11
2,315,295591,-1265,-16291,1491,-13,-16,-11
2,316,295596,-1261,-16309,1545,-11,-15,-10
2,317,295601,-1284,-16329,1543,-11,-13,-9
2,318,295606,-1294,-16371,1546,-10,-12,-9
2,319,295611,-1302,-16371,1509,-12,-11,-8
2,320,295616,-1280,-16351,1518,-12,-10,-9
2,321,295621,-1286,-16378,1471,-12,-7,-12
2,322,295626,-1238,-16381,1460,-10,0,-12
2,323,295631,-1217,-16352,1512,-10,5,-12
2,324,295636,-1255,-16384,1517,-12,11,-13
2,325,295641,-1244,-16415,1508,-9,9,-9
2,326,295646,-1241,-16390,1526,-8,9,-12
2,327,295651,-1221,-16427,1534,-8,4,-9
2,328,295656,-1256,-16415,1578,-9,0,-9
2,329,295661,-1217,-16424,1570,-9,-4,-11
2,330,295666,-1187,-16412,1556,-9,-8,-7
2,331,295671,-1224,-16410,1521,-9,-13,-7
2,332,295676,-1213,-16384,1507,-9,-18,-6
2,333,295681,-1243,-16360,1545,-8,-21,-6
2,334,295686,-1265,-16370,1546,-7,-26,-6
2,335,295691,-1270,-16364,1537,-7,-33,-7
2,336,295696,-1276,-16362,1536,-9,-32,-6
2,337,295701,-1284,-16395,1520,-7,-34,-4
2,338,295706,-1309,-16388,1514,-8,-32,-5
2,339,295711,-1279,-16378,1500,-7,-29,-7
2,340,295716,-1307,-16415,1527,-7,-27,-4
2,341,295721,-1310,-16466,1501,-4,-20,-6
2,342,295726,-1325,-16411,1478,-5,-12,-6
2,343,295731,-1299,-16379,1503,-5,-7,-7
2,344,295736,-1292,-16415,1506,-5,1,-8
2,345,295741,-1263,-16388,1540,-4,5,-9
2,346,295746,-1260,-16399,1580,-6,7,-6
2,347,295751,-1229,-16431,1572,-5,6,-8
2,348,295756,-1260,-16419,1524,-4,7,-9
2,349,295761,-1268,-16419,1503,-4,4,-6
2,350,295766,-1261,-16391,1522,-3,-3,-7
2,351,295771,-1234,-16396,1579,-5,-5,-8
2,352,295776,-1244,-16376,1537,-3,-2,-7
2,353,295781,-1243,-16360,1540,-1,0,-7
2,354,295786,-1234,-16369,1518,-4,0,-7
2,355,295791,-1194,-16304,1490,-3,2,-7
2,356,295796,-1194,-16326,1547,-3,1,-7
2,357,295801,-1252,-16330,1567,-2,-3,-8
2,358,295806,-1271,-16344,1563,0,-7,-4
2,359,295811,-1268,-16358,1514,0,-14,-1
2,360,295816,-1264,-16345,1480,1,-20,-3
2,361,295821,-1303,-16348,1470,0,-26,-3
2,362,295826,-1234,-16355,1506,1,-26,-1
2,363,295831,-1290,-16355,1446,0,-26,-3
2,364,295836,-1299,-16332,1452,1,-21,-3
2,365,295841,-1291,-16333,1484,2,-19,-2
2,366,295846,-1246,-16327,1486,2,-17,-3
2,367,295851,-1274,-16357,1479,1,-10,-1
2,368,295856,-1269,-16321,1516,2,-7,-4
2,369,295861,-1264,-16392,1522,2,-3,-6
2,370,295866,-1254,-16396,1527,5,-3,-1
2,371,295871,-1278,-16397,1457,6,-5,1
2,372,295876,-1274,-16388,1511,4,-7,-1
2,373,295881,-1281,-16376,1530,6,-9,0
2,374,295886,-1303,-16366,1493,6,-13,0
2,375,295891,-1283,-16368,1539,3,-11,-1
2,376,295896,-1289,-16343,1495,4,-12,1
2,377,295901,-1275,-16381,1498,5,-13,0
2,378,295906,-1317,-16390,1501,7,-12,1
2,379,295911,-1327,-16354,1506,9,-13,0
2,380,295916,-1333,-16307,1457,6,-13,-1
2,381,295921,-1303,-16346,1523,8,-9,0
2,382,295926,-1265,-16350,1476,11,-5,3
2,383,295931,-1237,-16360,1394,11,8,6
2,384,295936,-1191,-16361,1389,11,17,5
2,385,295941,-1127,-16350,1455,10,28,6
2,386,295946,-1181,-16381,1513,12,34,7
2,387,295951,-1178,-16351,1602,14,37,10
2,388,295956,-1249,-16319,1621,10,33,11
2,389,295961,-1246,-16328,1609,10,22,12
2,390,295966,-1225,-16303,1628,10,5,14
2,391,295971,-1202,-16298,1645,13,-12,18
2,392,295976,-1281,-16249,1679,13,-32,18
2,393,295981,-1247,-16280,1645,14,-47,22
2,394,295986,-1266,-16295,1595,13,-54,23
2,395,295991,-1352,-16317,1593,13,-63,28
2,396,295996,-1438,-16365,1634,14,-75,27
2,397,296001,-1434,-16429,1616,14,-79,30
2,398,296006,-1428,-16459,1538,17,-75,31
2,399,296011,-1404,-16451,1499,17,-69,32
2,400,296016,-1411,-16476,1503,16,-58,34
2,401,296021,-1481,-16476,1542,17,-47,34
2,402,296026,-1399,-16499,1456,18,-34,38
2,403,296031,-1420,-16440,1527,17,-19,38
2,404,296036,-1464,-16428,1609,19,-5,39
2,405,296041,-1523,-16436,1569,21,7,43
2,406,296046,-1476,-16454,1545,20,13,46
2,407,296051,-1355,-16447,1574,20,18,49
2,408,296056,-1435,-16407,1601,22,22,51
2,409,296061,-1579,-16397,1640,22,22,54
2,410,296066,-1608,-16305,1703,21,16,58
2,411,296071,-1541,-16350,1696,22,10,61
2,412,296076,-1575,-16359,1707,22,3,67
2,413,296081,-1561,-16331,1754,23,0,70
2,414,296086,-1715,-16320,1738,23,-5,73
2,415,296091,-1835,-16304,1606,22,-24,78
2,416,296096,-1785,-16339,1587,23,-38,86
2,417,296101,-1684,-16296,1520,26,-42,92
2,418,296106,-1737,-16370,1499,26,-28,92
2,419,296111,-1862,-16405,1436,27,-2,96
2,420,296116,-1911,-16412,1385,31,24,102
2,421,296121,-2017,-16398,1447,31,52,105
2,422,296126,-1964,-16355,1482,29,76,109
2,423,296131,-1926,-16367,1569,31,100,115
2,424,296136,-1836,-16353,1614,31,127,118
2,425,296141,-1729,-16455,1731,34,155,120
2,426,296146,-2019,-16377,1682,36,165,130
2,427,296151,-2107,-16286,2091,32,156,140
2,428,296156,-2223,-16204,1806,32,129,146
2,429,296161,-1901,-16454,1835,33,109,162
2,430,296166,-2007,-16309,1954,37,93,175
2,431,296171,-2331,-16370,2057,43,72,192
2,432,296176,-2254,-16384,1766,42,51,200
2,433,296181,-1963,-16488,1470,35,49,209
2,434,296186,-2100,-16284,2136,37,55,220
2,435,296191,-2352,-16118,2179,35,30,226
2,436,296196,-2708,-16261,2061,41,0,240
2,437,296201,-2354,-16382,1362,50,-37,256
2,438,296206,-2233,-16410,1571,43,-6,262
2,439,296211,-2309,-16296,1764,40,6,269
2,440,296216,-2485,-16306,1897,43,7,277
2,441,296221,-2635,-16307,1636,44,14,288
2,442,296226,-2459,-16380,1574,47,28,302
2,443,296231,-2521,-16140,1786,46,44,313
2,444,296236,-2564,-16085,2062,42,41,320
2,445,296241,-2945,-16083,2070,44,29,330
2,446,296246,-2781,-16201,1810,52,-1,345
2,447,296251,-2719,-16277,1536,54,-15,360
2,448,296256,-2611,-16176,1554,50,0,365
2,449,296261,-2748,-16224,1707,47,17,375
2,450,296266,-2853,-16194,1698,45,32,376
2,451,296271,-2862,-16277,1749,47,42,389
2,452,296276,-2786,-16313,1702,48,45,401
2,453,296281,-2792,-16357,1794,44,49,410
2,454,296286,-2839,-16245,1937,46,41,420
2,455,296291,-2954,-16147,1977,45,32,428
2,456,296296,-3066,-16222,1830,47,12,441
2,457,296301,-2913,-16198,1757,49,0,452
2,458,296306,-2831,-16201,1742,48,-3,460
2,459,296311,-2846,-16155,1858,45,0,466
2,460,296316,-2975,-16123,1864,44,0,477
2,461,296321,-3093,-16156,1786,45,-3,488
2,462,296326,-2986,-16117,1725,46,-9,498
2,463,296331,-2959,-16124,1754,46,-7,505
2,464,296336,-3058,-16162,1751,42,-4,510
2,465,296341,-3131,-16175,1731,44,-6,522
2,466,296346,-3116,-16191,1675,44,-1,531
2,467,296351,-3165,-16185,1733,44,5,534
2,468,296356,-3270,-16267,1719,40,14,540
2,469,296361,-3347,-16271,1702,42,20,549
2,470,296366,-3333,-16270,1581,44,27,555
2,471,296371,-3314,-16298,1536,40,44,563
2,472,296376,-3308,-16299,1634,43,70,565
2,473,296381,-3442,-16316,1604,41,92,565
2,474,296386,-3543,-16319,1533,41,106,569
2,475,296391,-3544,-16269,1637,40,124,575
2,476,296396,-3511,-16241,1746,39,138,579
2,477,296401,-3553,-16234,1784,39,144,583
2,478,296406,-3622,-16195,1875,36,144,587
2,479,296411,-3713,-16221,1909,36,127,589
2,480,296416,-3732,-16262,1923,34,103,594
2,481,296421,-3610,-16239,1890,29,75,595
2,482,296426,-3535,-16208,1824,28,48,597
2,483,296431,-3610,-16141,1848,30,27,599
2,484,296436,-3708,-16092,1801,30,5,602
2,485,296441,-3752,-16004,1795,26,-18,607
2,486,296446,-3652,-15935,1759,26,-38,608
2,487,296451,-3687,-15844,1786,24,-55,609
2,488,296456,-3784,-15778,1778,23,-64,610
2,489,296461,-3982,-15778,1665,26,-77,608
2,490,296466,-4074,-15868,1487,26,-83,611
2,491,296471,-4092,-15913,1417,25,-77,609
2,492,296476,-3989,-16026,1455,25,-56,608
2,493,296481,-3960,-16008,1382,25,-29,604
2,494,296486,-3993,-16100,1419,25,15,595
2,495,296491,-4147,-16125,1469,20,54,585
2,496,296496,-4197,-16192,1498,20,83,583
2,497,296501,-4072,-16198,1565,17,105,577
2,498,296506,-3965,-16173,1550,15,120,571
2,499,296511,-4068,-16124,1600,15,135,565
2,500,296516,-4157,-16028,1727,12,144,560
2,501,296521,-4112,-15968,1774,12,133,555
2,502,296526,-4019,-15886,1669,12,111,551
2,503,296531,-3872,-15848,1651,9,89,548
2,504,296536,-4036,-15702,1939,6,38,538
2,505,296541,-4322,-15602,1839,5,-4,535
2,506,296546,-4263,-15567,1632,6,-53,533
2,507,296551,-4144,-15507,1517,4,-86,531
2,508,296556,-4147,-15524,1454,6,-94,523
2,509,296561,-4356,-15556,1298,10,-79,513
2,510,296566,-4450,-15645,1059,7,-40,499
2,511,296571,-4443,-15655,1002,-2,28,487
2,512,296576,-4413,-15681,1418,4,92,478
2,513,296581,-4353,-15861,1442,6,108,470
2,514,296586,-4374,-15876,1482,5,132,454
2,515,296591,-4426,-15933,1318,5,149,444
2,516,296596,-4533,-15899,1479,4,176,432
2,517,296601,-4504,-15907,1499,3,186,423
2,518,296606,-4387,-15867,1510,2,194,413
2,519,296611,-4332,-15802,1505,2,204,401
2,520,296616,-4419,-15713,1657,3,202,388
2,521,296621,-4519,-15696,1622,1,181,377
2,522,296626,-4461,-15617,1707,1,159,370
2,523,296631,-4290,-15542,1777,0,131,359
2,524,296636,-4283,-15460,1835,-2,99,346
2,525,296641,-4386,-15444,1852,-2,53,337
2,526,296646,-4477,-15427,1734,-1,0,328
2,527,296651,-4336,-15380,1668,-2,-48,322
2,528,296656,-4141,-15336,1665,-1,-93,309
2,529,296661,-4083,-15266,1652,0,-122,299
2,530,296666,-4108,-15216,1561,4,-138,288
2,531,296671,-4150,-15284,1443,2,-146,277
2,532,296676,-4122,-15322,1338,5,-148,267
2,533,296681,-4022,-15435,1358,-1,-151,252
2,534,296686,-4086,-15393,1502,-7,-141,230
2,535,296691,-4204,-15455,1517,-1,-145,220
2,536,296696,-4240,-15500,1426,2,-156,209
2,537,296701,-4221,-15531,1411,4,-153,190
2,538,296706,-4256,-15538,1503,4,-150,174
2,539,296711,-4291,-15520,1559,1,-154,159
2,540,296716,-4331,-15551,1485,2,-157,142
2,541,296721,-4372,-15536,1393,4,-161,126
2,542,296726,-4390,-15490,1572,3,-159,107
2,543,296731,-4372,-15455,1690,3,-166,92
2,544,296736,-4316,-15445,1680,3,-174,78
2,545,296741,-4254,-15412,1615,4,-184,54
2,546,296746,-4267,-15425,1643,0,-193,36
2,547,296751,-4316,-15446,1697,1,-208,22
2,548,296756,-4292,-15472,1701,0,-230,4
2,549,296761,-4230,-15429,1560,-1,-250,-13
2,550,296766,-4267,-15468,1541,1,-262,-32
2,551,296771,-4318,-15433,1522,2,-271,-51
2,552,296776,-4326,-15448,1447,-1,-270,-72
2,553,296781,-4263,-15466,1412,1,-266,-89
2,554,296786,-4210,-15512,1495,0,-248,-113
2,555,296791,-4234,-15536,1497,-4,-222,-131
2,556,296796,-4219,-15568,1443,-4,-193,-150
2,557,296801,-4198,-15594,1430,-4,-168,-172
2,558,296806,-4158,-15639,1413,-5,-152,-193
2,559,296811,-4129,-15660,1538,-6,-145,-211
2,560,296816,-4143,-15661,1629,-8,-143,-231
2,561,296821,-4123,-15700,1631,-7,-143,-250
2,562,296826,-4040,-15643,1603,-8,-146,-273
2,563,296831,-3987,-15658,1580,-9,-144,-292
2,564,296836,-4002,-15602,1635,-9,-154,-310
2,565,296841,-4033,-15529,1708,-9,-172,-325
2,566,296846,-4079,-15542,1640,-13,-190,-345
2,567,296851,-3975,-15610,1509,-14,-203,-363
2,568,296856,-3789,-15583,1462,-16,-205,-379
2,569,296861,-3740,-15562,1438,-18,-201,-399
2,570,296866,-3689,-15544,1420,-19,-196,-417
2,571,296871,-3634,-15583,1425,-17,-192,-434
2,572,296876,-3501,-15609,1427,-16,-185,-451
2,573,296881,-3474,-15614,1566,-24,-180,-469
2,574,296886,-3503,-15602,1647,-23,-187,-485
2,575,296891,-3484,-15627,1629,-24,-204,-500
2,576,296896,-3487,-15602,1690,-26,-224,-516
2,577,296901,-3473,-15609,1642,-26,-245,-531
2,578,296906,-3392,-15603,1605,-30,-301,-555
2,579,296911,-3362,-15559,1545,-31,-324,-571
2,580,296916,-3388,-15525,1608,-34,-345,-586
2,581,296921,-3451,-15487,1677,-35,-360,-598
2,582,296926,-3515,-15521,1694,-40,-378,-614
2,583,296931,-3501,-15595,1626,-43,-396,-629
2,584,296936,-3493,-15654,1543,-44,-402,-646
2,585,296941,-3391,-15705,1478,-46,-403,-661
2,586,296946,-3433,-15705,1488,-46,-395,-674
2,587,296951,-3484,-15739,1458,-56,-381,-694
2,588,296956,-3550,-15686,1622,-59,-359,-712
2,589,296961,-3429,-15795,1624,-56,-355,-722
2,590,296966,-3320,-15906,1577,-57,-346,-738
2,591,296971,-3284,-15971,1610,-60,-328,-751
2,592,296976,-3367,-16041,1652,-63,-319,-767
2,593,296981,-3394,-16153,1737,-69,-313,-780
2,594,296986,-3311,-16193,1799,-68,-313,-789
2,595,296991,-3287,-16177,1883,-69,-309,-804
2,596,296996,-3462,-16410,1178,-74,-319,-822
2,597,297001,-6175,-15607,2870,-87,-330,-820
2,598,297006,-75,-16768,1074,-71,-433,-806
2,599,297011,-738,-16505,586,-96,-264,-881
2,600,297016,-4485,-16322,3820,-44,-122,-943
2,601,297021,-5168,-15564,-215,-109,-415,-884
2,602,297026,-2827,-16780,2221,-115,-299,-796
2,603,297031,-1316,-16203,2571,-97,-233,-864
2,604,297036,-1153,-17002,1946,-90,-261,-875
2,605,297041,-3138,-16262,1826,-99,-264,-934
2,606,297046,-3905,-16504,1943,-99,-299,-911
2,607,297051,-3081,-16120,2256,-112,-379,-903
2,608,297056,-1301,-16363,2033,-114,-428,-900
2,609,297061,-1545,-16402,2097,-110,-394,-928
2,610,297066,-2378,-16478,2073,-107,-378,-942
2,611,297071,-3179,-16492,1918,-110,-397,-939
2,612,297076,-2663,-16416,1857,-120,-436,-929
2,613,297081,-1995,-16502,2129,-125,-453,-923
2,614,297086,-1762,-16668,2058,-125,-444,-930
2,615,297091,-2231,-16811,2026,-124,-402,-941
2,616,297096,-2626,-16882,1960,-125,-377,-944
2,617,297101,-2489,-16965,1969,-130,-377,-941
2,618,297106,-2093,-17056,2028,-139,-385,-940
2,619,297111,-1833,-17157,2089,-138,-379,-938
2,620,297116,-1992,-17182,2162,-140,-349,-947
2,621,297121,-2171,-17123,2125,-140,-327,-951
2,622,297126,-2114,-17108,1966,-141,-317,-952
2,623,297131,-1918,-17113,2019,-146,-316,-950
2,624,297136,-1631,-17035,2129,-151,-320,-949
2,625,297141,-1571,-16973,2278,-153,-324,-947
2,626,297146,-1679,-16891,2316,-154,-328,-945
2,627,297151,-1758,-16823,2232,-156,-336,-944
2,628,297156,-1604,-16776,2250,-155,-342,-938
2,629,297161,-1388,-16868,2215,-158,-359,-930
2,630,297166,-1394,-16932,2262,-161,-377,-926
2,631,297171,-1502,-17055,2333,-163,-395,-920
2,632,297176,-1516,-17099,2141,-166,-409,-916
2,633,297181,-1277,-17193,1905,-166,-403,-909
2,634,297186,-1114,-17233,1866,-169,-382,-908
2,635,297191,-1068,-17276,1746,-171,-350,-907
2,636,297196,-1104,-17224,1715,-177,-305,-904
2,637,297201,-1093,-17135,1790,-178,-263,-900
2,638,297206,-993,-17078,1821,-180,-225,-899
2,639,297211,-834,-17040,1830,-180,-194,-892
2,640,297216,-707,-17012,1877,-177,-163,-890
2,641,297221,-734,-17075,1945,-178,-141,-888
2,642,297226,-748,-17050,2001,-181,-135,-884
2,643,297231,-712,-17081,1929,-182,-136,-877
2,644,297236,-592,-17032,1804,-187,-140,-871
2,645,297241,-461,-16947,1855,-189,-139,-866
2,646,297246,-384,-16798,2014,-190,-135,-861
2,647,297251,-362,-16688,1997,-192,-127,-856
2,648,297256,-164,-16653,1832,-193,-123,-842
2,649,297261,17,-16651,1683,-190,-116,-835
2,650,297266,149,-16691,1770,-189,-113,-830
2,651,297271,139,-16705,1786,-197,-138,-816
2,652,297276,202,-16694,1762,-198,-148,-804
2,653,297281,307,-16771,1732,-196,-158,-794
2,654,297286,392,-16749,1619,-196,-163,-788
2,655,297291,396,-16738,1630,-196,-161,-779
2,656,297296,394,-16858,1611,-200,-162,-768
2,657,297301,402,-16878,1621,-203,-152,-765
2,658,297306,366,-16863,1647,-204,-138,-757
2,659,297311,487,-16832,1589,-204,-128,-748
2,660,297316,576,-16751,1429,-207,-109,-741
2,661,297321,495,-16704,1513,-203,-92,-732
2,662,297326,174,-16507,360,-203,-94,-725
2,663,297331,-412,-16998,-11047,-182,-82,-721
2,664,297336,-11932,-21153,-19054,-64,882,-847
2,665,297341,-31745,-14497,13331,27,4255,-965
2,666,297346,-9314,-11704,17114,332,5763,-333
2,667,297351,11810,-14785,11590,353,5710,-109
2,668,297356,15360,-16879,27308,161,4237,-397
2,669,297361,-1180,-16135,31238,161,-14,-341
2,670,297366,-9762,-15193,8868,270,-4625,-40
2,671,297371,-3585,-13667,-18708,277,-5359,126
2,672,297376,2242,-13590,-14149,221,-2033,138
2,673,297381,8136,-14734,-2362,169,694,64
2,674,297386,2912,-15153,15413,209,2013,11
2,675,297391,-719,-16748,5451,325,-40,145
2,676,297396,1218,-17081,-12857,345,-1568,116
2,677,297401,-1111,-15616,-2011,166,-621,60
2,678,297406,1376,-15630,3516,174,-371,103
2,679,297411,1587,-16143,3681,213,-142,59
2,680,297416,1582,-16696,-204,276,-239,42
2,681,297421,370,-16946,-1326,311,-268,61
2,682,297426,-709,-16726,1430,242,-222,62
2,683,297431,632,-16030,3932,180,-381,68
2,684,297436,2186,-16264,2371,182,-486,94
2,685,297441,2044,-16632,906,202,-323,78
2,686,297446,835,-16633,864,218,-179,70
2,687,297451,-15,-16691,798,220,-171,93
2,688,297456,585,-16514,821,198,-213,100
2,689,297461,1513,-16539,969,171,-217,101
2,690,297466,1827,-16664,659,167,-155,90
2,691,297471,1239,-16685,970,170,12,76
2,692,297476,655,-16681,1095,171,143,73
2,693,297481,690,-16717,1135,162,213,80
2,694,297486,1328,-16700,1296,143,228,88
2,695,297491,1650,-16712,1500,128,224,86
2,696,297496,1509,-16646,1723,124,238,81
2,697,297501,1084,-16572,1893,122,266,83
2,698,297506,818,-16562,2142,118,271,93
2,699,297511,1084,-16639,1781,108,212,104
2,700,297516,1215,-16679,2000,96,162,113
2,701,297521,1276,-16678,2071,89,85,115
2,702,297526,1091,-16568,2163,82,34,119
2,703,297531,936,-16607,1974,77,-3,124
2,704,297536,917,-16621,1927,68,-29,130
2,705,297541,1009,-16665,1884,57,-64,135
2,706,297546,1028,-16648,1817,48,-91,138
2,707,297551,1002,-16636,1675,38,-108,141
2,708,297556,921,-16601,1706,32,-96,142
2,709,297561,912,-16617,1672,27,-75,141
2,710,297566,956,-16640,1585,18,-60,145
2,711,297571,951,-16644,1583,13,-51,148
2,712,297576,842,-16644,1671,3,-47,149
2,713,297581,788,-16636,1710,-4,-39,148
2,714,297586,762,-16634,1715,-9,-30,152
2,715,297591,780,-16627,1687,-12,-18,153
2,716,297596,815,-16642,1696,-21,-6,152
2,717,297601,797,-16650,1668,-29,-8,155
2,718,297606,795,-16627,1635,-35,-12,154
2,719,297611,832,-16601,1668,-43,-7,157
2,720,297616,821,-16566,1642,-47,0,157
2,721,297621,837,-16563,1619,-52,11,152
2,722,297626,868,-16580,1643,-56,23,154
2,723,297631,878,-16544,1653,-61,24,157
2,724,297636,913,-16524,1629,-70,29,158
2,725,297641,868,-16427,1737,-79,36,158
2,726,297646,907,-16439,1653,-83,37,164
2,727,297651,911,-16423,1684,-89,38,166
2,728,297656,855,-16424,1670,-95,36,163
2,729,297661,810,-16377,1661,-98,31,163
2,730,297666,820,-16391,1656,-103,31,164
2,731,297671,769,-16398,1643,-108,29,166
2,732,297676,662,-16425,1593,-111,30,167
2,733,297681,564,-16444,1622,-114,28,169
2,734,297686,630,-16421,1594,-119,22,170
2,735,297691,674,-16378,1506,-123,23,169
2,736,297696,687,-16407,1474,-124,33,166
2,737,297701,666,-16397,1549,-124,45,168
2,738,297706,609,-16345,1560,-126,52,170
2,739,297711,649,-16431,1497,-132,60,166
2,740,297716,680,-16425,1553,-135,70,168
2,741,297721,649,-16439,1583,-135,76,167
2,742,297726,619,-16371,1576,-136,80,167
2,743,297731,590,-16374,1622,-137,76,166
2,744,297736,534,-16348,1590,-140,68,168
2,745,297741,597,-16355,1564,-140,63,168
2,746,297746,651,-16332,1617,-142,57,166
2,747,297751,651,-16347,1614,-144,55,167
2,748,297756,632,-16397,1620,-146,53,166
2,749,297761,641,-16449,1583,-144,56,169
2,750,297766,668,-16429,1580,-145,58,167
2,751,297771,644,-16424,1638,-143,60,167
2,752,297776,627,-16393,1617,-144,61,166
2,753,297781,551,-16411,1663,-146,57,165
2,754,297786,571,-16400,1687,-144,48,166
2,755,297791,558,-16405,1720,-141,39,168
2,756,297796,520,-16342,1712,-141,34,167
2,757,297801,492,-16362,1658,-141,27,168
2,758,297806,447,-16355,1582,-142,20,166
2,759,297811,483,-16353,1568,-139,14,167
2,760,297816,471,-16334,1563,-136,7,165
2,761,297821,422,-16285,1586,-137,4,161
2,762,297826,401,-16317,1524,-133,6,161
2,763,297831,423,-16264,1540,-128,8,162
2,764,297836,406,-16270,1536,-124,8,161
2,765,297841,364,-16266,1525,-122,8,160
2,766,297846,329,-16275,1501,-122,12,158
2,767,297851,302,-16233,1532,-117,12,156
2,768,297856,312,-16267,1471,-113,16,154
2,769,297861,260,-16263,1472,-112,26,153
2,770,297866,196,-16288,1473,-108,33,151
2,771,297871,159,-16234,1534,-103,34,150
2,772,297876,98,-16236,1600,-100,42,148
2,773,297881,125,-16272,1519,-98,50,147
2,774,297886,110,-16345,1428,-93,55,141
2,775,297891,186,-16372,1434,-85,61,141
2,776,297896,251,-16368,1393,-83,68,139
2,777,297901,190,-16358,1431,-81,81,134
2,778,297906,178,-16382,1469,-75,89,132
2,779,297911,201,-16357,1433,-73,97,131
2,780,297916,262,-16361,1391,-68,110,128
2,781,297921,247,-16272,1428,-66,119,126
2,782,297926,221,-16239,1559,-61,128,127
2,783,297931,223,-16251,1616,-56,129,126
2,784,297936,292,-16265,1571,-50,124,127
2,785,297941,402,-16327,1533,-42,122,128
2,786,297946,384,-16348,1548,-40,121,125
2,787,297951,329,-16400,1601,-38,114,127
2,788,297956,354,-16418,1632,-35,99,129
2,789,297961,421,-16383,1687,-30,86,130
2,790,297966,371,-16398,1693,-26,78,131
2,791,297971,313,-16483,1749,-23,65,132
2,792,297976,306,-16473,1739,-19,49,133
2,793,297981,314,-16485,1600,-15,32,134
2,794,297986,339,-16530,1574,-11,21,134
2,795,297991,350,-16539,1596,-5,15,137
2,796,297996,264,-16488,1652,-3,16,135
2,797,298001,300,-16469,1603,-2,17,133
2,798,298006,224,-16484,1581,4,24,134
2,799,298011,190,-16514,1736,9,31,134
2,800,298016,94,-16563,1716,12,33,134
2,801,298021,60,-16566,1675,15,30,132
2,802,298026,13,-16575,1649,18,28,132
2,803,298031,7,-16567,1628,20,23,133
2,804,298036,-14,-16539,1636,26,13,133
2,805,298041,-22,-16523,1659,30,10,129
2,806,298046,-72,-16541,1614,32,11,127
2,807,298051,-164,-16563,1612,36,12,127
2,808,298056,-192,-16584,1621,38,12,125
2,809,298061,-120,-16602,1581,41,12,122
2,810,298066,-153,-16617,1582,43,11,119
2,811,298071,-197,-16547,1596,48,13,117
2,812,298076,-252,-16538,1522,53,16,115
2,813,298081,-210,-16493,1523,56,22,114
2,814,298086,-152,-16465,1512,56,30,110
2,815,298091,-135,-16479,1532,58,44,106
2,816,298096,-178,-16454,1538,60,54,105
2,817,298101,-204,-16461,1568,62,67,103
2,818,298106,-184,-16528,1600,64,74,98
2,819,298111,-216,-16541,1531,67,77,98
2,820,298116,-144,-16530,1530,70,81,99
2,821,298121,-84,-16507,1516,71,85,95
2,822,298126,-73,-16495,1527,71,87,92
2,823,298131,-114,-16491,1531,74,91,93
2,824,298136,-85,-16430,1542,76,91,90
2,825,298141,-82,-16402,1535,80,86,92
2,826,298146,-20,-16374,1512,81,79,92
2,827,298151,-96,-16344,1597,81,70,91
2,828,298156,-114,-16311,1725,79,54,89
2,829,298161,-146,-16315,1697,81,40,89
2,830,298166,-155,-16362,1681,84,30,87
2,831,298171,-149,-16429,1656,86,15,87
2,832,298176,-139,-16466,1613,85,7,85
2,833,298181,-215,-16512,1517,88,1,87
2,834,298186,-190,-16516,1465,88,-6,84
2,835,298191,-186,-16524,1430,89,-9,84
2,836,298196,-164,-16469,1488,89,-8,83
2,837,298201,-201,-16414,1440,90,1,81
2,838,298206,-264,-16388,1433,90,5,78
2,839,298211,-386,-16339,1486,92,1,78
2,840,298216,-266,-16280,1448,91,-2,78
2,841,298221,-206,-16242,1437,92,-8,77
2,842,298226,-277,-16187,1549,94,-13,76
2,843,298231,-319,-16155,1589,94,-18,72
2,844,298236,-386,-16182,1562,96,-22,71
2,845,298241,-373,-16214,1545,97,-27,70
2,846,298246,-350,-16281,1554,93,-32,65
2,847,298251,-333,-16361,1532,94,-34,64
2,848,298256,-332,-16400,1576,93,-34,64
2,849,298261,-430,-16443,1545,95,-32,61
2,850,298266,-463,-16471,1544,96,-29,60
2,851,298271,-432,-16477,1531,97,-20,56
2,852,298276,-350,-16476,1501,92,-10,51
2,853,298281,-385,-16501,1465,94,-5,52
2,854,298286,-464,-16471,1591,93,8,50
2,855,298291,-453,-16506,1615,93,14,46
2,856,298296,-372,-16532,1622,91,19,45
2,857,298301,-353,-16518,1589,93,22,44
2,858,298306,-330,-16496,1630,91,22,39
2,859,298311,-349,-16449,1637,90,20,39
2,860,298316,-340,-16411,1683,86,18,39
2,861,298321,-331,-16362,1670,90,10,35
2,862,298326,-316,-16372,1648,89,7,34
2,863,298331,-321,-16411,1638,87,1,31
2,864,298336,-386,-16410,1707,86,-7,28
2,865,298341,-454,-16438,1712,82,-15,29
2,866,298346,-398,-16442,1692,82,-19,27
2,867,298351,-397,-16450,1693,79,-25,24
2,868,298356,-442,-16428,1726,81,-32,23
2,869,298361,-470,-16448,1700,80,-34,21
2,870,298366,-458,-16416,1655,79,-36,21
2,871,298371,-440,-16443,1624,77,-38,17
2,872,298376,-447,-16462,1694,73,-36,15
2,873,298381,-476,-16504,1653,70,-31,9
2,874,298386,-493,-16488,1662,69,-26,6
2,875,298391,-459,-16485,1600,68,-21,3
2,876,298396,-437,-16489,1628,69,-13,3
2,877,298401,-489,-16454,1703,67,-7,2
2,878,298406,-521,-16436,1703,65,-3,-1
2,879,298411,-553,-16458,1733,63,-1,-1
2,880,298416,-519,-16505,1735,60,4,-6
2,881,298421,-513,-16524,1729,62,7,-7
2,882,298426,-513,-16500,1711,57,7,-8
2,883,298431,-479,-16445,1686,57,4,-9
2,884,298436,-454,-16436,1671,55,5,-14
2,885,298441,-447,-16433,1638,53,7,-14
2,886,298446,-414,-16402,1625,48,11,-16
2,887,298451,-364,-16362,1705,50,13,-17
2,888,298456,-365,-16362,1733,48,13,-19
2,889,298461,-393,-16333,1761,41,13,-19
2,890,298466,-359,-16370,1840,39,11,-20
2,891,298471,-328,-16407,1882,39,5,-23
2,892,298476,-384,-16458,1880,39,3,-22
2,893,298481,-392,-16504,1869,37,-4,-22
2,894,298486,-431,-16534,1812,35,-14,-24
2,895,298491,-438,-16510,1813,32,-23,-25
2,896,298496,-430,-16495,1817,29,-30,-24
2,897,298501,-438,-16494,1817,27,-31,-24
2,898,298506,-434,-16477,1768,24,-31,-26
2,899,298511,-450,-16416,1714,23,-32,-28
2,900,298516,-490,-16414,1738,22,-31,-30
2,901,298521,-505,-16371,1786,20,-29,-30
2,902,298526,-544,-16341,1798,16,-31,-33
2,903,298531,-534,-16333,1872,16,-27,-34
2,904,298536,-533,-16393,1833,16,-21,-33
2,905,298541,-553,-16439,1842,16,-22,-32
2,906,298546,-558,-16492,1829,14,-23,-34
2,907,298551,-610,-16555,1824,10,-29,-37
2,908,298556,-639,-16546,1834,9,-30,-35
2,909,298561,-618,-16549,1831,7,-32,-39
2,910,298566,-625,-16474,1784,4,-27,-43
2,911,298571,-565,-16444,1736,5,-22,-43
2,912,298576,-533,-16428,1712,3,-16,-44
2,913,298581,-531,-16398,1739,-3,-9,-45
2,914,298586,-496,-16378,1745,-1,0,-44
2,915,298591,-446,-16343,1779,-1,12,-46
2,916,298596,-484,-16371,1864,-5,18,-48
2,917,298601,-520,-16434,1916,-6,20,-48
2,918,298606,-517,-16483,1940,-8,15,-47
2,919,298611,-461,-16504,1907,-10,9,-47
2,920,298616,-407,-16526,1886,-11,5,-47
2,921,298621,-364,-16528,1832,-14,3,-50
2,922,298626,-395,-16528,1822,-15,0,-49
2,923,298631,-417,-16522,1917,-13,-2,-46
2,924,298636,-437,-16514,1863,-16,-1,-45
2,925,298641,-410,-16464,1838,-19,-5,-46
2,926,298646,-459,-16471,1854,-18,-10,-44
2,927,298651,-471,-16415,1904,-20,-14,-44
2,928,298656,-440,-16429,1884,-22,-18,-46
2,929,298661,-412,-16433,1919,-24,-17,-47
2,930,298666,-407,-16431,1942,-25,-19,-45
2,931,298671,-367,-16424,1922,-26,-20,-40
2,932,298676,-391,-16426,1874,-26,-21,-40
2,933,298681,-408,-16426,1857,-27,-23,-41
2,934,298686,-408,-16443,1854,-29,-29,-40
2,935,298691,-423,-16432,1850,-28,-27,-38
2,936,298696,-429,-16406,1854,-28,-31,-39
2,937,298701,-474,-16414,1856,-31,-35,-39
2,938,298706,-538,-16454,1855,-35,-37,-39
2,939,298711,-513,-16430,1836,-34,-40,-38
2,940,298716,-537,-16408,1856,-33,-43,-36
2,941,298721,-481,-16383,1789,-35,-40,-37
2,942,298726,-494,-16409,1744,-36,-36,-38
2,943,298731,-493,-16493,1740,-32,-34,-35
2,944,298736,-538,-16464,1815,-36,-32,-35
2,945,298741,-509,-16433,1774,-39,-28,-35
2,946,298746,-492,-16427,1771,-38,-18,-36
2,947,298751,-440,-16468,1798,-39,-6,-34
2,948,298756,-499,-16445,1826,-39,1,-35
2,949,298761,-447,-16438,1799,-39,3,-37
2,950,298766,-436,-16393,1802,-36,6,-33
2,951,298771,-450,-16407,1806,-40,9,-35
2,952,298776,-425,-16401,1826,-37,6,-29
2,953,298781,-403,-16349,1876,-40,4,-29
2,954,298786,-434,-16375,1863,-43,2,-31
2,955,298791,-455,-16406,1881,-41,-4,-28
2,956,298796,-426,-16434,1851,-40,-10,-27
2,957,298801,-406,-16467,1812,-40,-17,-26
2,958,298806,-382,-16442,1804,-41,-17,-25
2,959,298811,-392,-16400,1774,-41,-16,-23
2,960,298816,-390,-16394,1788,-40,-12,-20
2,961,298821,-390,-16347,1779,-42,-12,-21
2,962,298826,-394,-16375,1789,-41,-9,-19
2,963,298831,-424,-16400,1813,-42,-11,-20
2,964,298836,-435,-16392,1757,-42,-17,-14
2,965,298841,-403,-16400,1714,-38,-28,-14
2,966,298846,-408,-16379,1722,-40,-33,-15
2,967,298851,-370,-16342,1734,-41,-33,-17
2,968,298856,-363,-16302,1687,-38,-29,-16
2,969,298861,-383,-16275,1640,-40,-25,-15
2,970,298866,-401,-16223,1676,-38,-22,-14
2,971,298871,-427,-16203,1723,-36,-22,-9
2,972,298876,-453,-16259,1836,-39,-21,-10
2,973,298881,-477,-16301,1870,-41,-22,-10
2,974,298886,-486,-16344,1810,-39,-21,-11
2,975,298891,-466,-16395,1738,-37,-21,-9
2,976,298896,-442,-16431,1642,-33,-20,-8
2,977,298901,-375,-16472,1641,-31,-17,-6
2,978,298906,-362,-16444,1701,-33,-10,-7
2,979,298911,-329,-16417,1750,-31,-1,-8
2,980,298916,-322,-16388,1768,-33,9,-6
2,981,298921,-350,-16409,1808,-31,17,-10
2,982,298926,-385,-16415,1839,-32,15,-6
2,983,298931,-344,-16427,1804,-32,6,-4
2,984,298936,-354,-16413,1766,-29,-4,-7
2,985,298941,-411,-16407,1870,-31,-14,-6
2,986,298946,-383,-16375,1845,-28,-19,-2
2,987,298951,-385,-16391,1793,-25,-21,-1
2,988,298956,-369,-16423,1746,-29,-23,0
2,989,298961,-335,-16449,1761,-26,-23,0
2,990,298966,-354,-16452,1732,-26,-26,1
2,991,298971,-360,-16463,1717,-27,-27,1
2,992,298976,-352,-16432,1749,-27,-23,0
2,993,298981,-354,-16415,1717,-25,-22,2
2,994,298986,-358,-16426,1690,-23,-17,4
2,995,298991,-350,-16407,1731,-23,-13,3
2,996,298996,-318,-16385,1712,-23,-10,3
2,997,299001,-374,-16383,1693,-21,-6,4
2,998,299006,-383,-16357,1715,-18,-8,6
2,999,299011,-384,-16316,1736,-17,-9,5
