event_id,seq,ts_ms,ax,ay,az,gx,gy,gz
10,0,721088,-414,-16559,1436,1,-14,2
10,1,721093,-396,-16524,1453,-1,-1,2
10,2,721098,-375,-16555,1496,-1,7,0
10,3,721103,-362,-16530,1511,-3,11,-1
10,4,721108,-267,-16528,1501,-4,14,0
10,5,721113,-264,-16475,1490,0,13,2
10,6,721118,-318,-16468,1468,-1,10,0
10,7,721123,-290,-16478,1472,-2,8,1
10,8,721128,-303,-16471,1491,-3,4,4
10,9,721133,-401,-16498,1493,-4,4,2
10,10,721138,-426,-16544,1461,-1,6,-1
10,11,721143,-479,-16554,1431,1,12,2
10,12,721148,-472,-16618,1527,-1,16,2
10,13,721153,-437,-16612,1555,-3,19,-1
10,14,721158,-453,-16640,1572,-2,23,1
10,15,721163,-490,-16670,1558,-1,25,-1
10,16,721168,-531,-16688,1622,-2,25,-5
10,17,721173,-541,-16668,1647,-2,22,-2
10,18,721178,-498,-16676,1668,-2,18,0
10,19,721183,-484,-16742,1704,1,13,-3
10,20,721188,-462,-16787,1742,-3,2,-5
10,21,721193,-486,-16918,1771,-7,-11,-2
10,22,721198,-518,-17025,1766,-7,-17,-3
10,23,721203,-497,-17136,1813,-7,-20,-5
10,24,721208,-461,-17293,1823,-8,-21,-5
10,25,721213,-435,-17354,1831,-9,-19,-4
10,26,721218,-403,-17397,1865,-9,-20,-6
10,27,721223,-400,-17499,1900,-9,-26,-5
10,28,721228,-335,-17662,1850,-12,-26,-7
10,29,721233,-297,-17780,1856,-15,-22,-6
10,30,721238,-382,-17864,1864,-16,-18,-7
10,31,721243,-450,-17973,1719,-16,-15,-9
10,32,721248,-499,-18081,1605,-14,-16,-12
10,33,721253,-593,-18191,1549,-17,-14,-13
10,34,721258,-618,-18261,1491,-16,-10,-13
10,35,721263,-517,-18385,1518,-14,-3,-13
10,36,721268,-382,-18633,1401,-13,-1,-14
10,37,721273,-285,-18818,1210,-10,-1,-17
10,38,721278,-283,-19014,1033,-8,-3,-15
10,39,721283,-270,-19294,990,-5,-8,-14
10,40,721288,-414,-19541,969,-1,-18,-22
10,41,721293,-309,-19387,791,1,-19,-35
10,42,721298,-579,-19867,736,8,2,-10
10,43,721303,-519,-19804,676,10,44,-25
10,44,721308,-585,-19787,941,15,81,-25
10,45,721313,-645,-19742,1254,17,97,-21
10,46,721318,-727,-19716,1336,21,93,-26
10,47,721323,-795,-19753,1359,23,87,-30
10,48,721328,-709,-19731,1640,22,96,-30
10,49,721333,-865,-19670,1943,25,96,-33
10,50,721338,-806,-19599,2154,25,74,-36
10,51,721343,-602,-19596,2383,25,46,-32
10,52,721348,-743,-19499,2518,23,7,-36
10,53,721353,-744,-19280,2503,20,-31,-38
10,54,721358,-942,-19245,2558,21,-61,-35
10,55,721363,-1013,-19066,2559,20,-97,-35
10,56,721368,-890,-19081,2404,17,-133,-36
10,57,721373,-764,-18920,2350,13,-160,-43
10,58,721378,-694,-18847,2348,13,-182,-41
10,59,721383,-843,-18722,2272,12,-195,-42
10,60,721388,-771,-18620,2097,8,-206,-46
10,61,721393,-554,-18513,2053,5,-195,-44
10,62,721398,-291,-18427,1943,5,-189,-44
10,63,721403,-238,-18422,1640,8,-191,-45
10,64,721408,-397,-18307,1402,6,-192,-49
10,65,721413,-521,-18312,1297,3,-185,-53
10,66,721418,-511,-18221,1330,3,-170,-53
10,67,721423,-335,-18117,1399,5,-139,-51
10,68,721428,-139,-17957,1443,4,-93,-53
10,69,721433,-162,-17919,1502,5,-63,-54
10,70,721438,-222,-17920,1489,3,-55,-56
10,71,721443,-277,-17634,1368,0,-48,-62
10,72,721448,-357,-17670,1420,6,-34,-54
10,73,721453,-423,-17557,1388,5,-23,-62
10,74,721458,-444,-17515,1435,3,-13,-57
10,75,721463,-490,-17638,1606,-1,-9,-48
10,76,721468,-33,-17158,2114,-5,17,-61
10,77,721473,-99,-17726,1797,5,27,-49
10,78,721478,-745,-17185,1162,-3,29,-81
10,79,721483,-471,-17227,1042,-5,72,-62
10,80,721488,-413,-16996,1601,-13,111,-55
10,81,721493,50,-16966,1873,-11,90,-55
10,82,721498,59,-17043,1659,-14,91,-56
10,83,721503,-146,-17075,1226,-16,121,-58
10,84,721508,-98,-16937,1070,-17,175,-62
10,85,721513,-173,-16944,1113,-15,216,-56
10,86,721518,-127,-17010,1088,-16,231,-59
10,87,721523,-295,-16936,888,-16,243,-59
10,88,721528,-390,-16918,777,-19,260,-58
10,89,721533,-554,-16817,913,-21,304,-62
10,90,721538,-768,-16799,643,-19,344,-65
10,91,721543,-300,-17009,857,-19,381,-67
10,92,721548,-141,-16413,1423,-19,417,-75
10,93,721553,-375,-17274,1438,-7,407,-48
10,94,721558,-294,-16616,819,-19,369,-84
10,95,721563,-333,-16837,1128,-20,403,-67
10,96,721568,-233,-16506,1304,-22,421,-72
10,97,721573,-54,-16444,1404,-18,423,-68
10,98,721578,47,-16425,1070,-16,418,-67
10,99,721583,32,-16230,960,-19,427,-68
10,100,721588,-52,-16203,1055,-20,444,-64
10,101,721593,-187,-15976,1060,-22,448,-65
10,102,721598,-128,-16003,1075,-22,475,-63
10,103,721603,-75,-16044,964,-21,513,-63
10,104,721608,62,-15939,1008,-20,542,-66
10,105,721613,53,-15789,1176,-23,571,-66
10,106,721618,-68,-15649,1288,-29,590,-67
10,107,721623,-160,-15652,1150,-25,601,-69
10,108,721628,-263,-15598,943,-23,612,-68
10,109,721633,-332,-15409,1016,-24,631,-70
10,110,721638,-392,-15178,1405,-26,631,-73
10,111,721643,-321,-15046,1758,-26,601,-67
10,112,721648,-129,-14980,1655,-24,565,-68
10,113,721653,63,-14938,1620,-23,550,-68
10,114,721658,175,-14882,1798,-24,538,-70
10,115,721663,207,-14769,1978,-27,502,-66
10,116,721668,192,-14693,1920,-27,445,-62
10,117,721673,235,-14609,1653,-27,400,-57
10,118,721678,286,-14593,1537,-30,380,-52
10,119,721683,295,-14651,1604,-29,380,-53
10,120,721688,399,-14813,1674,-31,375,-51
10,121,721693,427,-14947,1549,-33,376,-48
10,122,721698,520,-15123,1381,-34,384,-48
10,123,721703,379,-15293,1312,-37,408,-49
10,124,721708,232,-15478,1466,-37,442,-50
10,125,721713,158,-15717,1575,-37,474,-49
10,126,721718,61,-15930,1514,-40,500,-52
10,127,721723,-21,-16097,1494,-38,522,-55
10,128,721728,-176,-16122,1780,-40,533,-57
10,129,721733,-193,-16124,2067,-46,518,-60
10,130,721738,-162,-16047,2265,-45,484,-57
10,131,721743,-12,-16022,2104,-40,448,-54
10,132,721748,154,-15942,1980,-39,418,-56
10,133,721753,190,-15818,2193,-42,379,-55
10,134,721758,233,-15687,2406,-46,308,-52
10,135,721763,240,-15652,2311,-48,233,-49
10,136,721768,270,-15688,1929,-44,184,-40
10,137,721773,249,-15695,1642,-43,171,-40
10,138,721778,198,-15647,1605,-43,163,-40
10,139,721783,163,-15561,1538,-42,145,-40
10,140,721788,180,-15612,1263,-43,122,-38
10,141,721793,175,-15738,938,-40,121,-41
10,142,721798,171,-15856,725,-38,154,-42
10,143,721803,90,-15893,680,-33,200,-47
10,144,721808,-29,-15957,375,-28,257,-58
10,145,721813,123,-15945,197,-20,268,-58
10,146,721818,352,-15897,187,-14,284,-56
10,147,721823,561,-15869,330,-6,299,-60
10,148,721828,624,-15827,539,-1,300,-62
10,149,721833,444,-15738,571,5,295,-60
10,150,721838,312,-15703,304,13,290,-59
10,151,721843,421,-15710,117,17,302,-59
10,152,721848,344,-15230,641,28,329,-64
10,153,721853,227,-15319,696,37,333,-50
10,154,721858,221,-15252,685,42,326,-55
10,155,721863,303,-15397,623,42,329,-58
10,156,721868,429,-15450,975,46,347,-64
10,157,721873,475,-15492,1336,50,355,-61
10,158,721878,494,-15609,1297,56,351,-54
10,159,721883,432,-15664,1136,63,354,-52
10,160,721888,216,-15615,1110,60,361,-56
10,161,721893,-37,-15472,1297,61,369,-55
10,162,721898,-150,-15454,1312,65,369,-54
10,163,721903,-132,-15350,1210,68,381,-53
10,164,721908,-75,-15332,1122,72,401,-56
10,165,721913,-127,-15319,1312,74,409,-62
10,166,721918,-102,-15313,1519,73,392,-62
10,167,721923,30,-15250,1594,76,368,-59
10,168,721928,136,-15149,1627,82,343,-55
10,169,721933,188,-14989,1675,81,334,-57
10,170,721938,183,-14744,1776,83,319,-58
10,171,721943,182,-14466,1835,86,283,-52
10,172,721948,237,-14269,1815,85,244,-50
10,173,721953,312,-14114,1909,86,209,-46
10,174,721958,479,-14112,1874,88,179,-44
10,175,721963,654,-14067,1831,87,162,-40
10,176,721968,684,-14037,1818,87,143,-37
10,177,721973,575,-13975,1792,82,122,-33
10,178,721978,258,-13993,1635,83,107,-32
10,179,721983,29,-14044,1435,84,114,-29
10,180,721988,24,-14104,1390,81,151,-29
10,181,721993,82,-14147,1393,81,193,-30
10,182,721998,191,-14174,1482,83,223,-32
10,183,722003,250,-14127,1508,83,232,-30
10,184,722008,217,-14045,1446,84,226,-32
10,185,722013,65,-13940,1457,80,228,-31
10,186,722018,-46,-13829,1486,79,227,-30
10,187,722023,9,-13702,1546,82,224,-27
10,188,722028,133,-13620,1681,83,212,-24
10,189,722033,239,-13599,1777,82,187,-23
10,190,722038,286,-13539,1836,81,151,-21
10,191,722043,304,-13531,1809,78,114,-16
10,192,722048,373,-13575,1742,80,85,-12
10,193,722053,450,-13594,1689,81,63,-8
10,194,722058,463,-13523,1725,76,44,-7
10,195,722063,284,-13420,1784,75,25,-4
10,196,722068,73,-13394,1784,72,10,-1
10,197,722073,-16,-13378,1547,71,3,1
10,198,722078,14,-13381,1453,72,20,0
10,199,722083,126,-13434,1551,69,37,1
10,200,722088,226,-13505,1748,65,33,0
10,201,722093,243,-13464,1744,64,15,5
10,202,722098,230,-13488,1635,63,0,8
10,203,722103,299,-13501,1626,61,3,10
10,204,722108,390,-13499,1737,60,9,16
10,205,722113,488,-13470,1814,57,1,17
10,206,722118,449,-13414,1761,56,-20,22
10,207,722123,310,-13381,1580,54,-44,25
10,208,722128,188,-13421,1506,50,-59,28
10,209,722133,135,-13443,1574,51,-68,35
10,210,722138,142,-13545,1695,45,-70,36
10,211,722143,95,-13734,1537,44,-79,35
10,212,722148,-200,-13944,1422,42,-79,33
10,213,722153,-425,-14213,1491,39,-72,36
10,214,722158,-506,-14487,1527,40,-69,42
10,215,722163,-552,-14751,1375,37,-57,35
10,216,722168,-547,-14866,1394,34,-31,30
10,217,722173,-613,-15183,1699,25,-1,27
10,218,722178,-727,-15316,1496,23,1,25
10,219,722183,-861,-15333,1428,24,12,20
10,220,722188,-984,-15250,1587,18,17,15
10,221,722193,-944,-15200,1847,16,10,12
10,222,722198,-908,-15210,1972,11,-6,10
10,223,722203,-792,-15202,2116,10,-19,9
10,224,722208,-759,-15322,2249,8,-40,7
10,225,722213,-604,-15506,2401,1,-73,4
10,226,722218,-558,-15657,2407,0,-119,5
10,227,722223,-334,-15748,2416,-3,-174,4
10,228,722228,-131,-15858,2425,-7,-237,10
10,229,722233,-34,-15822,2331,-10,-299,10
10,230,722238,-8,-15863,2235,-14,-354,17
10,231,722243,37,-15875,2004,-16,-410,21
10,232,722248,103,-15807,1678,-17,-454,24
10,233,722253,76,-15724,1490,-18,-482,29
10,234,722258,-72,-15549,1383,-22,-493,30
10,235,722263,-299,-15383,1245,-26,-497,30
10,236,722268,-522,-15263,1081,-23,-488,28
10,237,722273,-640,-15239,1022,-26,-460,26
10,238,722278,-543,-15361,1057,-26,-422,23
10,239,722283,-273,-15533,1132,-26,-391,21
10,240,722288,-26,-15693,1243,-25,-372,17
10,241,722293,196,-15821,1326,-24,-369,15
10,242,722298,305,-15855,1437,-30,-361,18
10,243,722303,366,-15792,1467,-31,-352,21
10,244,722308,387,-15776,1493,-29,-342,25
10,245,722313,319,-15751,1346,-27,-336,25
10,246,722318,301,-15643,1250,-27,-332,27
10,247,722323,270,-15669,1291,-28,-327,34
10,248,722328,256,-15512,1313,-31,-328,32
10,249,722333,75,-15468,1240,-29,-326,33
10,250,722338,-216,-15458,1152,-27,-322,33
10,251,722343,-420,-15477,1110,-25,-311,40
10,252,722348,-509,-15497,1233,-28,-309,38
10,253,722353,-640,-15540,1335,-30,-317,37
10,254,722358,-801,-15594,1432,-30,-319,27
10,255,722363,-893,-15834,1665,-29,-326,26
10,256,722368,-823,-16119,1870,-27,-343,25
10,257,722373,-547,-16408,1899,-29,-373,25
10,258,722378,-243,-16552,1945,-31,-408,27
10,259,722383,-61,-16633,2075,-33,-452,25
10,260,722388,-43,-16624,2113,-36,-504,23
10,261,722393,80,-16491,1948,-36,-556,27
10,262,722398,129,-16313,1692,-35,-599,33
10,263,722403,132,-16133,1534,-39,-632,32
10,264,722408,55,-16047,1409,-35,-661,36
10,265,722413,-33,-15981,1222,-35,-691,40
10,266,722418,-182,-15954,1014,-40,-709,42
10,267,722423,-419,-16106,878,-34,-706,42
10,268,722428,-556,-16222,836,-35,-681,43
10,269,722433,-519,-16432,844,-33,-645,42
10,270,722438,-318,-16528,790,-30,-603,35
10,271,722443,-215,-16919,944,-25,-554,40
10,272,722448,31,-16539,600,-32,-523,19
10,273,722453,126,-16557,1170,-33,-458,27
10,274,722458,8,-16615,1219,-24,-450,45
10,275,722463,365,-16583,1002,-23,-463,47
10,276,722468,658,-16496,767,-25,-435,41
10,277,722473,679,-16366,972,-24,-385,36
10,278,722478,774,-16259,1092,-22,-369,34
10,279,722483,783,-16196,875,-18,-363,38
10,280,722488,955,-16087,510,-20,-344,40
10,281,722493,796,-15862,464,-20,-301,39
10,282,722498,246,-15729,565,-17,-260,40
10,283,722503,-447,-15664,636,-19,-214,40
10,284,722508,-924,-15740,560,-17,-154,37
10,285,722513,-858,-15876,535,-13,-88,31
10,286,722518,-539,-16061,900,-12,-8,28
10,287,722523,-219,-16142,1539,-14,42,24
10,288,722528,-47,-16143,2009,-14,38,20
10,289,722533,160,-16019,1914,-12,-4,22
10,290,722538,522,-15775,2080,-17,-67,36
10,291,722543,763,-15373,2356,-18,-124,28
10,292,722548,735,-15333,2334,-16,-221,41
10,293,722553,701,-15349,1987,-14,-337,49
10,294,722558,578,-15526,1715,-13,-424,62
10,295,722563,385,-15644,1573,-15,-487,70
10,296,722568,343,-15812,1520,-13,-529,73
10,297,722573,427,-15981,1207,-13,-547,75
10,298,722578,425,-16231,783,-10,-538,75
10,299,722583,260,-16380,401,-7,-493,76
10,300,722588,96,-16369,256,-10,-410,73
10,301,722593,-65,-16306,212,-10,-308,71
10,302,722598,-123,-16173,143,-7,-188,66
10,303,722603,-263,-15996,151,-4,-53,57
10,304,722608,-261,-15818,121,-7,70,43
10,305,722613,-841,-15728,1116,-10,183,41
10,306,722618,-1026,-15244,1386,-16,235,33
10,307,722623,-705,-15459,1397,-13,283,28
10,308,722628,-387,-15503,1697,-7,319,24
10,309,722633,-132,-15610,2505,-10,298,19
10,310,722638,-75,-15554,2977,-18,214,13
10,311,722643,-48,-15777,3133,-15,84,29
10,312,722648,144,-15834,2837,-18,-64,37
10,313,722653,317,-15962,2675,-16,-167,38
10,314,722658,219,-15892,2655,-17,-256,56
10,315,722663,-37,-16576,2668,-18,-368,82
10,316,722668,155,-16425,2428,-30,-476,56
10,317,722673,162,-16357,1731,-23,-559,63
10,318,722678,200,-16497,1084,-25,-572,67
10,319,722683,75,-16550,650,-25,-542,66
10,320,722688,153,-16373,625,-27,-494,57
10,321,722693,23,-16383,541,-28,-432,64
10,322,722698,-84,-16368,157,-25,-366,67
10,323,722703,-318,-16321,-80,-25,-259,61
10,324,722708,-706,-16274,71,-25,-116,51
10,325,722713,-1013,-16180,346,-28,12,39
10,326,722718,-1091,-16073,580,-26,109,28
10,327,722723,-947,-16081,784,-26,177,22
10,328,722728,-788,-16051,1233,-28,222,13
10,329,722733,-753,-16112,1673,-27,226,7
10,330,722738,-424,-16040,2370,-27,195,10
10,331,722743,-216,-16195,2583,-31,129,13
10,332,722748,20,-16286,2703,-32,48,11
10,333,722753,186,-16503,3018,-33,-46,18
10,334,722758,315,-16536,3255,-36,-161,22
10,335,722763,334,-16745,3104,-39,-283,31
10,336,722768,204,-16823,2649,-40,-388,41
10,337,722773,160,-16881,2236,-45,-467,48
10,338,722778,68,-16971,1982,-53,-513,51
10,339,722783,-72,-16986,1907,-53,-539,58
10,340,722788,-166,-16952,1311,-55,-550,61
10,341,722793,-171,-16973,827,-54,-506,55
10,342,722798,-454,-17057,461,-54,-424,54
10,343,722803,-590,-16780,358,-59,-336,41
10,344,722808,-840,-16741,257,-60,-242,48
10,345,722813,-883,-16751,-61,-57,-148,43
10,346,722818,-794,-16690,66,-57,-40,29
10,347,722823,-864,-16707,570,-55,64,19
10,348,722828,-857,-16655,966,-58,139,10
10,349,722833,-719,-16676,1245,-58,187,6
10,350,722838,-504,-16641,1391,-59,227,-1
10,351,722843,-370,-16549,1669,-58,254,1
10,352,722848,-288,-16504,1939,-60,245,1
10,353,722853,-170,-16484,2051,-57,197,0
10,354,722858,-49,-16429,2043,-59,130,5
10,355,722863,140,-16410,1982,-62,62,7
10,356,722868,227,-16377,1871,-62,-3,11
10,357,722873,279,-16303,1728,-60,-64,14
10,358,722878,384,-16222,1613,-58,-119,19
10,359,722883,310,-16235,1499,-59,-167,26
10,360,722888,156,-16318,1327,-60,-199,32
10,361,722893,-47,-16467,1155,-60,-202,35
10,362,722898,-137,-16570,987,-60,-174,29
10,363,722903,-256,-16611,871,-60,-125,26
10,364,722908,-302,-16786,751,-60,-12,20
10,365,722913,-398,-16862,728,-60,42,15
10,366,722918,-535,-16934,629,-61,91,11
10,367,722923,-626,-16980,479,-59,139,3
10,368,722928,-622,-16930,529,-56,186,1
10,369,722933,-541,-16782,669,-53,217,-3
10,370,722938,-481,-16625,801,-51,221,-8
10,371,722943,-499,-16487,809,-47,209,-7
10,372,722948,-593,-16552,881,-42,194,-1
10,373,722953,-515,-16472,1162,-41,171,-4
10,374,722958,-400,-16383,1446,-41,139,-9
10,375,722963,-275,-16467,1418,-34,98,-6
10,376,722968,-160,-16603,1214,-30,43,-10
10,377,722973,-196,-16771,1033,-25,-10,-9
10,378,722978,-254,-16893,1207,-24,-69,-6
10,379,722983,-136,-17081,1372,-21,-128,3
10,380,722988,159,-17245,1337,-20,-165,4
10,381,722993,233,-17295,1099,-17,-162,0
10,382,722998,105,-17298,1068,-13,-139,-5
10,383,723003,-79,-17232,1132,-14,-119,-3
10,384,723008,-236,-17214,1011,-17,-107,-3
10,385,723013,-203,-17247,886,-16,-80,-2
10,386,723018,-241,-17267,825,-18,-24,-7
10,387,723023,-507,-17252,879,-18,43,-14
10,388,723028,-726,-17191,936,-16,103,-21
10,389,723033,-701,-17027,973,-15,143,-25
10,390,723038,-689,-16864,1063,-14,167,-28
10,391,723043,-678,-16761,1298,-13,178,-30
10,392,723048,-632,-16674,1540,-10,167,-35
10,393,723053,-586,-16584,1820,-9,140,-35
10,394,723058,-358,-16569,2061,-9,90,-34
10,395,723063,-56,-16663,2300,-10,27,-30
10,396,723068,134,-16792,2406,-13,-42,-30
10,397,723073,170,-16940,2355,-12,-117,-27
10,398,723078,160,-17101,2165,-13,-193,-25
10,399,723083,111,-17227,1958,-19,-260,-21
10,400,723088,160,-17336,1812,-17,-318,-14
10,401,723093,225,-17373,1623,-15,-364,-10
10,402,723098,160,-17441,1358,-18,-391,-10
10,403,723103,22,-17543,1057,-18,-395,-10
10,404,723108,-129,-17635,743,-16,-385,-9
10,405,723113,-246,-17593,580,-16,-361,-11
10,406,723118,-341,-17544,612,-19,-323,-12
10,407,723123,-417,-17554,682,-16,-283,-16
10,408,723128,-1232,-23716,3052,16,-293,-13
10,409,723133,3282,-27125,10357,991,2494,-933
10,410,723138,-32540,7152,-32535,-128,-3892,-481
10,411,723143,12043,-22913,-10564,-922,-4026,1407
10,412,723148,-20920,-7033,24156,6,9194,-368
10,413,723153,14040,1159,-15966,-105,-2499,-397
10,414,723158,18805,-17587,2749,587,-2134,253
10,415,723163,-17210,-20327,5672,295,2708,15
10,416,723168,3669,-21312,-4574,-92,-1153,61
10,417,723173,-1160,-12019,9620,-69,233,59
10,418,723178,2662,-9620,2448,-154,89,29
10,419,723183,2964,-12828,14737,79,832,-170
10,420,723188,1077,-18617,933,167,587,-116
10,421,723193,159,-19752,1659,87,423,-100
10,422,723198,-653,-17368,-609,-18,185,-26
10,423,723203,-921,-15643,-527,-36,43,-10
10,424,723208,-176,-15302,2376,-14,301,-55
10,425,723213,-533,-15968,3242,21,440,-61
10,426,723218,958,-17122,1844,47,286,-34
10,427,723223,881,-17259,1225,25,238,-29
10,428,723228,77,-16293,2406,-32,198,-41
10,429,723233,-464,-15598,3993,-48,166,-39
10,430,723238,-184,-15533,3235,-22,89,-18
10,431,723243,914,-16316,2776,4,162,-12
10,432,723248,1014,-16422,2226,-3,237,-35
10,433,723253,330,-16684,2305,-10,194,-35
10,434,723258,-803,-16431,2196,-34,52,-24
10,435,723263,-1114,-16243,1340,-33,-98,0
10,436,723268,-846,-16584,920,-23,-100,12
10,437,723273,-427,-16540,1586,-26,1,-6
10,438,723278,-420,-16415,1574,-26,-104,-4
10,439,723283,-383,-16450,1568,-26,-196,9
10,440,723288,-399,-16339,1380,-25,-258,13
10,441,723293,-249,-16322,1007,-14,-281,18
10,442,723298,-64,-16534,1054,-9,-260,19
10,443,723303,-77,-16451,1248,-16,-245,11
10,444,723308,4,-16492,1374,-13,-292,21
10,445,723313,95,-16439,1056,-12,-376,31
10,446,723318,125,-16547,634,-10,-416,40
10,447,723323,-36,-16508,711,-7,-398,35
10,448,723328,-82,-16443,688,-6,-368,33
10,449,723333,33,-16510,944,-1,-343,37
10,450,723338,181,-16504,719,-4,-364,38
10,451,723343,224,-16593,508,3,-370,42
10,452,723348,94,-16507,491,1,-344,34
10,453,723353,-53,-16531,746,-1,-303,32
10,454,723358,-88,-16545,688,2,-292,35
10,455,723363,-90,-16503,477,6,-262,29
10,456,723368,-215,-16589,588,5,-212,23
10,457,723373,-408,-16556,783,3,-166,13
10,458,723378,-483,-16545,809,3,-142,9
10,459,723383,-488,-16522,739,2,-110,5
10,460,723388,-457,-16532,673,1,-60,-2
10,461,723393,-501,-16528,801,3,-9,-12
10,462,723398,-472,-16466,817,5,22,-19
10,463,723403,-360,-16512,940,3,47,-21
10,464,723408,-288,-16461,945,1,60,-25
10,465,723413,-252,-16448,902,7,75,-29
10,466,723418,-261,-16456,960,6,90,-36
10,467,723423,-205,-16469,983,8,104,-34
10,468,723428,-176,-16494,1004,11,105,-31
10,469,723433,-84,-16464,1009,9,104,-34
10,470,723438,9,-16475,1137,12,102,-33
10,471,723443,44,-16433,1246,11,93,-30
10,472,723448,5,-16427,1316,13,81,-26
10,473,723453,-36,-16489,1263,13,70,-26
10,474,723458,-60,-16466,1235,14,62,-25
10,475,723463,-61,-16467,1255,15,50,-22
10,476,723468,-142,-16418,1299,11,36,-22
10,477,723473,-187,-16448,1390,12,24,-17
10,478,723478,-196,-16465,1416,14,10,-15
10,479,723483,-189,-16451,1304,13,1,-16
10,480,723488,-168,-16451,1311,16,-5,-14
10,481,723493,-228,-16418,1406,15,-11,-13
10,482,723498,-217,-16453,1386,11,-26,-16
10,483,723503,-164,-16407,1412,11,-45,-10
10,484,723508,-142,-16450,1465,13,-60,-8
10,485,723513,-97,-16438,1497,11,-70,-10
10,486,723518,-141,-16418,1527,10,-76,-10
10,487,723523,-211,-16421,1557,11,-81,-9
10,488,723528,-271,-16461,1489,10,-96,-8
10,489,723533,-307,-16480,1444,8,-105,-8
10,490,723538,-311,-16468,1392,5,-116,-6
10,491,723543,-321,-16459,1415,4,-116,-5
10,492,723548,-307,-16425,1489,6,-117,-9
10,493,723553,-235,-16418,1533,3,-119,-7
10,494,723558,-173,-16432,1539,4,-123,-7
10,495,723563,-57,-16377,1474,4,-124,-8
10,496,723568,-57,-16411,1470,1,-123,-8
10,497,723573,-53,-16428,1451,2,-124,-11
10,498,723578,-73,-16410,1381,0,-124,-9
10,499,723583,-79,-16419,1323,2,-124,-7
10,500,723588,8,-16454,1276,2,-124,-7
10,501,723593,35,-16452,1278,1,-119,-8
10,502,723598,0,-16448,1283,-4,-111,-6
10,503,723603,-15,-16429,1302,-1,-109,-8
10,504,723608,-72,-16430,1286,0,-108,-8
10,505,723613,-52,-16480,1251,0,-104,-7
10,506,723618,-57,-16453,1258,-3,-96,-6
10,507,723623,-45,-16422,1321,-4,-83,-6
10,508,723628,-98,-16433,1372,-5,-76,-11
10,509,723633,-160,-16445,1265,-4,-71,-12
10,510,723638,-154,-16477,1254,-7,-61,-13
10,511,723643,-127,-16445,1194,-8,-51,-16
10,512,723648,-96,-16442,1245,-6,-45,-19
10,513,723653,-18,-16428,1221,-7,-44,-19
10,514,723658,52,-16419,1179,-7,-43,-18
10,515,723663,77,-16442,1130,-4,-45,-17
10,516,723668,108,-16461,1112,-3,-46,-14
10,517,723673,93,-16480,1067,-2,-46,-15
10,518,723678,117,-16455,1097,-6,-48,-15
10,519,723683,179,-16463,1111,-2,-57,-11
10,520,723688,246,-16467,1104,-2,-62,-7
10,521,723693,229,-16458,1109,-2,-62,-7
10,522,723698,151,-16470,1062,0,-64,-7
10,523,723703,88,-16493,1086,2,-66,-5
10,524,723708,94,-16467,1126,1,-71,-3
10,525,723713,131,-16477,1071,1,-72,-2
10,526,723718,50,-16460,1092,3,-65,-2
10,527,723723,60,-16442,1108,3,-62,-2
10,528,723728,112,-16461,1116,2,-61,-3
10,529,723733,158,-16468,1055,4,-58,-1
10,530,723738,171,-16466,1021,6,-56,-2
10,531,723743,135,-16446,993,4,-50,-4
10,532,723748,95,-16480,1019,6,-52,-1
10,533,723753,76,-16488,1037,7,-56,3
10,534,723758,132,-16525,930,7,-58,4
10,535,723763,276,-16514,944,8,-51,4
10,536,723768,325,-16478,1023,6,-44,3
10,537,723773,302,-16468,1082,9,-48,5
10,538,723778,256,-16490,1078,9,-64,9
10,539,723783,209,-16469,976,12,-74,14
10,540,723788,169,-16512,947,14,-73,17
10,541,723793,161,-16516,1013,12,-63,14
10,542,723798,214,-16455,1100,15,-59,20
10,543,723803,207,-16411,1241,15,-56,20
10,544,723808,135,-16378,1261,14,-57,20
10,545,723813,-32,-16425,1163,16,-53,17
10,546,723818,-219,-16479,1113,17,-43,16
10,547,723823,-347,-16501,1068,17,-30,13
10,548,723828,-349,-16518,1096,16,-12,11
10,549,723833,-343,-16532,1172,15,7,9
10,550,723838,-281,-16456,1315,12,21,4
10,551,723843,-315,-16411,1349,12,24,2
10,552,723848,-353,-16456,1345,13,26,2
10,553,723853,-321,-16483,1294,14,31,3
10,554,723858,-306,-16489,1326,12,36,-1
10,555,723863,-252,-16485,1334,11,40,-3
10,556,723868,-197,-16448,1391,14,32,-2
10,557,723873,-107,-16440,1416,11,19,-1
10,558,723878,-34,-16444,1402,12,4,1
10,559,723883,-35,-16439,1332,12,-8,2
10,560,723888,-105,-16439,1275,11,-15,4
10,561,723893,-84,-16450,1269,13,-26,6
10,562,723898,-26,-16459,1288,14,-42,9
10,563,723903,-17,-16449,1295,13,-54,12
10,564,723908,-4,-16431,1324,13,-59,14
10,565,723913,26,-16443,1344,14,-62,13
10,566,723918,18,-16410,1354,13,-68,14
10,567,723923,-45,-16455,1336,15,-72,15
10,568,723928,-29,-16450,1333,14,-70,13
10,569,723933,-21,-16429,1294,13,-69,15
10,570,723938,-53,-16421,1287,12,-67,15
10,571,723943,-140,-16437,1262,11,-67,15
10,572,723948,-193,-16481,1244,10,-62,14
10,573,723953,-179,-16490,1265,12,-55,14
10,574,723958,-149,-16467,1272,13,-43,14
10,575,723963,-204,-16470,1326,11,-29,8
10,576,723968,-284,-16419,1359,9,-21,4
10,577,723973,-283,-16446,1318,11,-17,4
10,578,723978,-328,-16511,1283,10,-9,3
10,579,723983,-261,-16500,1244,7,-1,3
10,580,723988,-202,-16438,1329,8,13,3
10,581,723993,-175,-16402,1492,7,23,0
10,582,723998,-147,-16394,1530,6,19,-2
10,583,724003,-129,-16452,1464,7,5,-1
10,584,724008,-108,-16444,1444,7,10,-5
10,585,724013,-196,-16419,1455,2,8,-1
10,586,724018,-289,-16404,1433,0,3,-2
10,587,724023,-406,-16447,1396,4,-8,-5
10,588,724028,-433,-16485,1321,5,-19,-3
10,589,724033,-398,-16466,1325,3,-18,0
10,590,724038,-324,-16463,1445,2,-14,0
10,591,724043,-248,-16438,1514,2,-12,-3
10,592,724048,-185,-16431,1573,3,-22,-2
10,593,724053,-203,-16442,1516,1,-37,-1
10,594,724058,-222,-16393,1419,1,-44,-2
10,595,724063,-217,-16447,1366,0,-53,-4
10,596,724068,-251,-16455,1361,0,-54,-3
10,597,724073,-286,-16463,1377,0,-57,-3
10,598,724078,-229,-16458,1393,1,-68,-2
10,599,724083,-174,-16461,1395,-1,-76,0
10,600,724088,-201,-16442,1356,-2,-84,2
10,601,724093,-234,-16444,1441,-1,-87,2
10,602,724098,-222,-16436,1380,-2,-92,-2
10,603,724103,-166,-16425,1391,-1,-100,-1
10,604,724108,-105,-16441,1415,-2,-99,1
10,605,724113,-104,-16456,1410,-4,-102,-2
10,606,724118,-104,-16443,1448,0,-110,1
10,607,724123,-118,-16462,1419,-2,-114,3
10,608,724128,-104,-16454,1359,-3,-113,3
10,609,724133,-128,-16425,1266,-2,-111,1
10,610,724138,-196,-16474,1250,-4,-109,-3
10,611,724143,-199,-16447,1223,-1,-107,1
10,612,724148,-252,-16477,1141,-1,-104,2
10,613,724153,-264,-16480,1183,-2,-105,-1
10,614,724158,-305,-16466,1120,-1,-100,-4
10,615,724163,-293,-16457,1114,-4,-96,-2
10,616,724168,-305,-16485,1145,0,-90,-6
10,617,724173,-241,-16506,1145,1,-86,-6
10,618,724178,-165,-16510,1147,0,-89,-6
10,619,724183,-98,-16481,1257,3,-85,-9
10,620,724188,-17,-16444,1268,1,-86,-5
10,621,724193,-19,-16421,1246,3,-86,-6
10,622,724198,-83,-16469,1215,3,-89,-6
10,623,724203,-113,-16494,1167,2,-95,-6
10,624,724208,-137,-16517,1131,3,-96,-5
10,625,724213,-96,-16498,1108,3,-94,-3
10,626,724218,-22,-16467,1129,2,-89,-4
10,627,724223,-1,-16456,1161,3,-83,-5
10,628,724228,48,-16464,1217,7,-87,-3
10,629,724233,58,-16454,1223,6,-89,-1
10,630,724238,37,-16490,1190,6,-84,-3
10,631,724243,71,-16476,1152,2,-75,-4
10,632,724248,114,-16497,1145,4,-62,-4
10,633,724253,75,-16455,1178,4,-47,-6
10,634,724258,16,-16448,1260,2,-42,-8
10,635,724263,31,-16446,1292,3,-38,-6
10,636,724268,70,-16477,1287,2,-31,-6
10,637,724273,127,-16445,1265,2,-9,-5
10,638,724278,213,-16441,1337,1,7,-9
10,639,724283,184,-16473,1503,0,16,-8
10,640,724288,203,-16411,1400,-3,8,-5
10,641,724293,32,-16414,1405,-2,12,-4
10,642,724298,-26,-16416,1217,-2,8,-6
10,643,724303,-26,-16464,1138,1,11,-7
10,644,724308,-8,-16517,1143,3,13,-4
10,645,724313,7,-16445,1243,1,12,-3
10,646,724318,35,-16402,1280,0,1,-2
10,647,724323,70,-16402,1339,-1,-11,0
10,648,724328,11,-16404,1318,4,-18,2
10,649,724333,-58,-16433,1322,3,-20,3
10,650,724338,-127,-16490,1293,3,-18,3
10,651,724343,-110,-16452,1271,3,-14,4
10,652,724348,-155,-16409,1326,0,-14,3
10,653,724353,-199,-16429,1314,0,-15,-1
10,654,724358,-325,-16422,1313,2,-17,-1
10,655,724363,-394,-16484,1223,3,-14,-1
10,656,724368,-315,-16482,1194,4,8,-6
10,657,724373,-248,-16456,1250,0,14,-7
10,658,724378,-227,-16419,1358,0,12,-6
10,659,724383,-236,-16461,1331,2,3,-8
10,660,724388,-192,-16443,1272,3,-1,-9
10,661,724393,-107,-16461,1318,2,-1,-7
10,662,724398,-80,-16417,1415,2,1,-4
10,663,724403,1,-16432,1396,1,1,-7
10,664,724408,15,-16449,1388,4,-12,-5
10,665,724413,28,-16453,1358,3,-24,-2
10,666,724418,-6,-16452,1247,3,-35,-2
10,667,724423,-20,-16444,1163,2,-37,-1
10,668,724428,-15,-16487,1127,2,-33,0
10,669,724433,-28,-16483,1118,2,-34,1
10,670,724438,-8,-16450,1190,2,-34,3
10,671,724443,25,-16403,1165,3,-35,4
10,672,724448,26,-16444,1205,4,-35,1
10,673,724453,-55,-16479,1194,3,-34,-1
10,674,724458,-123,-16442,1197,7,-33,0
10,675,724463,-119,-16469,1164,7,-29,0
10,676,724468,-82,-16489,1183,6,-20,-1
10,677,724473,-89,-16471,1277,5,-9,-3
10,678,724478,-128,-16426,1356,4,-5,-1
10,679,724483,-185,-16445,1338,5,-4,-1
10,680,724488,-247,-16458,1260,6,-5,-3
10,681,724493,-285,-16460,1247,4,-1,-3
10,682,724498,-207,-16463,1299,5,8,-3
10,683,724503,-142,-16436,1413,4,14,-6
10,684,724508,-107,-16426,1524,2,13,-6
10,685,724513,-49,-16402,1524,2,5,-7
10,686,724518,-13,-16398,1476,4,0,-4
10,687,724523,-8,-16434,1334,7,1,-5
10,688,724528,-39,-16469,1289,2,-1,-5
10,689,724533,-48,-16431,1354,1,0,-4
10,690,724538,-73,-16425,1320,0,-6,-2
10,691,724543,-73,-16439,1271,2,-13,-1
10,692,724548,-181,-16470,1234,3,-17,-2
10,693,724553,-241,-16496,1189,4,-17,0
10,694,724558,-200,-16507,1225,3,-13,-1
10,695,724563,-134,-16434,1286,3,-8,-1
10,696,724568,-121,-16420,1344,2,-6,-2
10,697,724573,-146,-16454,1396,2,-9,-2
10,698,724578,-153,-16454,1355,1,-17,-2
10,699,724583,-194,-16500,1303,2,-20,-1
10,700,724588,-175,-16487,1225,1,-11,0
10,701,724593,-169,-16449,1339,0,-5,-4
10,702,724598,-117,-16439,1393,2,-10,-4
10,703,724603,-73,-16414,1322,5,-16,-1
10,704,724608,-152,-16443,1324,2,-25,-1
10,705,724613,-202,-16458,1263,1,-26,-3
10,706,724618,-200,-16466,1235,1,-20,-3
10,707,724623,-101,-16467,1316,4,-15,-1
10,708,724628,-9,-16393,1438,3,-13,-6
10,709,724633,8,-16381,1444,3,-18,-4
10,710,724638,-37,-16404,1411,4,-24,-3
10,711,724643,-120,-16446,1269,1,-31,-4
10,712,724648,-213,-16491,1199,2,-32,-6
10,713,724653,-255,-16449,1212,3,-31,-4
10,714,724658,-210,-16496,1209,1,-31,-3
10,715,724663,-136,-16465,1286,0,-25,-1
10,716,724668,-74,-16423,1370,1,-21,-4
10,717,724673,-69,-16388,1403,2,-24,-2
10,718,724678,-108,-16414,1380,2,-30,-6
10,719,724683,-169,-16449,1352,0,-31,-3
10,720,724688,-211,-16477,1253,0,-25,-2
10,721,724693,-249,-16492,1252,-1,-21,-4
10,722,724698,-279,-16472,1299,1,-19,-9
10,723,724703,-234,-16448,1259,-1,-18,-7
10,724,724708,-194,-16466,1223,-2,-18,-7
10,725,724713,-111,-16458,1237,-1,-14,-10
10,726,724718,-64,-16452,1268,2,-13,-9
10,727,724723,-54,-16448,1319,0,-11,-7
10,728,724728,-32,-16427,1347,-1,-15,-6
10,729,724733,-45,-16429,1304,1,-21,-8
10,730,724738,-122,-16438,1230,2,-23,-6
10,731,724743,-136,-16503,1170,3,-23,-8
10,732,724748,-164,-16476,1226,4,-19,-8
10,733,724753,-111,-16489,1250,0,-18,-5
10,734,724758,-35,-16481,1309,0,-18,-6
10,735,724763,3,-16426,1338,1,-18,-7
10,736,724768,-3,-16429,1359,-1,-17,-7
10,737,724773,-17,-16486,1327,1,-17,-6
10,738,724778,-68,-16448,1264,-1,-18,-5
10,739,724783,-180,-16456,1284,0,-18,-5
10,740,724788,-163,-16485,1280,4,-22,-6
10,741,724793,-140,-16482,1213,3,-23,-5
10,742,724798,-78,-16432,1220,3,-18,-6
10,743,724803,-46,-16435,1251,1,-16,-7
10,744,724808,-15,-16439,1333,1,-18,-6
10,745,724813,-6,-16384,1325,2,-20,-5
10,746,724818,-16,-16436,1279,1,-24,-3
10,747,724823,-44,-16478,1263,3,-22,-3
10,748,724828,-121,-16458,1221,3,-22,-5
10,749,724833,-135,-16465,1281,1,-23,-3
10,750,724838,-91,-16440,1304,1,-22,-4
10,751,724843,-15,-16453,1296,4,-18,-4
10,752,724848,-10,-16439,1301,2,-17,-4
10,753,724853,2,-16447,1296,2,-17,-5
10,754,724858,2,-16493,1295,0,-17,-6
10,755,724863,41,-16449,1293,2,-18,-2
10,756,724868,-40,-16451,1254,3,-18,-3
10,757,724873,-84,-16461,1168,1,-14,-5
10,758,724878,-142,-16519,1139,2,-14,-5
10,759,724883,-91,-16497,1083,5,-14,-5
10,760,724888,-9,-16480,1162,5,-9,-3
10,761,724893,85,-16453,1275,3,-5,-3
10,762,724898,69,-16446,1363,3,-4,-3
10,763,724903,13,-16401,1343,3,-10,-5
10,764,724908,-114,-16481,1299,4,-15,-4
10,765,724913,-223,-16474,1267,2,-11,-3
10,766,724918,-243,-16510,1179,4,-2,-4
10,767,724923,-225,-16430,1252,4,5,-4
10,768,724928,-170,-16432,1349,3,5,-5
10,769,724933,-64,-16454,1437,2,7,-5
10,770,724938,-49,-16438,1402,3,2,-5
10,771,724943,-18,-16408,1395,3,0,-5
10,772,724948,-8,-16394,1392,2,0,-3
10,773,724953,-39,-16451,1332,3,4,-3
10,774,724958,-67,-16475,1337,3,1,-5
10,775,724963,-102,-16447,1302,3,-6,-3
10,776,724968,-154,-16468,1269,3,-6,0
10,777,724973,-241,-16491,1224,1,-10,-2
10,778,724978,-299,-16502,1246,1,-9,-6
10,779,724983,-277,-16470,1249,1,-5,-6
10,780,724988,-159,-16479,1294,1,0,-2
10,781,724993,-88,-16437,1395,0,3,-5
10,782,724998,-144,-16417,1511,2,1,-5
10,783,725003,-185,-16399,1465,2,-12,-4
10,784,725008,-184,-16430,1422,2,-20,-5
10,785,725013,-118,-16462,1315,2,-15,-5
10,786,725018,-77,-16458,1356,0,-9,-5
10,787,725023,-16,-16433,1495,-1,-5,-8
10,788,725028,37,-16394,1502,-1,-12,-6
10,789,725033,44,-16412,1484,0,-22,-3
10,790,725038,-32,-16433,1293,0,-29,-2
10,791,725043,-129,-16456,1114,0,-26,-4
10,792,725048,-260,-16469,1119,0,-19,-3
10,793,725053,-220,-16505,1124,-4,-16,-6
10,794,725058,-105,-16464,1075,-2,-16,-5
10,795,725063,36,-16506,1109,-1,-13,-4
10,796,725068,109,-16463,1201,1,-12,-4
10,797,725073,59,-16366,1308,2,-16,-6
10,798,725078,30,-16429,1238,-1,-22,0
10,799,725083,10,-16484,1134,3,-24,3
10,800,725088,-6,-16484,1159,4,-19,-1
10,801,725093,-78,-16498,1179,4,-10,-1
10,802,725098,-158,-16456,1231,4,-12,-2
10,803,725103,-174,-16509,1150,4,-15,-1
10,804,725108,-150,-16504,1218,4,-7,-2
10,805,725113,-80,-16443,1288,5,5,-4
10,806,725118,-54,-16417,1367,3,11,-6
10,807,725123,-50,-16391,1380,2,8,-4
10,808,725128,-22,-16430,1350,4,2,-3
10,809,725133,-45,-16447,1280,4,-2,-4
10,810,715138,-282,-16383,1420,-4,14,1
10,811,715143,-299,-16375,1410,-5,26,1
10,812,715148,-305,-16373,1388,-7,37,1
10,813,715153,-338,-16428,1393,-6,42,-1
10,814,715158,-338,-16431,1455,-5,44,1
10,815,715163,-330,-16399,1436,-5,45,0
10,816,715168,-374,-16348,1514,-6,46,-1
10,817,715173,-385,-16299,1543,-3,45,-2
10,818,715178,-335,-16260,1589,-4,42,1
10,819,715183,-332,-16244,1642,-3,37,0
10,820,715188,-297,-16174,1706,-2,30,-2
10,821,715193,-353,-16147,1761,-6,22,1
10,822,715198,-370,-16097,1738,-7,6,1
10,823,715203,-360,-16083,1741,-6,-6,-1
10,824,715208,-339,-16124,1742,-6,-17,0
10,825,715213,-340,-16153,1782,-7,-31,0
10,826,715218,-358,-16133,1768,-8,-47,2
10,827,715223,-364,-16150,1698,-10,-61,2
10,828,715228,-271,-16233,1673,-10,-83,0
10,829,715233,-253,-16296,1599,-8,-90,3
10,830,715238,-222,-16318,1530,-8,-95,2
10,831,715243,-186,-16347,1413,-11,-96,3
10,832,715248,-147,-16314,1332,-11,-92,3
10,833,715253,-181,-16355,1269,-9,-82,6
10,834,715258,-156,-16420,1198,-9,-73,6
10,835,715263,-177,-16483,1150,-9,-59,7
10,836,715268,-156,-16484,1151,-8,-40,3
10,837,715273,-216,-16543,1222,-6,-20,1
10,838,715278,-252,-16557,1242,-5,2,3
10,839,715283,-267,-16563,1222,-6,23,2
10,840,715288,-301,-16610,1217,-4,44,1
10,841,715293,-350,-16622,1313,-3,58,-3
10,842,715298,-408,-16654,1408,-3,65,-3
10,843,715303,-440,-16648,1482,-4,65,-6
10,844,715308,-470,-16683,1566,-2,59,-6
10,845,715313,-514,-16625,1617,-3,55,-9
10,846,715318,-525,-16631,1745,-5,49,-11
10,847,715323,-516,-16636,1828,-2,30,-8
10,848,715328,-453,-16600,1830,-3,4,-7
10,849,715333,-411,-16560,1843,-2,-19,-7
10,850,715338,-380,-16522,1858,-3,-41,-7
10,851,715343,-360,-16523,1789,-6,-67,-7
10,852,715348,-303,-16530,1773,-6,-82,-7
10,853,715353,-278,-16492,1704,-7,-92,-7
10,854,715358,-229,-16444,1624,-7,-100,-3
10,855,715363,-246,-16461,1562,-9,-100,-5
10,856,715368,-268,-16514,1423,-8,-95,-5
10,857,715373,-230,-16539,1356,-8,-85,-6
10,858,715378,-238,-16528,1374,-10,-63,-10
10,859,715383,-261,-16584,1315,-10,-48,-10
10,860,715388,-302,-16589,1347,-8,-29,-7
10,861,715393,-336,-16626,1358,-8,-7,-12
10,862,715398,-371,-16662,1318,-9,8,-15
10,863,715403,-395,-16692,1323,-9,23,-16
10,864,715408,-331,-16683,1413,-6,29,-16
10,865,715413,-342,-16685,1515,-6,27,-16
10,866,715418,-306,-16699,1589,-8,18,-16
10,867,715423,-282,-16665,1606,-7,4,-18
10,868,715428,-260,-16626,1593,-6,-5,-17
10,869,715433,-258,-16579,1586,-3,-19,-18
10,870,715438,-272,-16560,1582,-5,-32,-16
10,871,715443,-255,-16535,1662,-6,-50,-14
10,872,715448,-227,-16500,1586,-6,-65,-14
10,873,715453,-238,-16533,1523,-4,-74,-13
10,874,715458,-159,-16490,1462,-4,-73,-14
10,875,715463,-117,-16414,1500,-3,-74,-13
10,876,715468,-71,-16396,1496,-5,-71,-15
10,877,715473,-31,-16416,1402,-6,-67,-13
10,878,715478,-95,-16418,1332,-6,-61,-14
10,879,715483,-127,-16471,1272,-6,-46,-13
10,880,715488,-134,-16483,1268,-5,-29,-13
10,881,715493,-139,-16439,1280,-7,-6,-13
10,882,715498,-196,-16496,1315,-5,13,-13
10,883,715503,-220,-16505,1292,-1,33,-12
10,884,715508,-245,-16500,1282,-2,48,-15
10,885,715513,-273,-16533,1365,-5,66,-17
10,886,715518,-370,-16535,1453,-4,74,-18
10,887,715523,-373,-16562,1479,-2,72,-18
10,888,715528,-376,-16557,1454,-3,68,-17
10,889,715533,-332,-16568,1581,-2,53,-17
10,890,715538,-247,-16552,1662,-2,33,-13
10,891,715543,-206,-16563,1670,0,8,-14
10,892,715548,-169,-16531,1654,4,-16,-14
10,893,715553,-189,-16511,1629,4,-39,-10
10,894,715558,-246,-16495,1557,2,-54,-12
10,895,715563,-286,-16499,1480,0,-65,-9
10,896,715568,-291,-16475,1450,1,-70,-10
10,897,715573,-291,-16487,1407,1,-68,-12
10,898,715578,-270,-16490,1402,0,-65,-9
10,899,715583,-229,-16502,1369,2,-53,-9
10,900,715588,-209,-16556,1330,2,-34,-13
10,901,715593,-218,-16497,1321,3,-8,-11
10,902,715598,-220,-16480,1302,2,8,-12
10,903,715603,-205,-16482,1385,-1,24,-11
10,904,715608,-199,-16465,1423,0,36,-14
10,905,715613,-220,-16419,1492,5,48,-13
10,906,715618,-229,-16339,1538,2,55,-15
10,907,715623,-272,-16329,1543,3,55,-12
10,908,715628,-305,-16337,1541,4,51,-12
10,909,715633,-294,-16281,1556,4,42,-12
10,910,715638,-288,-16296,1569,5,30,-12
10,911,715643,-263,-16296,1643,3,16,-12
10,912,715648,-221,-16266,1657,4,-2,-10
10,913,715653,-183,-16297,1643,3,-21,-11
10,914,715658,-171,-16254,1564,3,-40,-9
10,915,715663,-229,-16262,1567,3,-51,-7
10,916,715668,-239,-16260,1514,3,-55,-8
10,917,715673,-205,-16207,1396,5,-61,-8
10,918,715678,-181,-16239,1359,6,-57,-4
10,919,715683,-172,-16232,1396,6,-51,-5
10,920,715688,-223,-16264,1375,3,-39,-6
10,921,715693,-266,-16270,1299,3,-25,-6
10,922,715698,-243,-16319,1265,4,-2,-7
10,923,715703,-243,-16324,1279,4,21,-8
10,924,715708,-252,-16338,1341,5,35,-9
10,925,715713,-257,-16367,1445,6,42,-10
10,926,715718,-224,-16372,1438,5,44,-11
10,927,715723,-242,-16362,1415,5,46,-9
10,928,715728,-324,-16372,1490,6,49,-10
10,929,715733,-351,-16374,1523,7,47,-11
10,930,715738,-361,-16365,1621,7,34,-10
10,931,715743,-311,-16386,1590,6,14,-10
10,932,715748,-305,-16420,1592,8,-4,-10
10,933,715753,-281,-16439,1617,9,-22,-9
10,934,715758,-237,-16444,1584,7,-36,-4
10,935,715763,-265,-16487,1516,9,-54,-5
10,936,715768,-326,-16492,1411,9,-64,-5
10,937,715773,-312,-16462,1346,9,-65,-4
10,938,715778,-266,-16459,1440,11,-58,-2
10,939,715783,-204,-16522,1446,9,-48,-6
10,940,715788,-158,-16483,1450,8,-33,-5
10,941,715793,-195,-16474,1415,10,-20,-5
10,942,715798,-203,-16479,1336,9,-5,-7
10,943,715803,-241,-16466,1266,7,9,-7
10,944,715808,-236,-16472,1329,10,25,-6
10,945,715813,-189,-16517,1360,8,40,-8
10,946,715818,-196,-16511,1474,8,53,-11
10,947,715823,-179,-16491,1505,8,65,-9
10,948,715828,-171,-16520,1434,9,69,-9
10,949,715833,-289,-16518,1472,10,69,-12
10,950,715838,-356,-16536,1524,10,68,-11
10,951,715843,-354,-16495,1576,9,55,-8
10,952,715848,-394,-16483,1676,10,43,-10
10,953,715853,-334,-16494,1662,9,29,-10
10,954,715858,-293,-16469,1676,8,13,-10
10,955,715863,-321,-16476,1695,9,1,-6
10,956,715868,-265,-16497,1709,9,-16,-5
10,957,715873,-310,-16484,1641,7,-27,-10
10,958,715878,-334,-16482,1607,7,-36,-8
10,959,715883,-302,-16471,1615,6,-36,-7
10,960,715888,-319,-16393,1555,6,-31,-7
10,961,715893,-289,-16403,1496,8,-25,-9
10,962,715898,-255,-16431,1475,6,-20,-11
10,963,715903,-217,-16396,1422,5,-12,-11
10,964,715908,-141,-16373,1361,3,-2,-12
10,965,715913,-109,-16353,1419,5,6,-9
10,966,715918,-152,-16336,1437,6,9,-10
10,967,715923,-187,-16379,1435,4,18,-10
10,968,715928,-206,-16441,1440,6,26,-9
10,969,715933,-211,-16427,1457,7,31,-10
10,970,715938,-197,-16441,1503,5,37,-13
10,971,715943,-185,-16411,1507,5,42,-10
10,972,715948,-198,-16427,1448,8,47,-10
10,973,715953,-250,-16423,1473,5,52,-15
10,974,715958,-325,-16350,1515,7,48,-11
10,975,715963,-253,-16388,1526,7,43,-11
10,976,715968,-227,-16339,1509,6,42,-13
10,977,715973,-180,-16305,1548,10,37,-12
10,978,715978,-67,-16327,1583,8,30,-12
10,979,715983,-71,-16323,1585,8,16,-11
10,980,715988,-56,-16274,1579,7,7,-7
10,981,715993,-47,-16264,1586,6,-5,-7
10,982,715998,-43,-16301,1512,6,-10,-6
10,983,716003,-78,-16289,1501,9,-10,-4
10,984,716008,-85,-16298,1513,8,-9,-3
10,985,716013,-89,-16327,1521,8,-8,-4
10,986,716018,-149,-16353,1524,7,0,-4
10,987,716023,-147,-16371,1452,7,12,-3
10,988,716028,-176,-16316,1362,6,28,-5
10,989,716033,-151,-16326,1411,8,41,-5
10,990,716038,-97,-16309,1418,6,48,-6
10,991,716043,-113,-16251,1457,7,50,-4
10,992,716048,-99,-16217,1499,6,51,-7
10,993,716053,-98,-16186,1493,6,51,-5
10,994,716058,-104,-16183,1533,6,51,-2
10,995,716063,-50,-16159,1610,7,47,-1
10,996,716068,19,-16142,1648,7,41,0
10,997,716073,1,-16148,1634,6,35,0
10,998,716078,-74,-16232,1650,7,28,7
10,999,716083,-105,-16320,1662,7,25,8
