event_id,seq,ts_ms,ax,ay,az,gx,gy,gz
7,0,1299656,3563,-16077,-1642,-6,-10,-23
7,1,1294661,-33,-16707,-2095,-33,-717,-92
7,2,1294666,70,-16671,-2143,-41,-691,-94
7,3,1294671,114,-16693,-2242,-47,-679,-95
7,4,1294676,-22,-16631,-2423,-55,-657,-100
7,5,1294681,-267,-16569,-2529,-62,-613,-106
7,6,1294686,-366,-16430,-2515,-69,-554,-113
7,7,1294691,-458,-16300,-2589,-77,-501,-114
7,8,1294696,-456,-16280,-2714,-82,-459,-122
7,9,1294701,-355,-16361,-2774,-87,-432,-124
7,10,1294706,-297,-16475,-2595,-94,-401,-127
7,11,1294711,-273,-16493,-2549,-97,-368,-135
7,12,1294716,-287,-16453,-2619,-100,-339,-141
7,13,1294721,-262,-16411,-2474,-104,-311,-142
7,14,1294726,-158,-16363,-2333,-106,-308,-144
7,15,1294731,33,-16360,-2064,-106,-312,-145
7,16,1294736,56,-16376,-1876,-106,-306,-147
7,17,1294741,-17,-16379,-2166,-109,-306,-145
7,18,1294746,-6,-16350,-2428,-111,-297,-142
7,19,1294751,313,-16324,-2542,-115,-296,-140
7,20,1294756,805,-16350,-2171,-121,-292,-134
7,21,1294761,1034,-16371,-1845,-125,-283,-136
7,22,1294766,949,-16369,-1995,-124,-273,-134
7,23,1294771,702,-16318,-2504,-128,-232,-136
7,24,1294776,587,-16124,-2523,-143,-95,-128
7,25,1294781,625,-16147,-2465,-150,-27,-126
7,26,1294786,672,-16237,-2593,-156,36,-124
7,27,1294791,604,-16280,-2643,-161,110,-126
7,28,1294796,526,-16256,-2527,-168,166,-125
7,29,1294801,492,-16174,-2420,-170,189,-122
7,30,1294806,529,-16234,-2408,-172,194,-116
7,31,1294811,579,-16435,-2316,-168,196,-109
7,32,1294816,898,-16508,-1931,-165,184,-105
7,33,1294821,987,-16532,-1655,-165,154,-103
7,34,1294826,939,-16536,-1741,-157,114,-99
7,35,1294831,894,-16549,-1827,-153,81,-90
7,36,1294836,949,-16639,-1650,-154,54,-83
7,37,1294841,1199,-16754,-1396,-149,20,-77
7,38,1294846,1477,-16809,-1481,-144,-1,-69
7,39,1294851,1622,-16821,-1778,-141,-8,-62
7,40,1294856,1510,-16748,-1839,-138,-17,-60
7,41,1294861,1448,-16557,-1965,-133,-53,-55
7,42,1294866,1440,-16295,-2064,-126,-91,-44
7,43,1294871,1435,-16179,-2066,-126,-110,-33
7,44,1294876,1371,-16129,-2106,-119,-112,-25
7,45,1294881,1232,-16121,-2224,-114,-107,-21
7,46,1294886,1139,-16029,-2410,-111,-103,-18
7,47,1294891,929,-15979,-2409,-109,-98,-15
7,48,1294896,901,-15965,-2359,-105,-100,-11
7,49,1294901,1080,-15880,-2373,-101,-104,-6
7,50,1294906,1239,-15842,-2469,-95,-96,-5
7,51,1294911,1122,-15864,-2547,-89,-78,-3
7,52,1294916,878,-15998,-2732,-85,-65,-1
7,53,1294921,750,-16059,-2892,-79,-53,0
7,54,1294926,885,-16154,-2947,-76,-26,7
7,55,1294931,1157,-16255,-2693,-73,5,8
7,56,1294936,1362,-16355,-2441,-69,21,4
7,57,1294941,1433,-16415,-2379,-64,30,5
7,58,1294946,1424,-16433,-2366,-58,39,10
7,59,1294951,1443,-16412,-2353,-55,54,16
7,60,1294956,1521,-16351,-2262,-49,68,21
7,61,1294961,1517,-16348,-2112,-47,77,24
7,62,1294966,1472,-16350,-2118,-40,79,28
7,63,1294971,1452,-16344,-2250,-33,82,33
7,64,1294976,1429,-16388,-2219,-32,91,36
7,65,1294981,1357,-16364,-2065,-26,87,38
7,66,1294986,1404,-16395,-2067,-19,70,44
7,67,1294991,1391,-16365,-2254,-13,59,46
7,68,1294996,1321,-16361,-2450,-9,51,49
7,69,1295001,1260,-16293,-2525,-3,41,55
7,70,1295006,1263,-16220,-2571,4,27,60
7,71,1295011,1188,-16254,-2706,8,24,60
7,72,1295016,1072,-16291,-2827,13,41,64
7,73,1295021,1010,-16291,-2923,17,75,64
7,74,1295026,1025,-16231,-2971,18,124,65
7,75,1295031,1124,-16234,-2972,23,164,65
7,76,1295036,1181,-16298,-2851,26,194,63
7,77,1295041,1149,-16280,-2770,28,217,63
7,78,1295046,1174,-16307,-2769,30,239,65
7,79,1295051,1230,-16279,-2667,34,261,68
7,80,1295056,1336,-16263,-2573,39,271,68
7,81,1295061,1360,-16297,-2487,47,265,71
7,82,1295066,1347,-16341,-2359,51,245,76
7,83,1295071,1339,-16315,-2326,56,228,78
7,84,1295076,1425,-16248,-2335,62,213,81
7,85,1295081,1476,-16298,-2354,65,199,82
7,86,1295086,1414,-16383,-2433,74,178,81
7,87,1295091,1414,-16416,-2502,82,159,84
7,88,1295096,1460,-16402,-2578,86,147,87
7,89,1295101,1428,-16417,-2501,89,143,86
7,90,1295106,1292,-16423,-2448,93,144,84
7,91,1295111,1187,-16425,-2577,96,149,84
7,92,1295116,1083,-16401,-2671,99,153,87
7,93,1295121,999,-16401,-2666,103,162,87
7,94,1295126,966,-16430,-2673,104,174,85
7,95,1295131,1022,-16421,-2595,107,176,81
7,96,1295136,1161,-16377,-2402,108,174,79
7,97,1295141,1199,-16257,-2408,115,184,76
7,98,1295146,1011,-16260,-2446,116,195,70
7,99,1295151,860,-16317,-2376,117,204,69
7,100,1295156,904,-16367,-2306,115,214,69
7,101,1295161,1058,-16396,-2229,114,224,67
7,102,1295166,1206,-16410,-2114,118,224,62
7,103,1295171,1275,-16468,-1886,117,218,61
7,104,1295176,1367,-16485,-1727,114,208,60
7,105,1295181,1449,-16541,-1658,115,201,62
7,106,1295186,1470,-16583,-1637,115,206,60
7,107,1295191,1294,-16576,-1592,111,219,56
7,108,1295196,1127,-16510,-1541,104,227,53
7,109,1295201,1065,-16419,-1503,99,226,55
7,110,1295206,1065,-16344,-1441,95,230,52
7,111,1295211,1108,-16270,-1377,92,233,53
7,112,1295216,1121,-16243,-1290,91,226,53
7,113,1295221,1049,-16306,-1211,88,208,48
7,114,1295226,1048,-16289,-1281,84,184,48
7,115,1295231,941,-16233,-1340,83,159,45
7,116,1295236,957,-16265,-1396,85,130,43
7,117,1295241,897,-16220,-1408,84,101,38
7,118,1295246,822,-16257,-1426,82,65,38
7,119,1295251,765,-16282,-1402,79,32,37
7,120,1295256,718,-16376,-1435,82,-5,37
7,121,1295261,797,-16536,-1518,82,-33,32
7,122,1295266,867,-16653,-1562,80,-55,27
7,123,1295271,856,-16762,-1586,79,-78,28
7,124,1295276,809,-16850,-1614,78,-103,24
7,125,1295281,721,-16797,-1781,79,-121,20
7,126,1295286,714,-16727,-1938,76,-116,14
7,127,1295291,800,-16698,-2044,72,-105,11
7,128,1295296,939,-16666,-2040,71,-97,11
7,129,1295301,984,-16629,-2035,65,-84,8
7,130,1295306,974,-16707,-2046,62,-57,0
7,131,1295311,885,-16776,-2033,57,-28,-4
7,132,1295316,939,-16772,-1961,51,3,-5
7,133,1295321,1062,-16740,-1844,46,30,-10
7,134,1295326,1117,-16696,-1725,43,50,-11
7,135,1295331,1037,-16692,-1723,36,66,-16
7,136,1295336,1044,-16652,-1685,32,76,-19
7,137,1295341,1054,-16661,-1620,28,77,-18
7,138,1295346,1030,-16637,-1565,25,69,-20
7,139,1295351,952,-16571,-1590,25,50,-23
7,140,1295356,927,-16532,-1638,22,28,-19
7,141,1295361,1027,-16619,-1604,21,13,-18
7,142,1295366,1216,-16624,-1586,20,-3,-18
7,143,1295371,1258,-16568,-1539,18,-18,-20
7,144,1295376,1189,-16592,-1646,17,-35,-21
7,145,1295381,1133,-16587,-1698,17,-51,-19
7,146,1295386,1046,-16527,-1711,16,-63,-22
7,147,1295391,1046,-16546,-1641,11,-72,-19
7,148,1295396,1132,-16575,-1698,11,-80,-18
7,149,1295401,1159,-16535,-1728,10,-84,-18
7,150,1295406,1082,-16367,-1760,8,-88,-21
7,151,1295411,1089,-16200,-1888,6,-95,-21
7,152,1295416,1199,-16150,-2122,6,-88,-12
7,153,1295421,1173,-16170,-2236,2,-66,-16
7,154,1295426,1038,-16172,-2074,-2,-50,-22
7,155,1295431,901,-16139,-2059,-3,-41,-21
7,156,1295436,951,-16091,-2158,-6,-19,-17
7,157,1295441,1008,-16063,-2103,-13,11,-20
7,158,1295446,952,-16035,-1883,-13,17,-20
7,159,1295451,912,-16010,-1809,-11,1,-21
7,160,1295456,909,-15995,-1905,-10,-19,-21
7,161,1295461,846,-15963,-1988,-11,-23,-20
7,162,1295466,782,-15906,-1959,-14,-22,-23
7,163,1295471,637,-15896,-1996,-9,-38,-24
7,164,1295476,570,-15922,-2198,-8,-58,-22
7,165,1295481,665,-15971,-2205,-10,-61,-23
7,166,1295486,858,-16061,-2017,-10,-53,-25
7,167,1295491,1033,-16092,-1885,-12,-52,-28
7,168,1295496,1092,-16177,-1892,-11,-51,-30
7,169,1295501,1054,-16228,-1889,-12,-41,-29
7,170,1295506,1022,-16252,-1800,-21,-2,-33
7,171,1295511,1007,-16381,-1844,-22,13,-32
7,172,1295516,999,-16439,-1772,-24,25,-31
7,173,1295521,1082,-16387,-1613,-28,26,-31
7,174,1295526,1161,-16321,-1522,-30,16,-29
7,175,1295531,1142,-16314,-1556,-31,5,-33
7,176,1295536,1045,-16290,-1697,-30,-2,-32
7,177,1295541,1024,-16290,-1739,-31,-13,-30
7,178,1295546,1005,-16267,-1726,-31,-36,-28
7,179,1295551,1183,-16248,-1739,-30,-48,-24
7,180,1295556,972,-16314,-1695,-31,-55,-27
7,181,1295561,793,-16471,-1950,-32,-66,-30
7,182,1295566,615,-16393,-2042,-31,-65,-27
7,183,1295571,801,-16316,-2073,-33,-52,-27
7,184,1295576,857,-16291,-1936,-35,-30,-25
7,185,1295581,1012,-16316,-1907,-35,-12,-29
7,186,1295586,1007,-16333,-2002,-39,1,-34
7,187,1295591,968,-16460,-1954,-38,12,-33
7,188,1295596,953,-16490,-1861,-42,21,-32
7,189,1295601,1055,-16452,-1829,-42,27,-33
7,190,1295606,1096,-16455,-1784,-43,31,-32
7,191,1295611,1107,-16462,-1795,-45,34,-28
7,192,1295616,978,-16496,-1737,-44,31,-29
7,193,1295621,1044,-16596,-1798,-42,23,-27
7,194,1295626,1034,-16566,-1803,-43,24,-27
7,195,1295631,1058,-16567,-1726,-45,31,-27
7,196,1295636,953,-16513,-1600,-48,34,-30
7,197,1295641,981,-16441,-1710,-46,26,-32
7,198,1295646,1019,-16431,-1997,-44,24,-27
7,199,1295651,1137,-16461,-2065,-45,32,-23
7,200,1295656,1083,-16436,-1786,-48,31,-27
7,201,1295661,997,-16394,-1694,-45,5,-27
7,202,1295666,949,-16389,-1897,-42,-9,-23
7,203,1295671,985,-16343,-2032,-44,6,-21
7,204,1295676,1020,-16296,-1903,-45,22,-26
7,205,1295681,937,-16209,-1813,-41,5,-24
7,206,1295686,961,-16188,-1844,-40,-14,-20
7,207,1295691,911,-16178,-1890,-40,-18,-22
7,208,1295696,963,-16191,-1865,-43,-7,-23
7,209,1295701,983,-16178,-1890,-41,-3,-25
7,210,1295706,1034,-16207,-2041,-38,-10,-24
7,211,1295711,1034,-16269,-2037,-39,-10,-25
7,212,1295716,1017,-16271,-1939,-40,-3,-24
7,213,1295721,884,-16317,-1837,-38,-1,-21
7,214,1295726,1004,-16333,-1903,-36,-11,-19
7,215,1295731,1094,-16276,-1906,-37,-13,-19
7,216,1295736,1237,-16261,-1870,-30,-14,-16
7,217,1295741,1279,-16268,-1787,-32,-17,-19
7,218,1295746,1216,-16338,-1799,-32,-21,-18
7,219,1295751,1169,-16369,-1785,-31,-24,-19
7,220,1295756,1193,-16347,-1754,-30,-24,-13
7,221,1295761,1299,-16308,-1766,-30,-23,-11
7,222,1295766,1268,-16224,-1791,-31,-17,-15
7,223,1295771,1216,-16158,-1871,-30,-19,-13
7,224,1295776,1164,-16107,-1917,-28,-23,-10
7,225,1295781,1066,-16087,-1986,-27,-23,-7
7,226,1295786,1077,-16064,-2016,-28,-23,-7
7,227,1295791,1131,-16021,-2113,-27,-20,-8
7,228,1295796,1107,-16002,-2217,-24,-14,-8
7,229,1295801,1062,-15998,-2267,-23,-11,-7
7,230,1295806,974,-16023,-2175,-25,-11,-6
7,231,1295811,973,-16011,-2187,-25,-8,-8
7,232,1295816,1094,-15999,-2368,-20,5,-4
7,233,1295821,1265,-16053,-2547,-18,31,-6
7,234,1295826,1278,-16127,-2395,-21,54,-9
7,235,1295831,1199,-16213,-2135,-21,62,-8
7,236,1295836,1163,-16255,-2140,-18,62,-9
7,237,1295841,1175,-16312,-2152,-17,80,-6
7,238,1295846,1276,-16301,-1921,-19,104,-9
7,239,1295851,1280,-16336,-1666,-20,109,-7
7,240,1295856,1270,-16403,-1649,-16,91,-6
7,241,1295861,1276,-16412,-1680,-14,80,-3
7,242,1295866,1261,-16373,-1674,-17,84,-6
7,243,1295871,1292,-16278,-1623,-13,78,-6
7,244,1295876,1207,-16255,-1796,-14,44,-1
7,245,1295881,1138,-16305,-1837,-13,43,0
7,246,1295886,1161,-16315,-1837,-14,49,-1
7,247,1295891,1144,-16277,-1888,-13,48,-3
7,248,1295896,1104,-16251,-1931,-13,45,-3
7,249,1295901,1090,-16204,-2007,-11,39,-3
7,250,1295906,1113,-16153,-1955,-6,35,-1
7,251,1295911,1118,-16130,-1908,-7,35,1
7,252,1295916,1148,-16168,-1944,-7,30,0
7,253,1295921,1165,-16219,-1930,-3,32,-1
7,254,1295926,1144,-16275,-1878,-2,26,-2
7,255,1295931,1132,-16301,-1856,-3,22,-3
7,256,1295936,1178,-16331,-1756,-1,17,-3
7,257,1295941,1205,-16338,-1780,2,14,-2
7,258,1295946,1225,-16363,-1875,2,15,-8
7,259,1295951,1177,-16327,-1873,4,15,-8
7,260,1295956,1146,-16356,-1903,6,2,-7
7,261,1295961,1119,-16369,-1917,8,-8,-4
7,262,1295966,1229,-16340,-1911,9,-12,-3
7,263,1295971,1234,-16332,-1901,11,-10,-5
7,264,1295976,1145,-16371,-1966,12,-8,-7
7,265,1295981,1096,-16365,-2072,13,-10,-11
7,266,1295986,1078,-16309,-2101,13,-11,-6
7,267,1295991,1115,-16291,-2057,16,-11,-4
7,268,1295996,1212,-16293,-2024,17,-10,-10
7,269,1296001,1209,-16348,-2082,18,-13,-11
7,270,1296006,1199,-16398,-2172,23,-17,-10
7,271,1296011,1148,-16366,-2227,23,-18,-7
7,272,1296016,1198,-16382,-2227,21,-8,-8
7,273,1296021,1193,-16383,-2166,24,-5,-11
7,274,1296026,1151,-16379,-2152,29,-5,-11
7,275,1296031,1151,-16361,-2158,29,2,-11
7,276,1296036,1066,-16336,-2193,29,11,-14
7,277,1296041,1060,-16329,-2102,30,21,-16
7,278,1296046,1098,-16333,-2107,31,29,-16
7,279,1296051,1158,-16341,-2083,31,36,-16
7,280,1296056,1114,-16355,-1980,29,42,-17
7,281,1296061,1122,-16327,-1951,32,38,-20
7,282,1296066,1152,-16332,-1926,35,33,-19
7,283,1296071,1223,-16328,-1921,34,33,-19
7,284,1296076,1173,-16312,-1899,36,27,-19
7,285,1296081,1160,-16309,-1884,35,16,-21
7,286,1296086,1093,-16265,-1845,36,1,-22
7,287,1296091,1047,-16233,-1889,41,-15,-25
7,288,1296096,1109,-16154,-2010,44,-18,-20
7,289,1296101,1269,-16201,-2254,47,-19,-16
7,290,1296106,1225,-16280,-2213,45,-13,-19
7,291,1296111,1052,-16282,-1940,43,-18,-24
7,292,1296116,1029,-16277,-1906,45,-30,-23
7,293,1296121,1144,-16291,-2113,45,-16,-22
7,294,1296126,1264,-16267,-2060,46,16,-24
7,295,1296131,1241,-16239,-1953,43,21,-23
7,296,1296136,1154,-16283,-1875,41,7,-24
7,297,1296141,1163,-16323,-1990,43,0,-23
7,298,1296146,1208,-16285,-1991,41,14,-22
7,299,1296151,1198,-16297,-1788,40,24,-25
7,300,1296156,1182,-16278,-1759,43,17,-23
7,301,1296161,1196,-16258,-1865,44,3,-21
7,302,1296166,1183,-16270,-1933,44,6,-21
7,303,1296171,1189,-16223,-1854,41,16,-24
7,304,1296176,1211,-16168,-1840,40,11,-22
7,305,1296181,1155,-16203,-1871,40,0,-21
7,306,1296186,1172,-16215,-1977,41,-8,-22
7,307,1296191,1085,-16169,-2008,42,-5,-22
7,308,1296196,1049,-16194,-2012,40,3,-20
7,309,1296201,1066,-16262,-2029,40,5,-20
7,310,1296206,1119,-16271,-1999,37,8,-23
7,311,1296211,1198,-16307,-1985,37,16,-22
7,312,1296216,1208,-16287,-2033,37,22,-23
7,313,1296221,1187,-16327,-2001,35,28,-20
7,314,1296226,1163,-16312,-1993,34,35,-20
7,315,1296231,1181,-16296,-1947,34,39,-20
7,316,1296236,1161,-16315,-1903,31,45,-19
7,317,1296241,1196,-16341,-1904,30,38,-19
7,318,1296246,1183,-16273,-1879,29,38,-20
7,319,1296251,1211,-16217,-1887,31,28,-18
7,320,1296256,1148,-16248,-1833,27,20,-17
7,321,1296261,1122,-16279,-1799,28,13,-15
7,322,1296266,1121,-16328,-1744,26,7,-15
7,323,1296271,1128,-16337,-1727,25,8,-15
7,324,1296276,1134,-16331,-1740,24,10,-16
7,325,1296281,1098,-16285,-1788,22,13,-16
7,326,1296286,1071,-16266,-1803,24,12,-13
7,327,1296291,1088,-16262,-1817,20,11,-13
7,328,1296296,1068,-16266,-1840,19,6,-15
7,329,1296301,1058,-16247,-1880,18,-2,-15
7,330,1296306,1052,-16201,-1822,16,-7,-12
7,331,1296311,1131,-16248,-1897,19,-14,-11
7,332,1296316,1146,-16260,-1936,19,-18,-11
7,333,1296321,1112,-16267,-1988,18,-19,-14
7,334,1296326,1096,-16281,-2000,17,-22,-11
7,335,1296331,1135,-16346,-1982,15,-20,-11
7,336,1296336,1283,-16341,-1948,13,-16,-12
7,337,1296341,1284,-16379,-1961,13,-5,-7
7,338,1296346,1240,-16401,-1930,14,0,-7
7,339,1296351,1180,-16387,-1886,11,2,-7
7,340,1296356,1143,-16374,-1879,8,2,-7
7,341,1296361,1129,-16363,-1878,8,6,-7
7,342,1296366,1114,-16362,-1896,8,5,-4
7,343,1296371,1152,-16351,-1890,9,-5,-5
7,344,1296376,1171,-16345,-1912,9,-12,-4
7,345,1296381,1114,-16306,-1948,10,-17,-2
7,346,1296386,1121,-16313,-1952,9,-21,-2
7,347,1296391,1132,-16287,-1992,7,-27,-3
7,348,1296396,1109,-16252,-2093,11,-36,-1
7,349,1296401,1255,-16191,-1999,12,-31,-1
7,350,1296406,1008,-16262,-1913,8,-33,1
7,351,1296411,1076,-16329,-2051,10,-45,0
7,352,1296416,1042,-16299,-2040,13,-45,1
7,353,1296421,1256,-16321,-2059,12,-43,3
7,354,1296426,1351,-16301,-1968,12,-38,2
7,355,1296431,1266,-16370,-2016,10,-40,3
7,356,1296436,1168,-16451,-2033,14,-48,3
7,357,1296441,1117,-16439,-1957,13,-53,7
7,358,1296446,1237,-16455,-1855,12,-49,6
7,359,1296451,1347,-16404,-1777,9,-42,6
7,360,1296456,1325,-16399,-1834,11,-46,8
7,361,1296461,1226,-16371,-1952,13,-50,10
7,362,1296466,1186,-16343,-2038,11,-52,10
7,363,1296471,1176,-16284,-2018,12,-49,10
7,364,1296476,1196,-16232,-1983,10,-41,10
7,365,1296481,1146,-16236,-2030,11,-39,13
7,366,1296486,1073,-16233,-2091,12,-29,13
7,367,1296491,1059,-16217,-2137,10,-10,10
7,368,1296496,1111,-16189,-2046,6,11,11
7,369,1296501,1125,-16192,-2046,5,25,11
7,370,1296506,1161,-16240,-2085,6,32,9
7,371,1296511,1182,-16291,-2027,4,38,11
7,372,1296516,1155,-16329,-1811,1,48,9
7,373,1296521,1135,-16290,-1720,2,45,4
7,374,1296526,1210,-16243,-1819,5,40,10
7,375,1296531,1369,-16343,-2033,5,43,11
7,376,1296536,1396,-16462,-1893,4,46,10
7,377,1296541,1296,-16488,-1586,3,28,7
7,378,1296546,1169,-16445,-1529,6,0,11
7,379,1296551,1247,-16443,-1793,7,-4,14
7,380,1296556,1273,-16403,-1823,6,14,10
7,381,1296561,1205,-16351,-1695,5,12,10
7,382,1296566,1182,-16290,-1673,6,-19,14
7,383,1296571,1137,-16227,-1830,8,-31,14
7,384,1296576,1049,-16196,-1867,7,-18,10
7,385,1296581,1009,-16259,-1785,1,-2,9
7,386,1296586,1022,-16239,-1780,1,-1,9
7,387,1296591,1056,-16213,-1836,2,-3,7
7,388,1296596,1015,-16197,-1908,1,8,3
7,389,1296601,1022,-16165,-1813,-1,19,1
7,390,1296606,1118,-16208,-1879,-1,4,4
7,391,1296611,1209,-16325,-1870,-3,8,5
7,392,1296616,1161,-16363,-1810,-1,11,3
7,393,1296621,1173,-16397,-1809,-3,17,-1
7,394,1296626,1216,-16443,-1845,-5,16,1
7,395,1296631,1315,-16447,-1772,-4,15,1
7,396,1296636,1317,-16426,-1647,-7,15,3
7,397,1296641,1218,-16393,-1616,-4,5,1
7,398,1296646,1178,-16293,-1749,-1,-1,-1
7,399,1296651,1197,-16290,-1866,-2,0,2
7,400,1296656,1178,-16348,-1829,-5,1,2
7,401,1296661,1090,-16329,-1721,-5,-5,1
7,402,1296666,1120,-16294,-1773,-3,-18,1
7,403,1296671,1132,-16287,-1894,-2,-22,0
7,404,1296676,1070,-16267,-1917,-3,-19,0
7,405,1296681,1022,-16278,-1856,-4,-22,-3
7,406,1296686,1044,-16231,-1816,-3,-36,0
7,407,1296691,1102,-16229,-1891,-1,-40,0
7,408,1296696,1111,-16268,-1876,-1,-35,-4
7,409,1296701,1025,-16269,-1787,-6,-34,-2
7,410,1296706,978,-16229,-1864,-1,-38,-1
7,411,1296711,944,-16229,-2057,1,-36,-1
7,412,1296716,983,-16274,-2185,-2,-28,1
7,413,1296721,948,-16301,-2026,-3,-21,-2
7,414,1296726,919,-16374,-1872,-1,-30,-1
7,415,1296731,913,-16425,-1912,1,-38,0
7,416,1296736,906,-16511,-2019,-1,-24,3
7,417,1296741,817,-16595,-1776,-3,-8,-1
7,418,1296746,631,-16640,-1532,-5,-17,-2
7,419,1296751,524,-16679,-1533,-2,-46,3
7,420,1296756,501,-16646,-1612,2,-67,6
7,421,1296761,598,-16536,-1486,3,-94,8
7,422,1296766,749,-16452,-1209,5,-145,11
7,423,1296771,810,-16489,-1094,10,-217,19
7,424,1296776,743,-16571,-1091,15,-280,25
7,425,1296781,645,-16681,-1046,15,-309,29
7,426,1296786,438,-16812,-892,12,-328,33
7,427,1296791,606,-16828,-968,14,-356,40
7,428,1296796,612,-16813,-1151,14,-382,47
7,429,1296801,708,-16722,-1097,12,-404,54
7,430,1296806,563,-16644,-907,11,-433,64
7,431,1296811,495,-16522,-1054,15,-468,77
7,432,1296816,557,-16442,-1499,15,-480,89
7,433,1296821,502,-16335,-1701,11,-465,95
7,434,1296826,-42,-16296,-1661,7,-458,99
7,435,1296831,-670,-16289,-1685,8,-475,109
7,436,1296836,-976,-16219,-1812,9,-476,123
7,437,1296841,-905,-16232,-1740,4,-437,135
7,438,1296846,-832,-16284,-1429,1,-387,138
7,439,1296851,-620,-16328,-1383,3,-382,144
7,440,1296856,-354,-16289,-1614,7,-412,159
7,441,1296861,-147,-16293,-1759,11,-433,172
7,442,1296866,-158,-16343,-1708,14,-444,181
7,443,1296871,-572,-16370,-1936,18,-461,195
7,444,1296876,-710,-16208,-2461,20,-456,208
7,445,1296881,-800,-16058,-2289,18,-402,225
7,446,1296886,-852,-15867,-2285,17,-331,239
7,447,1296891,-718,-15924,-2810,16,-236,252
7,448,1296896,-823,-15957,-3105,10,-121,262
7,449,1296901,-981,-15983,-2569,1,-22,268
7,450,1296906,-1290,-16058,-2070,-5,37,281
7,451,1296911,-1408,-16163,-2221,0,91,299
7,452,1296916,-1336,-16238,-2330,-2,178,316
7,453,1296921,-1130,-16199,-2013,-5,250,328
7,454,1296926,-998,-16160,-1574,-2,260,347
7,455,1296931,-946,-16178,-1528,2,217,370
7,456,1296936,-183,-16748,-1049,12,202,388
7,457,1296941,-1219,-16419,-1929,19,214,401
7,458,1296946,-1345,-16590,-2824,25,236,423
7,459,1296951,-3005,-15968,-1765,10,263,428
7,460,1296956,-1905,-15886,-874,20,217,467
7,461,1296961,-853,-16046,-1155,38,212,496
7,462,1296966,-142,-16538,-2088,51,250,502
7,463,1296971,-1470,-16444,-1425,53,153,532
7,464,1296976,-1619,-16302,-1395,68,58,570
7,465,1296981,-1507,-16221,-2060,77,94,590
7,466,1296986,-1277,-16237,-2351,76,221,603
7,467,1296991,-1239,-16226,-2256,74,285,618
7,468,1296996,-1249,-16191,-2006,81,266,637
7,469,1297001,-1471,-16203,-1838,90,243,656
7,470,1297006,-1608,-16284,-1875,91,289,671
7,471,1297011,-1582,-16447,-1863,94,364,689
7,472,1297016,-1382,-16568,-1819,96,400,704
7,473,1297021,-1220,-16612,-1656,98,395,717
7,474,1297026,-1064,-16608,-1560,109,374,741
7,475,1297031,-1091,-16595,-1469,114,377,758
7,476,1297036,-1302,-16645,-1440,118,375,767
7,477,1297041,-1417,-16654,-1426,126,344,784
7,478,1297046,-1245,-16586,-1709,135,312,807
7,479,1297051,-1048,-16484,-1898,143,311,821
7,480,1297056,-1208,-16351,-1815,149,338,827
7,481,1297061,-1447,-16387,-1754,150,355,837
7,482,1297066,-1572,-16500,-1862,154,356,854
7,483,1297071,-1360,-16584,-2132,159,389,861
7,484,1297076,-1076,-16577,-2043,156,457,864
7,485,1297081,-1079,-16600,-1548,154,503,864
7,486,1297086,-1112,-16644,-1022,159,488,867
7,487,1297091,-1175,-16493,-711,164,448,875
7,488,1297096,-2091,-16135,-179,168,418,881
7,489,1297101,-2988,-16032,-520,176,358,888
7,490,1297106,-2242,-16153,-1115,186,292,900
7,491,1297111,-832,-16147,-1046,190,242,906
7,492,1297116,-364,-16193,-258,196,168,901
7,493,1297121,-1144,-16349,-183,213,39,892
7,494,1297126,-1877,-16516,-1264,229,-58,893
7,495,1297131,-1823,-16409,-1863,232,-36,897
7,496,1297136,-1337,-16249,-1485,222,53,887
7,497,1297141,-1079,-16252,-991,222,90,875
7,498,1297146,-916,-16395,-1170,225,72,865
7,499,1297151,-778,-16395,-1318,225,83,858
7,500,1297156,-804,-16303,-962,221,128,842
7,501,1297161,-963,-16197,-719,219,148,827
7,502,1297166,-1075,-16170,-946,221,126,820
7,503,1297171,-1218,-16208,-943,222,102,809
7,504,1297176,-1319,-16220,-883,224,83,796
7,505,1297181,-1180,-16362,-901,229,59,786
7,506,1297186,-1046,-16555,-1220,232,36,771
7,507,1297191,-921,-16694,-1579,235,16,752
7,508,1297196,-722,-16781,-1870,240,12,734
7,509,1297201,-535,-16866,-2139,241,32,714
7,510,1297206,-624,-16894,-2222,240,79,693
7,511,1297211,-1046,-16793,-2079,234,140,667
7,512,1297216,-1438,-16735,-1911,228,198,646
7,513,1297221,-1357,-16594,-1825,221,272,623
7,514,1297226,-984,-16459,-1646,214,357,599
7,515,1297231,-731,-16392,-1199,207,416,569
7,516,1297236,-707,-16313,-822,202,423,544
7,517,1297241,-700,-16299,-643,200,396,521
7,518,1297246,-580,-16310,-581,198,367,499
7,519,1297251,-458,-16343,-393,196,338,477
7,520,1297256,-339,-16411,-189,198,298,452
7,521,1297261,-142,-16393,-131,199,239,434
7,522,1297266,-85,-16368,-382,200,176,411
7,523,1297271,-173,-16436,-727,203,130,385
7,524,1297276,-268,-16524,-1108,203,98,361
7,525,1297281,-164,-16479,-1378,200,74,337
7,526,1297286,33,-16498,-1577,198,58,316
7,527,1297291,145,-16525,-1658,196,58,288
7,528,1297296,26,-16566,-1621,194,68,261
7,529,1297301,-113,-16559,-1652,191,95,234
7,530,1297306,-108,-16507,-1733,186,137,202
7,531,1297311,-17,-16462,-1783,177,197,174
7,532,1297316,86,-16448,-1575,169,255,139
7,533,1297321,270,-16445,-1403,164,276,115
7,534,1297326,409,-16300,-1282,157,294,87
7,535,1297331,255,-16245,-1173,149,325,49
7,536,1297336,141,-16355,-1233,145,342,18
7,537,1297341,111,-16429,-852,136,334,-43
7,538,1297346,74,-16518,-442,135,300,-76
7,539,1297351,-108,-16577,-377,136,256,-110
7,540,1297356,-206,-16603,-818,138,212,-141
7,541,1297361,-126,-16548,-1227,135,169,-175
7,542,1297366,198,-16562,-1420,133,110,-205
7,543,1297371,594,-16557,-1585,134,45,-234
7,544,1297376,883,-16665,-1651,132,4,-268
7,545,1297381,880,-16737,-1604,129,-4,-306
7,546,1297386,665,-16701,-1670,123,19,-349
7,547,1297391,326,-16594,-1764,113,60,-391
7,548,1297396,-16,-16514,-1757,104,111,-430
7,549,1297401,-170,-16428,-1780,93,158,-470
7,550,1297406,-282,-16365,-1580,75,202,-512
7,551,1297411,-304,-16324,-1333,66,230,-556
7,552,1297416,-187,-16288,-1279,62,233,-596
7,553,1297421,19,-16306,-1192,55,230,-636
7,554,1297426,106,-16391,-1122,50,217,-679
7,555,1297431,-8,-16531,-1174,41,193,-719
7,556,1297436,-125,-16734,-968,31,172,-759
7,557,1297441,-135,-16930,-448,19,147,-799
7,558,1297446,55,-16955,-49,9,116,-843
7,559,1297451,434,-17045,-6,8,68,-878
7,560,1297456,769,-17093,-208,2,1,-917
7,561,1297461,1008,-17136,-382,-2,-95,-958
7,562,1297466,827,-17142,-517,-6,-211,-989
7,563,1297471,1014,-17280,-583,-13,-326,-1014
7,564,1297476,1055,-17342,-839,-21,-388,-1046
7,565,1297481,1158,-17412,-1060,-32,-402,-1082
7,566,1297486,1069,-17422,-1298,-46,-399,-1117
7,567,1297491,999,-17434,-1536,-62,-390,-1151
7,568,1297496,960,-17382,-1733,-75,-368,-1189
7,569,1297501,983,-17304,-1688,-92,-341,-1223
7,570,1297506,1006,-17245,-1606,-110,-321,-1255
7,571,1297511,1036,-17216,-1693,-124,-311,-1283
7,572,1297516,954,-17272,-1746,-137,-293,-1314
7,573,1297521,621,-17339,-1794,-148,-273,-1345
7,574,1297526,222,-17341,-1987,-161,-257,-1375
7,575,1297531,69,-17286,-2201,-176,-244,-1406
7,576,1297536,140,-17270,-2156,-188,-229,-1430
7,577,1297541,521,-17386,-1991,-199,-217,-1457
7,578,1297546,865,-17530,-1764,-212,-210,-1490
7,579,1297551,1044,-17537,-1587,-219,-208,-1521
7,580,1297556,1021,-17529,-1595,-225,-204,-1544
7,581,1297561,1105,-17534,-1871,-233,-195,-1565
7,582,1297566,1246,-17526,-1836,-248,-170,-1589
7,583,1297571,962,-17453,-1541,-261,-157,-1611
7,584,1297576,478,-17384,-1529,-272,-164,-1631
7,585,1297581,300,-17310,-1730,-280,-157,-1644
7,586,1297586,637,-17274,-1738,-293,-123,-1657
7,587,1297591,1130,-17403,-1382,-308,-87,-1672
7,588,1297596,1309,-17542,-1205,-316,-93,-1689
7,589,1297601,1184,-17599,-1179,-321,-137,-1701
7,590,1297606,1060,-17615,-1249,-328,-180,-1704
7,591,1297611,1321,-17651,-1237,-338,-204,-1703
7,592,1297616,1696,-17817,-1199,-344,-223,-1703
7,593,1297621,1859,-18016,-1037,-350,-268,-1708
7,594,1297626,1785,-18123,-731,-353,-335,-1704
7,595,1297631,1633,-17984,-615,-357,-412,-1693
7,596,1297636,1562,-18226,-973,-361,-467,-1678
7,597,1297641,1656,-18539,-662,-366,-503,-1672
7,598,1297646,1846,-15297,-1028,-375,-573,-1659
7,599,1297651,103,-2492,-14351,-232,-774,-1532
7,600,1297656,-8805,3978,201,-745,2337,-1921
7,601,1297661,17897,-15605,7313,-782,5174,-270
7,602,1297666,-5924,1013,28229,-742,7508,-1709
7,603,1297671,14512,-13969,31549,-177,3336,-1571
7,604,1297676,-7904,-17933,22625,36,-3168,-1328
7,605,1297681,-9293,-20954,-2217,316,-7252,-689
7,606,1297686,-206,-15837,-16845,154,-6460,-685
7,607,1297691,-1346,-11772,-9371,-85,-2943,-1058
7,608,1297696,2455,-19504,-6823,-265,-1191,-1132
7,609,1297701,-3351,-17087,3974,-389,-1061,-1252
7,610,1297706,666,-15921,-10185,-251,-1863,-1094
7,611,1297711,-191,-16619,-7516,-358,-530,-1174
7,612,1297716,-1979,-16223,24,-400,297,-1178
7,613,1297721,1082,-16098,86,-399,-189,-1046
7,614,1297726,3535,-16698,-3391,-383,-777,-964
7,615,1297731,2415,-16474,-4141,-379,-787,-1001
7,616,1297736,392,-16910,-1291,-368,-552,-987
7,617,1297741,-620,-16774,-61,-333,-572,-945
7,618,1297746,689,-16367,-2369,-287,-873,-896
7,619,1297751,1922,-16385,-4676,-297,-965,-886
7,620,1297756,1390,-16337,-3307,-332,-733,-910
7,621,1297761,870,-16309,-1481,-348,-585,-886
7,622,1297766,970,-16067,-1007,-329,-579,-839
7,623,1297771,1229,-15882,-2204,-309,-635,-794
7,624,1297776,1411,-15952,-2652,-306,-600,-753
7,625,1297781,1049,-15778,-1684,-312,-502,-729
7,626,1297786,976,-15595,-1128,-309,-504,-699
7,627,1297791,1143,-15490,-1301,-295,-557,-665
7,628,1297796,1330,-15307,-1825,-283,-620,-636
7,629,1297801,1454,-15286,-1992,-274,-655,-606
7,630,1297806,1302,-15257,-1840,-259,-670,-582
7,631,1297811,1339,-15277,-1933,-246,-698,-551
7,632,1297816,1289,-15173,-2095,-241,-704,-516
7,633,1297821,1328,-15292,-2428,-230,-695,-482
7,634,1297826,1410,-15334,-2588,-222,-666,-449
7,635,1297831,1583,-15224,-2769,-216,-629,-419
7,636,1297836,1515,-15244,-2747,-208,-574,-395
7,637,1297841,1491,-15374,-2739,-200,-525,-366
7,638,1297846,1684,-15393,-2611,-188,-472,-338
7,639,1297851,1879,-15345,-2499,-182,-421,-316
7,640,1297856,1860,-15403,-2290,-172,-380,-291
7,641,1297861,1755,-15431,-2244,-161,-355,-265
7,642,1297866,1828,-15356,-2247,-152,-330,-239
7,643,1297871,1965,-15294,-2172,-135,-311,-210
7,644,1297876,2125,-15324,-2130,-124,-300,-185
7,645,1297881,2108,-15371,-2213,-113,-297,-162
7,646,1297886,2136,-15497,-2292,-99,-296,-132
7,647,1297891,2321,-15459,-2467,-87,-277,-105
7,648,1297896,2545,-15492,-2498,-77,-240,-87
7,649,1297901,2596,-15531,-2438,-63,-222,-67
7,650,1297906,2600,-15561,-2558,-50,-227,-45
7,651,1297911,2744,-15530,-2755,-34,-231,-24
7,652,1297916,2970,-15482,-2822,-24,-214,-1
7,653,1297921,2938,-15487,-2697,-17,-175,14
7,654,1297926,2779,-15666,-2651,-5,-139,30
7,655,1297931,2741,-15709,-2609,7,-108,47
7,656,1297936,2845,-15636,-2429,16,-68,61
7,657,1297941,3008,-15621,-2046,24,-28,70
7,658,1297946,3036,-15659,-1827,37,-23,82
7,659,1297951,3062,-15649,-1839,53,-54,99
7,660,1297956,3046,-15475,-1997,68,-101,115
7,661,1297961,3105,-15314,-1922,81,-149,132
7,662,1297966,3182,-15329,-1883,93,-200,146
7,663,1297971,3381,-15398,-2159,110,-256,156
7,664,1297976,3641,-15475,-2493,128,-301,170
7,665,1297981,3819,-15546,-2817,140,-305,177
7,666,1297986,3910,-15594,-2977,150,-279,182
7,667,1297991,3817,-15561,-3081,154,-229,186
7,668,1297996,3782,-15558,-3205,156,-157,191
7,669,1298001,3784,-15558,-3398,157,-66,191
7,670,1298006,3921,-15560,-3269,159,33,195
7,671,1298011,3997,-15423,-2969,159,112,197
7,672,1298016,3896,-15393,-2615,163,159,196
7,673,1298021,3723,-15451,-2534,171,181,201
7,674,1298026,3750,-15497,-2494,177,203,207
7,675,1298031,3952,-15474,-2282,179,223,210
7,676,1298036,4162,-15500,-2032,187,223,209
7,677,1298041,4354,-15637,-1972,195,192,212
7,678,1298046,4347,-15748,-1956,204,155,219
7,679,1298051,4271,-15790,-1929,212,116,222
7,680,1298056,4230,-15799,-1897,219,75,225
7,681,1298061,4359,-15784,-2050,231,41,229
7,682,1298066,4652,-15742,-2209,233,21,231
7,683,1298071,4561,-15692,-2094,244,-14,230
7,684,1298076,4218,-15625,-2216,248,-34,229
7,685,1298081,4068,-15503,-2629,252,-32,231
7,686,1298086,4072,-15454,-2705,255,11,233
7,687,1298091,4134,-15481,-2539,248,57,227
7,688,1298096,4235,-15549,-2409,245,66,221
7,689,1298101,4268,-15643,-2421,249,72,221
7,690,1298106,4311,-15665,-2661,251,86,220
7,691,1298111,4277,-15619,-2547,250,112,215
7,692,1298116,4213,-15610,-2460,249,117,210
7,693,1298121,4261,-15659,-2449,251,104,209
7,694,1298126,4491,-15799,-2550,253,96,209
7,695,1298131,4751,-15930,-2464,254,104,207
7,696,1298136,4820,-16081,-2305,250,106,199
7,697,1298141,4691,-16106,-2345,253,92,193
7,698,1298146,4629,-15982,-2631,255,74,191
7,699,1298151,4536,-15922,-2823,254,86,189
7,700,1298156,4452,-15982,-2691,254,103,187
7,701,1298161,4496,-15969,-2527,255,103,185
7,702,1298166,4490,-15919,-2484,251,99,182
7,703,1298171,4427,-15862,-2498,250,97,177
7,704,1298176,4208,-15825,-2562,248,102,170
7,705,1298181,4012,-15787,-2594,246,106,165
7,706,1298186,4126,-15804,-2527,242,103,164
7,707,1298191,4303,-15771,-2585,243,105,158
7,708,1298196,4294,-15792,-2583,236,116,150
7,709,1298201,4161,-15869,-2522,233,122,143
7,710,1298206,4207,-15881,-2515,232,123,140
7,711,1298211,4319,-15881,-2503,227,125,135
7,712,1298216,4317,-15912,-2557,225,127,128
7,713,1298221,4341,-15913,-2559,223,122,122
7,714,1298226,4312,-15986,-2421,220,107,116
7,715,1298231,4248,-16049,-2237,217,89,114
7,716,1298236,4199,-16088,-2328,213,77,109
7,717,1298241,4226,-16054,-2451,210,77,103
7,718,1298246,4180,-16009,-2490,206,80,98
7,719,1298251,4205,-16033,-2615,201,69,92
7,720,1298256,4232,-16022,-2565,199,59,88
7,721,1298261,4295,-16067,-2440,195,46,84
7,722,1298266,4231,-16156,-2299,190,41,79
7,723,1298271,4100,-16154,-2389,188,45,73
7,724,1298276,4068,-16057,-2529,182,58,66
7,725,1298281,4058,-15970,-2481,177,71,60
7,726,1298286,4090,-15898,-2389,168,79,58
7,727,1298291,4076,-15875,-2295,159,76,52
7,728,1298296,4056,-15927,-2317,157,70,49
7,729,1298301,3977,-15919,-2346,152,66,43
7,730,1298306,3951,-15895,-2341,144,65,39
7,731,1298311,4021,-15861,-2295,139,66,36
7,732,1298316,4125,-15871,-2250,133,67,31
7,733,1298321,4123,-15903,-2172,125,72,26
7,734,1298326,4104,-15847,-2297,119,70,21
7,735,1298331,4077,-15875,-2266,117,70,22
7,736,1298336,4048,-15889,-2287,111,74,17
7,737,1298341,4068,-15952,-2258,102,74,15
7,738,1298346,4068,-16005,-2196,96,77,12
7,739,1298351,4106,-16045,-2096,89,86,6
7,740,1298356,4171,-16064,-2043,83,89,1
7,741,1298361,4170,-16072,-2097,75,88,-2
7,742,1298366,3979,-16030,-2046,70,83,-5
7,743,1298371,3911,-15989,-2015,66,63,-5
7,744,1298376,3954,-15955,-2093,65,43,-5
7,745,1298381,3958,-16001,-2164,60,32,-5
7,746,1298386,3990,-15954,-2240,55,24,-9
7,747,1298391,3965,-15891,-2235,50,8,-8
7,748,1298396,3887,-15900,-2189,47,-9,-9
7,749,1298401,3904,-15958,-2262,40,-19,-9
7,750,1298406,3967,-15973,-2339,39,-9,-11
7,751,1298411,4050,-15970,-2343,35,13,-13
7,752,1298416,4107,-15942,-2246,28,18,-15
7,753,1298421,4120,-15902,-2143,23,24,-18
7,754,1298426,4098,-15869,-2178,18,31,-18
7,755,1298431,4005,-15841,-2197,14,37,-18
7,756,1298436,3919,-15867,-2093,4,34,-17
7,757,1298441,3914,-15904,-2088,2,29,-15
7,758,1298446,3941,-15883,-2080,-4,29,-19
7,759,1298451,3951,-15906,-1984,-10,28,-19
7,760,1298456,3984,-15907,-2001,-13,18,-16
7,761,1298461,3996,-15861,-2012,-14,5,-17
7,762,1298466,3974,-15897,-1984,-17,-8,-15
7,763,1298471,3895,-15866,-1968,-20,-21,-16
7,764,1298476,3906,-15786,-2016,-20,-32,-13
7,765,1298481,3904,-15819,-2024,-24,-34,-12
7,766,1298486,3891,-15811,-2054,-29,-36,-13
7,767,1298491,3941,-15872,-2015,-30,-38,-11
7,768,1298496,4003,-15888,-2067,-32,-35,-14
7,769,1298501,3992,-15826,-2080,-35,-23,-15
7,770,1298506,3858,-15777,-2028,-39,-11,-17
7,771,1298511,3710,-15801,-2070,-43,-6,-17
7,772,1298516,3730,-15811,-2100,-50,3,-15
7,773,1298521,3744,-15782,-2082,-50,15,-17
7,774,1298526,3730,-15821,-2077,-53,20,-17
7,775,1298531,3757,-15875,-2079,-53,12,-16
7,776,1298536,3889,-16015,-2128,-56,8,-16
7,777,1298541,4024,-16074,-1957,-58,1,-17
7,778,1298546,4200,-16101,-1866,-60,6,-18
7,779,1298551,4153,-16088,-1846,-64,18,-19
7,780,1298556,3897,-16056,-1870,-64,28,-23
7,781,1298561,3621,-15945,-1889,-65,33,-23
7,782,1298566,3655,-15818,-1813,-67,32,-22
7,783,1298571,3761,-15761,-1694,-68,25,-19
7,784,1298576,3769,-15830,-1623,-67,6,-20
7,785,1298581,3772,-15841,-1630,-69,-21,-23
7,786,1298586,3741,-15838,-1617,-69,-42,-26
7,787,1298591,3727,-15859,-1683,-65,-56,-24
7,788,1298596,3739,-15899,-1786,-68,-60,-25
7,789,1298601,3824,-16007,-1928,-68,-60,-29
7,790,1298606,4054,-16106,-2034,-68,-61,-28
7,791,1298611,4194,-16087,-1949,-71,-54,-30
7,792,1298616,4210,-16018,-1855,-76,-48,-33
7,793,1298621,4012,-15907,-1886,-79,-41,-31
7,794,1298626,3772,-15921,-2010,-75,-23,-32
7,795,1298631,3657,-15942,-2118,-77,1,-30
7,796,1298636,3707,-15860,-1924,-79,17,-31
7,797,1298641,3811,-15861,-1806,-81,19,-34
7,798,1298646,3874,-15937,-1830,-77,9,-33
7,799,1298651,3904,-15948,-1927,-76,3,-34
7,800,1298656,3856,-15959,-1963,-74,0,-36
7,801,1298661,3870,-15928,-1944,-74,-5,-38
7,802,1298666,3859,-15974,-1953,-72,-4,-37
7,803,1298671,3843,-15987,-1923,-74,3,-36
7,804,1298676,3888,-15986,-1908,-74,15,-35
7,805,1298681,3919,-15962,-1847,-72,27,-35
7,806,1298686,3924,-15942,-1763,-72,35,-37
7,807,1298691,3908,-15928,-1805,-70,36,-35
7,808,1298696,3925,-15901,-1824,-72,39,-35
7,809,1298701,3946,-15922,-1839,-70,39,-34
7,810,1298706,3984,-15950,-1778,-70,30,-34
7,811,1298711,3962,-15949,-1782,-67,18,-31
7,812,1298716,3967,-15916,-1816,-63,8,-27
7,813,1298721,3986,-15868,-1836,-64,14,-22
7,814,1298726,3878,-15849,-1860,-64,18,-26
7,815,1298731,3742,-15810,-1930,-63,17,-26
7,816,1298736,3756,-15770,-1973,-58,18,-20
7,817,1298741,3704,-15740,-1947,-58,28,-21
7,818,1298746,3707,-15767,-1920,-55,34,-22
7,819,1298751,3731,-15791,-1945,-57,37,-18
7,820,1298756,3815,-15795,-1913,-51,38,-18
7,821,1298761,3881,-15845,-1828,-50,39,-17
7,822,1298766,3845,-15874,-1846,-52,38,-16
7,823,1298771,3866,-15847,-1867,-50,37,-16
7,824,1298776,3860,-15802,-1906,-47,41,-15
7,825,1298781,3768,-15784,-1942,-47,48,-14
7,826,1298786,3740,-15788,-1945,-44,48,-12
7,827,1298791,3754,-15810,-1901,-41,50,-9
7,828,1298796,3835,-15805,-1864,-39,47,-6
7,829,1298801,3893,-15943,-1875,-34,41,-3
7,830,1298806,3859,-15877,-1874,-31,34,-3
7,831,1298811,3844,-15785,-1894,-30,29,-2
7,832,1298816,3801,-15791,-1924,-28,23,0
7,833,1298821,3719,-15789,-1983,-26,25,2
7,834,1298826,3759,-15821,-2010,-25,32,7
7,835,1298831,3787,-15867,-1969,-24,44,7
7,836,1298836,3806,-15875,-1908,-21,55,6
7,837,1298841,3837,-15828,-1904,-21,66,10
7,838,1298846,3812,-15799,-1824,-20,76,12
7,839,1298851,3762,-15761,-1732,-18,78,10
7,840,1298856,3745,-15731,-1690,-17,69,14
7,841,1298861,3799,-15737,-1693,-15,61,17
7,842,1298866,3882,-15696,-1653,-11,57,19
7,843,1298871,3881,-15737,-1643,-10,50,22
7,844,1298876,3849,-15745,-1674,-7,39,24
7,845,1298881,3767,-15765,-1721,-6,24,26
7,846,1298886,3719,-15815,-1795,-4,14,25
7,847,1298891,3734,-15827,-1851,-3,6,28
7,848,1298896,3775,-15872,-1811,2,-4,29
7,849,1298901,3870,-15902,-1878,3,-14,32
7,850,1298906,3910,-15908,-1978,6,-21,37
7,851,1298911,3879,-15915,-2087,9,-20,36
7,852,1298916,3781,-15961,-2172,12,-11,35
7,853,1298921,3662,-15976,-2162,12,1,38
7,854,1298926,3741,-15932,-2145,11,22,41
7,855,1298931,3741,-15960,-2113,11,43,41
7,856,1298936,3687,-15916,-1990,11,64,41
7,857,1298941,3692,-15877,-1910,12,77,42
7,858,1298946,3655,-15849,-1816,9,82,44
7,859,1298951,3641,-15901,-1675,8,82,42
7,860,1298956,3662,-15900,-1560,12,78,42
7,861,1298961,3755,-15907,-1507,15,69,46
7,862,1298966,3840,-15906,-1643,18,62,48
7,863,1298971,3840,-15922,-1717,19,51,47
7,864,1298976,3729,-15892,-1733,18,38,47
7,865,1298981,3699,-15924,-1788,19,25,49
7,866,1298986,3726,-15918,-1945,22,23,52
7,867,1298991,3760,-15928,-1970,21,34,53
7,868,1298996,3608,-15864,-1970,20,41,55
7,869,1299001,3580,-15882,-1970,24,43,54
7,870,1299006,3617,-15825,-2029,23,55,53
7,871,1299011,3568,-15795,-1938,21,67,54
7,872,1299016,3511,-15850,-1788,24,68,52
7,873,1299021,3526,-15863,-1819,27,61,53
7,874,1299026,3593,-15883,-1846,26,53,56
7,875,1299031,3710,-15910,-1795,29,45,54
7,876,1299036,3716,-15926,-1707,33,34,53
7,877,1299041,3750,-15978,-1701,34,16,53
7,878,1299046,3821,-15919,-1797,37,2,58
7,879,1299051,3828,-15950,-1891,38,-3,62
7,880,1299056,3770,-15932,-1874,39,0,58
7,881,1299061,3707,-15914,-1963,40,1,57
7,882,1299066,3787,-15915,-2031,40,6,61
7,883,1299071,3834,-15897,-1972,38,24,63
7,884,1299076,3865,-15936,-2028,38,33,59
7,885,1299081,3662,-15996,-2117,39,37,59
7,886,1299086,3623,-16005,-2095,38,46,61
7,887,1299091,3617,-15963,-1984,39,62,63
7,888,1299096,3595,-15982,-1889,37,79,61
7,889,1299101,3626,-16021,-1876,38,89,62
7,890,1299106,3637,-16010,-1888,41,93,65
7,891,1299111,3615,-15955,-1815,41,91,61
7,892,1299116,3637,-15962,-1763,41,85,60
7,893,1299121,3575,-16022,-1731,44,79,62
7,894,1299126,3541,-16009,-1751,44,74,62
7,895,1299131,3669,-15970,-1775,44,67,60
7,896,1299136,3723,-15876,-1713,44,60,62
7,897,1299141,3703,-15863,-1664,47,46,62
7,898,1299146,3570,-15891,-1725,47,32,63
7,899,1299151,3564,-15924,-1867,48,27,63
7,900,1299156,3648,-15922,-1919,48,27,65
7,901,1299161,3748,-15903,-1825,49,31,65
7,902,1299166,3778,-15933,-1825,47,30,62
7,903,1299171,3736,-16007,-2057,50,27,63
7,904,1299176,3680,-15918,-1960,49,35,61
7,905,1299181,3656,-15956,-1904,47,46,60
7,906,1299186,3589,-16023,-1951,48,53,62
7,907,1299191,3640,-16010,-1969,44,73,60
7,908,1299196,3571,-16012,-1892,40,93,56
7,909,1299201,3586,-15960,-1770,40,102,55
7,910,1299206,3579,-15949,-1687,41,98,55
7,911,1299211,3570,-15932,-1644,43,88,54
7,912,1299216,3545,-15920,-1667,38,79,53
7,913,1299221,3525,-15924,-1687,36,69,54
7,914,1299226,3517,-15918,-1640,39,59,51
7,915,1299231,3682,-15926,-1666,40,47,54
7,916,1299236,3759,-15938,-1659,39,43,53
7,917,1299241,3689,-15959,-1682,40,35,49
7,918,1299246,3678,-15966,-1756,38,31,48
7,919,1299251,3685,-15972,-1744,36,29,46
7,920,1299256,3741,-15953,-1725,36,28,47
7,921,1299261,3683,-16019,-1702,37,25,44
7,922,1299266,3698,-16032,-1700,35,16,43
7,923,1299271,3684,-16024,-1705,34,9,44
7,924,1299276,3682,-16018,-1746,37,3,42
7,925,1299281,3663,-15954,-1781,36,-1,41
7,926,1299286,3643,-15930,-1822,32,-3,40
7,927,1299291,3583,-15931,-1859,31,-3,37
7,928,1299296,3589,-15929,-1863,31,1,34
7,929,1299301,3570,-15992,-1938,33,8,34
7,930,1299306,3612,-15985,-1948,29,14,33
7,931,1299311,3653,-16040,-1854,26,22,28
7,932,1299316,3652,-16100,-1801,26,27,27
7,933,1299321,3622,-16129,-1857,25,29,28
7,934,1299326,3608,-16131,-1875,28,33,25
7,935,1299331,3722,-16090,-1812,25,36,22
7,936,1299336,3745,-16053,-1741,24,28,21
7,937,1299341,3675,-16045,-1776,23,14,17
7,938,1299346,3651,-16107,-1791,27,7,17
7,939,1299351,3629,-16112,-1824,28,0,20
7,940,1299356,3689,-16083,-1782,25,-4,18
7,941,1299361,3678,-16071,-1864,27,-11,16
7,942,1299366,3650,-15992,-1901,29,-12,15
7,943,1299371,3638,-15938,-1882,27,-5,11
7,944,1299376,3577,-15948,-1835,24,1,9
7,945,1299381,3567,-15988,-1873,24,1,10
7,946,1299386,3545,-15960,-1889,23,11,10
7,947,1299391,3562,-15975,-1877,21,21,7
7,948,1299396,3603,-16003,-1783,20,21,4
7,949,1299401,3709,-16031,-1727,15,17,4
7,950,1299406,3762,-16042,-1694,18,17,3
7,951,1299411,3808,-16111,-1657,19,15,-1
7,952,1299416,3685,-16086,-1690,18,11,-2
7,953,1299421,3630,-16059,-1750,20,5,1
7,954,1299426,3629,-15994,-1788,19,1,-1
7,955,1299431,3645,-16003,-1780,19,-10,-3
7,956,1299436,3628,-15996,-1752,18,-12,-3
7,957,1299441,3578,-15999,-1745,19,-14,-2
7,958,1299446,3555,-15968,-1785,18,-15,-4
7,959,1299451,3491,-15994,-1835,17,-6,-5
7,960,1299456,3458,-15992,-1832,14,9,-8
7,961,1299461,3482,-15989,-1800,11,18,-11
7,962,1299466,3529,-15999,-1755,7,19,-11
7,963,1299471,3538,-16045,-1699,10,21,-13
7,964,1299476,3537,-16099,-1691,11,18,-18
7,965,1299481,3551,-16081,-1677,10,15,-19
7,966,1299486,3590,-16099,-1659,9,15,-16
7,967,1299491,3567,-16067,-1675,7,14,-18
7,968,1299496,3456,-16011,-1641,6,8,-19
7,969,1299501,3400,-15969,-1700,8,4,-20
7,970,1299506,3415,-16029,-1760,9,-1,-21
7,971,1299511,3482,-16008,-1744,4,5,-21
7,972,1299516,3520,-16008,-1693,4,3,-24
7,973,1299521,3593,-16052,-1634,6,-5,-24
7,974,1299526,3538,-16047,-1649,5,-12,-24
7,975,1299531,3522,-16012,-1708,7,-13,-25
7,976,1299536,3501,-15999,-1648,7,-19,-23
7,977,1299541,3541,-16025,-1692,5,-23,-23
7,978,1299546,3682,-16020,-1742,6,-27,-25
7,979,1299551,3704,-16006,-1716,4,-25,-23
7,980,1299556,3619,-15983,-1649,4,-26,-27
7,981,1299561,3463,-15926,-1754,6,-29,-26
7,982,1299566,3401,-15916,-1919,3,-27,-24
7,983,1299571,3472,-15946,-1876,3,-14,-25
7,984,1299576,3532,-15941,-1816,1,-6,-26
7,985,1299581,3543,-15985,-1742,2,-10,-27
7,986,1299586,3543,-16058,-1704,-1,-10,-25
7,987,1299591,3553,-16076,-1689,2,-11,-26
7,988,1299596,3554,-16026,-1684,2,-10,-28
7,989,1299601,3582,-16029,-1624,1,-8,-26
7,990,1299606,3646,-16005,-1653,-1,-13,-26
7,991,1299611,3636,-16034,-1597,3,-19,-22
7,992,1299616,3558,-16023,-1581,2,-20,-24
7,993,1299621,3380,-16030,-1621,0,-20,-23
7,994,1299626,3310,-15940,-1759,1,-17,-21
7,995,1299631,3343,-15948,-1717,-1,-8,-22
7,996,1299636,3382,-15992,-1627,0,-5,-23
7,997,1299641,3462,-15981,-1643,-1,-10,-21
7,998,1299646,3473,-16075,-1701,-2,-15,-23
7,999,1299651,3498,-16105,-1720,-5,-16,-25
