event_id,seq,ts_ms,ax,ay,az,gx,gy,gz
58,0,764010,-2501,-15750,-4056,-2,-11,3
58,1,764015,-2567,-15801,-4115,-5,-13,2
58,2,764020,-2542,-15781,-4155,-3,-6,5
58,3,764025,-2489,-15772,-4191,-3,8,4
58,4,764030,-2425,-15772,-4148,-1,16,3
58,5,764035,-2376,-15699,-4084,-2,14,5
58,6,764040,-2367,-15749,-4212,-3,15,6
58,7,764045,-2462,-15745,-4301,1,23,4
58,8,764050,-2556,-15667,-4111,0,34,0
58,9,764055,-2590,-15668,-3983,-4,31,-4
58,10,764060,-2528,-15705,-3913,-1,20,-2
58,11,764065,-2483,-15676,-3934,0,5,-3
58,12,764070,-2493,-15664,-3960,1,-13,-3
58,13,764075,-2549,-15708,-4037,1,-32,-4
58,14,764080,-2642,-15671,-4239,5,-42,-3
58,15,764085,-2729,-15642,-4290,3,-26,-5
58,16,764090,-2687,-15679,-4239,1,0,-5
58,17,764095,-2631,-15691,-4110,-3,16,-2
58,18,764100,-2613,-15704,-4021,-2,8,-4
58,19,764105,-2711,-15711,-4257,3,-20,-2
58,20,764110,-2644,-15707,-4369,1,-18,-2
58,21,764115,-2525,-15718,-4221,-3,-3,-1
58,22,764120,-2486,-15745,-4126,-2,3,-1
58,23,764125,-2508,-15706,-4128,2,0,-2
58,24,764130,-2496,-15717,-4216,2,-2,-1
58,25,764135,-2544,-15690,-4181,3,4,-4
58,26,764140,-2594,-15703,-4130,4,8,-6
58,27,764145,-2571,-15744,-4190,4,12,-6
58,28,764150,-2580,-15636,-4181,3,15,-6
58,29,764155,-2558,-15616,-4093,3,18,-9
58,30,764160,-2516,-15649,-4092,3,17,-7
58,31,764165,-2517,-15657,-3958,5,15,-8
58,32,764170,-2516,-15650,-3779,8,6,-9
58,33,764175,-2496,-15689,-3791,8,-9,-8
58,34,764180,-2494,-15685,-3967,6,-24,-7
58,35,764185,-2480,-15708,-4095,7,-33,-7
58,36,764190,-2478,-15708,-4172,5,-29,-10
58,37,764195,-2567,-15673,-4057,2,-19,-11
58,38,764200,-2511,-15680,-4019,3,-16,-8
58,39,764205,-2371,-15743,-4167,6,-14,-4
58,40,764210,-2340,-15711,-4260,5,-7,-7
58,41,764215,-2418,-15670,-4145,2,-4,-9
58,42,764220,-2456,-15620,-4151,6,-12,-8
58,43,764225,-2522,-15720,-4216,3,-18,-9
58,44,764230,-2533,-15694,-4090,-2,-14,-5
58,45,764235,-2459,-15680,-4063,2,-12,-6
58,46,764240,-2387,-15814,-4026,5,-7,-6
58,47,764245,-2461,-15787,-3925,4,1,-6
58,48,764250,-2458,-15667,-3768,4,-7,-4
58,49,764255,-2374,-15697,-3876,5,-19,-2
58,50,764260,-2330,-15713,-3986,6,-16,-2
58,51,764265,-2457,-15683,-4009,7,-8,-1
58,52,764270,-2413,-15665,-3969,2,-6,-2
58,53,764275,-2346,-15655,-4006,5,-12,1
58,54,764280,-2285,-15658,-4045,3,-12,0
58,55,764285,-2407,-15673,-3962,2,-2,-5
58,56,764290,-2375,-15639,-3983,5,-3,-6
58,57,764295,-2385,-15662,-4032,1,-8,-4
58,58,764300,-2286,-15713,-4032,-1,-7,-5
58,59,764305,-2307,-15700,-4030,0,-6,-4
58,60,764310,-2350,-15682,-3967,-2,-1,-7
58,61,764315,-2431,-15717,-3883,0,0,-5
58,62,764320,-2423,-15727,-3924,-3,-7,-2
58,63,764325,-2479,-15690,-3962,-2,-10,0
58,64,764330,-2522,-15683,-3961,0,-4,-1
58,65,764335,-2573,-15731,-3837,-1,-6,-4
58,66,764340,-2482,-15702,-3806,-1,-13,-3
58,67,764345,-2399,-15664,-3885,-1,-18,-2
58,68,764350,-2459,-15664,-4025,-1,-13,-2
58,69,764355,-2408,-15650,-4080,0,-9,-2
58,70,764360,-2358,-15627,-4079,-4,-10,-1
58,71,764365,-2265,-15716,-4086,-7,-12,1
58,72,764370,-2282,-15751,-4103,-5,-10,2
58,73,764375,-2315,-15686,-4004,-6,-2,3
58,74,764380,-2338,-15680,-3937,-5,-4,2
58,75,764385,-2392,-15711,-3810,-8,-11,-1
58,76,764390,-2392,-15742,-3774,-9,-22,2
58,77,764395,-2426,-15780,-3786,-5,-25,4
58,78,764400,-2481,-15765,-3852,-3,-21,3
58,79,764405,-2535,-15733,-3934,-3,-15,4
58,80,764410,-2451,-15696,-4127,-3,-8,6
58,81,764415,-2400,-15693,-4255,-4,-1,8
58,82,764420,-2564,-15671,-4181,-10,4,6
58,83,764425,-2634,-15631,-4133,-7,-7,7
58,84,764430,-2610,-15691,-4199,-7,-22,6
58,85,764435,-2568,-15672,-4298,-9,-19,7
58,86,764440,-2544,-15726,-4327,-10,-4,6
58,87,764445,-2635,-15737,-4245,-8,-2,2
58,88,764450,-2703,-15719,-4241,-5,-12,4
58,89,764455,-2606,-15753,-4334,-5,-12,7
58,90,764460,-2561,-15744,-4337,-5,0,4
58,91,764465,-2537,-15713,-4306,-3,9,-2
58,92,764470,-2584,-15629,-4307,-3,8,-1
58,93,764475,-2740,-15693,-4198,0,-10,-3
58,94,764480,-2664,-15695,-4221,0,-14,-6
58,95,764485,-2621,-15700,-4292,0,-10,-7
58,96,764490,-2564,-15700,-4302,3,-6,-6
58,97,764495,-2595,-15666,-4377,1,-2,-7
58,98,764500,-2734,-15636,-4185,0,-1,-10
58,99,764505,-2752,-15638,-4190,4,-10,-8
58,100,764510,-2643,-15642,-4299,6,-15,-6
58,101,764515,-2582,-15666,-4253,5,-6,-6
58,102,764520,-2582,-15686,-4097,2,-2,-7
58,103,764525,-2425,-15657,-4052,6,-9,-3
58,104,764530,-2324,-15626,-4168,5,-14,-5
58,105,764535,-2269,-15638,-4171,4,-10,-5
58,106,764540,-2337,-15636,-3965,2,-9,-7
58,107,764545,-2325,-15700,-4052,4,-23,-5
58,108,764550,-2375,-15700,-4385,5,-30,-2
58,109,764555,-2362,-15717,-4465,3,-13,-5
58,110,764560,-2481,-15702,-4068,0,2,-11
58,111,764565,-2619,-15671,-3720,-1,-1,-10
58,112,764570,-2673,-15697,-3694,0,-6,-8
58,113,764575,-2516,-15752,-3893,4,3,-7
58,114,764580,-2359,-15692,-3820,3,27,-6
58,115,764585,-2349,-15696,-3588,-1,35,-10
58,116,764590,-2374,-15720,-3522,-1,13,-9
58,117,764595,-2444,-15783,-3773,0,-17,-8
58,118,764600,-2426,-15738,-3920,3,-20,-3
58,119,764605,-2448,-15702,-3997,3,0,-2
58,120,764610,-2377,-15674,-4057,0,10,-5
58,121,764615,-2402,-15674,-4130,1,5,-2
58,122,764620,-2505,-15655,-4217,0,-6,-1
58,123,764625,-2457,-15635,-4024,-4,-9,-2
58,124,764630,-2423,-15650,-3906,-7,-4,-1
58,125,764635,-2370,-15702,-4003,-3,0,-3
58,126,764640,-2454,-15670,-4099,-4,6,-4
58,127,764645,-2576,-15698,-4080,-5,7,-6
58,128,764650,-2591,-15711,-3972,-4,1,-2
58,129,764655,-2537,-15683,-4057,-1,-8,0
58,130,764660,-2505,-15716,-4222,0,-11,-4
58,131,764665,-2581,-15690,-4333,-2,-10,-2
58,132,764670,-2588,-15716,-4407,2,-9,-3
58,133,764675,-2571,-15753,-4334,3,-8,-5
58,134,764680,-2626,-15701,-4302,3,-2,-2
58,135,764685,-2594,-15700,-4199,3,-2,-2
58,136,764690,-2557,-15707,-4177,2,-13,-4
58,137,764695,-2557,-15681,-4145,4,-21,-5
58,138,764700,-2627,-15684,-4143,3,-21,-5
58,139,764705,-2569,-15641,-4215,5,-14,-8
58,140,764710,-2435,-15639,-4220,6,-5,-7
58,141,764715,-2465,-15613,-4094,4,-2,-9
58,142,764720,-2517,-15604,-4029,3,-9,-9
58,143,764725,-2498,-15626,-4114,4,-11,-7
58,144,764730,-2475,-15634,-4141,2,-6,-8
58,145,764735,-2543,-15640,-4015,-1,-6,-9
58,146,764740,-2479,-15670,-3854,-1,-16,-11
58,147,764745,-2428,-15715,-3929,2,-19,-7
58,148,764750,-2479,-15688,-3908,1,-6,-8
58,149,764755,-2605,-15661,-3802,0,-2,-11
58,150,764760,-2559,-15693,-3783,2,-16,-7
58,151,764765,-2371,-15722,-4131,2,-25,-4
58,152,764770,-2270,-15754,-4358,-1,-9,-7
58,153,764775,-2421,-15728,-4268,-1,13,-9
58,154,764780,-2548,-15720,-4156,-2,15,-11
58,155,764785,-2626,-15709,-4153,-1,1,-9
58,156,764790,-2629,-15752,-4213,-1,-10,-8
58,157,764795,-2606,-15722,-4266,-2,-5,-7
58,158,764800,-2649,-15692,-4042,-1,3,-12
58,159,764805,-2640,-15731,-3747,-2,-8,-13
58,160,764810,-2630,-15724,-3727,0,-32,-8
58,161,764815,-2531,-15710,-3845,-1,-41,-5
58,162,764820,-2342,-15707,-3849,0,-30,-5
58,163,764825,-2334,-15711,-3827,0,-21,-3
58,164,764830,-2416,-15724,-3998,5,-26,-4
58,165,764835,-2383,-15702,-4214,6,-34,-3
58,166,764840,-2564,-15705,-4302,0,-19,-7
58,167,764845,-2603,-15691,-4096,0,-23,-8
58,168,764850,-2496,-15656,-4054,0,-37,-6
58,169,764855,-2412,-15616,-4002,-2,-48,-5
58,170,764860,-2348,-15624,-3987,-1,-53,-6
58,171,764865,-2226,-15646,-4046,3,-55,-4
58,172,764870,-2184,-15693,-4350,2,-48,1
58,173,764875,-2256,-15679,-4559,4,-35,-2
58,174,764880,-2473,-15664,-4568,0,-11,-5
58,175,764885,-2517,-15690,-4314,-1,12,-6
58,176,764890,-2448,-15659,-4058,2,23,-3
58,177,764895,-2380,-15666,-4100,5,15,-2
58,178,764900,-2362,-15631,-4232,6,7,-4
58,179,764905,-2541,-15633,-4262,5,8,-9
58,180,764910,-2676,-15649,-4221,5,8,-10
58,181,764915,-2579,-15674,-4119,4,3,-5
58,182,764920,-2395,-15683,-4009,4,2,-6
58,183,764925,-2431,-15720,-3920,5,4,-11
58,184,764930,-2508,-15735,-3921,3,2,-11
58,185,764935,-2512,-15697,-4033,3,-9,-10
58,186,764940,-2549,-15745,-4110,3,-21,-11
58,187,764945,-2553,-15704,-4077,3,-22,-12
58,188,764950,-2553,-15682,-4025,5,-15,-10
58,189,764955,-2527,-15724,-4161,6,-14,-6
58,190,764960,-2410,-15650,-4435,10,-13,-5
58,191,764965,-2433,-15666,-4517,9,-5,-7
58,192,764970,-2497,-15716,-4215,3,0,-11
58,193,764975,-2674,-15641,-3896,4,-8,-8
58,194,764980,-2628,-15661,-3940,7,-24,-4
58,195,764985,-2418,-15726,-4040,7,-19,-5
58,196,764990,-2252,-15740,-4002,4,-1,-8
58,197,764995,-2169,-15733,-3768,2,9,-5
58,198,765000,-2138,-15730,-3687,1,-3,-4
58,199,765005,-2235,-15707,-3779,3,-21,-4
58,200,765010,-2369,-15713,-3908,2,-26,-4
58,201,765015,-2434,-15727,-3916,0,-9,-2
58,202,765020,-2469,-15686,-3841,0,4,-1
58,203,765025,-2469,-15635,-3867,0,-1,-5
58,204,765030,-2478,-15677,-4012,4,-14,-5
58,205,765035,-2473,-15650,-4047,1,-22,-5
58,206,765040,-2482,-15676,-4058,3,-29,-5
58,207,765045,-2581,-15674,-4101,-1,-28,-5
58,208,765050,-2592,-15649,-4182,-2,-31,-5
58,209,765055,-2543,-15699,-4210,1,-29,-3
58,210,765060,-2501,-15728,-4288,1,-28,0
58,211,765065,-2563,-15713,-4350,1,-31,1
58,212,765070,-2539,-15701,-4372,1,-32,-2
58,213,765075,-2564,-15732,-4330,1,-34,-1
58,214,765080,-2505,-15740,-4264,-1,-37,3
58,215,765085,-2539,-15703,-4194,0,-30,1
58,216,765090,-2459,-15702,-4105,3,-19,-1
58,217,765095,-2357,-15696,-4154,3,-4,-3
58,218,765100,-2282,-15705,-4023,6,6,-5
58,219,765105,-2329,-15669,-3906,6,4,-8
58,220,765110,-2429,-15657,-3911,7,-10,-7
58,221,765115,-2510,-15613,-4035,5,-23,-6
58,222,765120,-2491,-15645,-4065,2,-21,-5
58,223,765125,-2405,-15670,-3986,4,-9,-2
58,224,765130,-2347,-15682,-3941,5,4,-5
58,225,765135,-2476,-15707,-3991,6,0,-7
58,226,765140,-2612,-15731,-4127,7,-9,-4
58,227,765145,-2637,-15704,-4225,1,-16,-2
58,228,765150,-2493,-15737,-4284,-1,-13,0
58,229,765155,-2499,-15719,-4141,0,0,-3
58,230,765160,-2593,-15684,-3974,-2,3,-8
58,231,765165,-2594,-15694,-3986,2,-14,-7
58,232,765170,-2555,-15729,-4109,4,-23,-3
58,233,765175,-2539,-15664,-4097,2,-14,-6
58,234,765180,-2509,-15674,-4028,0,-6,-5
58,235,765185,-2496,-15710,-4046,2,-7,-6
58,236,765190,-2540,-15682,-4084,1,-13,-4
58,237,765195,-2520,-15642,-4086,0,-15,-2
58,238,765200,-2404,-15659,-3985,0,-11,-3
58,239,765205,-2503,-15717,-3875,2,-8,-4
58,240,765210,-2480,-15708,-3900,4,-14,-2
58,241,765215,-2344,-15652,-3999,2,-11,-1
58,242,765220,-2401,-15694,-4015,3,4,-8
58,243,765225,-2547,-15663,-3926,3,5,-12
58,244,765230,-2681,-15645,-3912,2,-14,-7
58,245,765235,-2554,-15682,-4203,1,-28,-4
58,246,765240,-2442,-15745,-4384,1,-14,-9
58,247,765245,-2491,-15676,-4179,0,11,-11
58,248,765250,-2532,-15668,-3957,-3,12,-12
58,249,765255,-2582,-15691,-4051,0,-12,-10
58,250,765260,-2598,-15642,-4186,-2,-22,-10
58,251,765265,-2566,-15677,-4240,-1,-15,-9
58,252,765270,-2451,-15674,-4071,-3,-3,-11
58,253,765275,-2454,-15685,-3960,-3,-5,-12
58,254,765280,-2474,-15671,-4019,-2,-19,-11
58,255,765285,-2465,-15720,-4228,1,-29,-9
58,256,765290,-2526,-15731,-4235,-2,-21,-9
58,257,765295,-2602,-15689,-3953,-3,-10,-9
58,258,765300,-2482,-15703,-3908,0,-13,-7
58,259,765305,-2335,-15729,-3969,-1,-11,-4
58,260,765310,-2370,-15690,-3874,0,-10,-7
58,261,765315,-2454,-15696,-3941,0,-15,-7
58,262,765320,-2450,-15694,-4078,2,-19,-6
58,263,765325,-2472,-15706,-4204,0,-17,-7
58,264,765330,-2548,-15757,-4253,2,-5,-7
58,265,765335,-2646,-15702,-4128,-1,4,-8
58,266,765340,-2556,-15665,-4074,0,-2,-8
58,267,765345,-2468,-15653,-4031,1,-11,-7
58,268,765350,-2346,-15645,-4087,1,-19,-7
58,269,765355,-2394,-15662,-4112,0,-17,-6
58,270,765360,-2464,-15650,-4065,-2,-13,-9
58,271,765365,-2454,-15664,-4019,-3,-14,-8
58,272,765370,-2395,-15669,-3995,-1,-15,-6
58,273,765375,-2442,-15693,-3945,-1,-17,-8
58,274,765380,-2366,-15724,-4010,-1,-20,-4
58,275,765385,-2349,-15701,-4033,-2,-19,-5
58,276,765390,-2427,-15702,-4127,-1,-18,-6
58,277,765395,-2564,-15689,-4149,2,-21,-4
58,278,765400,-2482,-15708,-4194,4,-26,-4
58,279,765405,-2389,-15703,-4271,1,-23,-2
58,280,765410,-2444,-15703,-4253,1,-19,-1
58,281,765415,-2492,-15712,-4251,2,-23,-3
58,282,765420,-2452,-15674,-4233,1,-27,-6
58,283,765425,-2432,-15697,-4336,3,-25,-2
58,284,765430,-2389,-15721,-4343,3,-15,-3
58,285,765435,-2455,-15674,-4196,4,-6,-6
58,286,765440,-2467,-15656,-4004,3,-8,-5
58,287,765445,-2367,-15659,-4020,1,-21,-6
58,288,765450,-2208,-15661,-4156,4,-21,-5
58,289,765455,-2269,-15641,-4197,3,-15,-4
58,290,765460,-2354,-15637,-4137,2,-9,-9
58,291,765465,-2469,-15594,-4103,1,-10,-7
58,292,765470,-2340,-15622,-4145,7,-9,-5
58,293,765475,-2275,-15658,-4074,5,3,-7
58,294,765480,-2452,-15703,-3960,2,8,-8
58,295,765485,-2602,-15702,-3848,5,-10,-5
58,296,765490,-2486,-15700,-3948,3,-30,-3
58,297,765495,-2365,-15719,-4009,4,-27,0
58,298,765500,-2569,-15813,-4039,3,-13,-6
58,299,765505,-2767,-15794,-3860,-1,-7,-7
58,300,765510,-2651,-15749,-4014,3,-28,4
58,301,765515,-2517,-15758,-4270,4,-26,7
58,302,765520,-2530,-15792,-4378,4,-10,5
58,303,765525,-2579,-15747,-4157,-2,1,3
58,304,765530,-2472,-15723,-4038,-1,-16,7
58,305,765535,-2285,-15774,-4082,3,-29,10
58,306,765540,-2230,-15773,-4233,6,-19,11
58,307,765545,-2320,-15751,-4194,7,2,5
58,308,765550,-2551,-15767,-4026,6,6,0
58,309,765555,-2633,-15772,-3949,9,-23,3
58,310,765560,-2614,-15715,-3968,5,-38,7
58,311,765565,-2578,-15673,-4068,4,-28,7
58,312,765570,-2779,-15801,-4079,7,6,2
58,313,765575,-2693,-15736,-3996,7,0,5
58,314,765580,-2627,-15687,-4041,7,-4,8
58,315,765585,-2574,-15707,-4226,6,4,9
58,316,765590,-2629,-15672,-4240,5,26,5
58,317,765595,-2638,-15615,-4159,2,42,2
58,318,765600,-2594,-15550,-4165,2,49,2
58,319,765605,-2458,-15514,-4279,4,44,4
58,320,765610,-2587,-15628,-3966,1,51,-2
58,321,765615,-2785,-15629,-3739,5,25,-5
58,322,765620,-2696,-15526,-4102,6,-8,-1
58,323,765625,-2544,-15629,-4419,5,-7,-2
58,324,765630,-2624,-15793,-4221,0,7,-4
58,325,765635,-2841,-15837,-4114,0,0,-4
58,326,765640,-2840,-15788,-4232,2,-13,-3
58,327,765645,-2668,-15763,-4251,1,-4,0
58,328,765650,-2574,-15689,-3964,-2,23,-1
58,329,765655,-2557,-15710,-3780,2,27,-2
58,330,765660,-2725,-15713,-3745,7,6,-6
58,331,765665,-2921,-15649,-3673,6,-21,-4
58,332,765670,-2832,-15473,-3682,4,-32,4
58,333,765675,-2695,-15517,-3780,4,-32,8
58,334,765680,-2720,-15573,-3933,4,-29,8
58,335,765685,-2784,-15640,-3826,2,-29,5
58,336,765690,-2905,-15587,-3587,0,-30,4
58,337,765695,-2932,-15538,-3461,1,-30,8
58,338,765700,-2901,-15498,-3627,2,-29,14
58,339,765705,-2892,-15648,-3469,-2,-36,19
58,340,765710,-2941,-15660,-3285,-3,-69,25
58,341,765715,-2946,-15548,-3513,6,-121,34
58,342,765720,-2982,-15510,-3951,9,-145,41
58,343,765725,-3054,-15584,-4341,9,-149,42
58,344,765730,-3147,-15753,-4379,8,-161,47
58,345,765735,-3201,-15719,-4245,10,-185,53
58,346,765740,-3291,-15630,-4370,15,-184,59
58,347,765745,-3276,-15593,-4566,19,-124,62
58,348,765750,-3228,-15648,-4687,19,-36,59
58,349,765755,-3130,-15765,-4374,21,28,61
58,350,765760,-3264,-15712,-3932,18,43,60
58,351,765765,-3625,-15651,-3771,19,39,61
58,352,765770,-3832,-15633,-3838,27,59,68
58,353,765775,-3580,-15660,-3746,26,106,76
58,354,765780,-3384,-15502,-3405,22,127,77
58,355,765785,-3385,-15568,-3210,32,103,85
58,356,765790,-3422,-15597,-3319,34,67,97
58,357,765795,-3344,-15473,-3576,39,83,107
58,358,765800,-3318,-15439,-3693,42,136,110
58,359,765805,-3272,-15458,-3645,48,163,117
58,360,765810,-3255,-15439,-3480,51,131,129
58,361,765815,-3288,-15449,-3489,53,55,133
58,362,765820,-3374,-15514,-3563,59,-15,142
58,363,765825,-3318,-15643,-3765,62,-55,151
58,364,765830,-3203,-15744,-3924,64,-59,152
58,365,765835,-3444,-15826,-3796,61,-50,150
58,366,765840,-3822,-15649,-3600,64,-47,150
58,367,765845,-3812,-15470,-3848,73,-49,161
58,368,765850,-3646,-15456,-4019,79,-14,164
58,369,765855,-3690,-15596,-3866,80,25,158
58,370,765860,-3909,-15611,-3882,83,35,158
58,371,765865,-3955,-15444,-4102,83,35,167
58,372,765870,-3854,-15359,-4236,86,60,168
58,373,765875,-3849,-15401,-4015,88,98,168
58,374,765880,-3912,-15578,-3695,92,103,164
58,375,765885,-3892,-15614,-3613,98,77,170
58,376,765890,-3821,-15497,-3728,100,63,171
58,377,765895,-3856,-15525,-3661,98,77,170
58,378,765900,-4016,-15701,-3402,96,88,169
58,379,765905,-3942,-15688,-3331,97,75,171
58,380,765910,-3749,-15599,-3360,97,61,174
58,381,765915,-3945,-15704,-3137,94,59,167
58,382,765920,-4115,-15780,-2868,90,28,163
58,383,765925,-4042,-15678,-2710,91,-40,174
58,384,765930,-3988,-15548,-2720,87,-104,174
58,385,765935,-4066,-15600,-3021,86,-152,172
58,386,765940,-4031,-15675,-2986,78,-208,177
58,387,765945,-4080,-15648,-3094,77,-228,179
58,388,765950,-4288,-15673,-3399,78,-220,177
58,389,765955,-4359,-15626,-3365,71,-194,176
58,390,765960,-4273,-15568,-3131,68,-179,181
58,391,765965,-4170,-15583,-3321,72,-187,188
58,392,765970,-4210,-15629,-3964,70,-194,188
58,393,765975,-4390,-15596,-4222,63,-174,189
58,394,765980,-4413,-15550,-3821,56,-137,188
58,395,765985,-4326,-15545,-3356,55,-111,192
58,396,765990,-4122,-15594,-3470,57,-96,198
58,397,765995,-4038,-15699,-3716,60,-78,201
58,398,766000,-4058,-15742,-3536,59,-61,202
58,399,766005,-4149,-15713,-3253,56,-73,206
58,400,766010,-4540,-15760,-3298,59,-92,207
58,401,766015,-4552,-15741,-3693,64,-87,211
58,402,766020,-4261,-15695,-3661,61,-41,221
58,403,766025,-4103,-15580,-3264,58,7,220
58,404,766030,-4139,-15656,-3295,66,-5,223
58,405,766035,-4165,-15663,-3442,70,-39,231
58,406,766040,-4302,-15471,-3438,72,-62,239
58,407,766045,-4358,-15395,-3583,76,-68,249
58,408,766050,-4357,-15432,-3962,80,-50,251
58,409,766055,-4347,-15407,-4018,82,-16,254
58,410,766060,-4457,-15380,-3679,81,-2,255
58,411,766065,-4559,-15438,-3528,85,-18,260
58,412,766070,-4418,-15563,-3724,94,-37,271
58,413,766075,-4293,-15538,-3822,103,-24,276
58,414,766080,-4361,-15579,-3559,104,-9,276
58,415,766085,-4373,-15538,-3387,109,-19,279
58,416,766090,-4402,-15584,-3475,118,-41,285
58,417,766095,-4316,-15625,-3704,125,-51,295
58,418,766100,-4214,-15702,-3590,129,-30,296
58,419,766105,-4306,-15721,-3196,133,-13,290
58,420,766110,-4385,-15711,-3193,140,-29,294
58,421,766115,-4453,-15570,-3735,147,-40,305
58,422,766120,-4409,-15521,-4053,148,-19,309
58,423,766125,-4478,-15549,-3785,146,20,308
58,424,766130,-4433,-15634,-3421,149,38,313
58,425,766135,-4237,-15534,-3631,155,48,321
58,426,766140,-4240,-15394,-3721,157,75,320
58,427,766145,-4505,-15426,-3451,159,83,321
58,428,766150,-4527,-15540,-3078,161,54,330
58,429,766155,-4337,-15604,-3064,164,19,338
58,430,766160,-4204,-15658,-3251,167,10,341
58,431,766165,-4407,-15762,-3230,167,15,342
58,432,766170,-4563,-15747,-3067,168,-2,342
58,433,766175,-4612,-15665,-3215,168,-35,348
58,434,766180,-4589,-15651,-3363,167,-43,351
58,435,766185,-4494,-15808,-3380,168,-16,358
58,436,766190,-4437,-15820,-3242,167,16,363
58,437,766195,-4309,-15715,-3163,164,28,363
58,438,766200,-4432,-15614,-2893,157,32,363
58,439,766205,-4581,-15512,-2999,159,26,367
58,440,766210,-4512,-15429,-3217,160,42,375
58,441,766215,-4298,-15484,-3575,157,70,380
58,442,766220,-4263,-15560,-3512,151,96,378
58,443,766225,-4473,-15531,-3311,149,93,376
58,444,766230,-4633,-15526,-3420,147,83,381
58,445,766235,-4644,-15542,-3531,147,100,386
58,446,766240,-4664,-15536,-3178,143,128,384
58,447,766245,-4713,-15585,-2753,140,121,387
58,448,766250,-4553,-15610,-3082,143,85,395
58,449,766255,-4436,-15553,-3427,140,73,398
58,450,766260,-4633,-15586,-3191,135,79,389
58,451,766265,-4967,-15584,-2920,131,52,391
58,452,766270,-5122,-15631,-3172,134,13,396
58,453,766275,-5041,-15608,-3767,132,25,398
58,454,766280,-4807,-15545,-3727,126,84,397
58,455,766285,-4695,-15625,-3089,125,120,391
58,456,766290,-4746,-15773,-2789,126,81,389
58,457,766295,-4858,-15851,-3143,125,22,398
58,458,766300,-4691,-15764,-3758,123,16,397
58,459,766305,-4839,-15549,-3211,114,76,383
58,460,766310,-5067,-15590,-3001,115,37,383
58,461,766315,-5103,-15630,-3278,116,0,384
58,462,766320,-4839,-15584,-3637,113,19,384
58,463,766325,-4725,-15533,-3347,106,66,376
58,464,766330,-4749,-15455,-2949,107,56,369
58,465,766335,-4782,-15518,-2996,107,-13,373
58,466,766340,-4747,-15654,-3384,111,-55,378
58,467,766345,-4676,-15650,-3474,109,-25,373
58,468,766350,-4620,-15615,-3130,104,23,365
58,469,766355,-4724,-15644,-2801,103,18,357
58,470,766360,-4816,-15725,-2933,102,-26,359
58,471,766365,-4822,-15645,-3274,101,-50,360
58,472,766370,-4914,-15516,-3313,96,-42,347
58,473,766375,-5030,-15442,-3126,89,-51,339
58,474,766380,-5216,-15575,-3161,90,-91,338
58,475,766385,-5164,-15721,-3461,93,-121,339
58,476,766390,-5013,-15766,-3630,89,-89,331
58,477,766395,-5046,-15605,-3313,84,-20,320
58,478,766400,-4921,-15504,-2980,80,11,313
58,479,766405,-4693,-15501,-2790,78,-17,314
58,480,766410,-4452,-15559,-2889,79,-68,314
58,481,766415,-4329,-15532,-3315,83,-90,316
58,482,766420,-4370,-15448,-3565,79,-70,307
58,483,766425,-4542,-15260,-3430,76,-43,299
58,484,766430,-4583,-15175,-3379,76,-41,297
58,485,766435,-4585,-15112,-3376,73,-42,293
58,486,766440,-4476,-15089,-3531,74,-36,289
58,487,766445,-4489,-15191,-3602,75,-23,284
58,488,766450,-4425,-15247,-3599,73,-20,279
58,489,766455,-4371,-15261,-3566,73,-16,273
58,490,766460,-4520,-15257,-3356,70,-8,265
58,491,766465,-4571,-15167,-3263,69,2,262
58,492,766470,-4451,-15222,-3419,69,4,261
58,493,766475,-4272,-15322,-3404,69,-1,258
58,494,766480,-4100,-15390,-3335,67,-18,258
58,495,766485,-4093,-15441,-3223,67,-35,251
58,496,766490,-4175,-15446,-3199,69,-49,243
58,497,766495,-4216,-15376,-3380,66,-53,238
58,498,766500,-4104,-15415,-3577,66,-51,235
58,499,766505,-3963,-15444,-3548,66,-35,230
58,500,766510,-3924,-15478,-3272,66,-17,224
58,501,766515,-3846,-15465,-3283,68,-20,220
58,502,766520,-3632,-15402,-3711,68,-18,215
58,503,766525,-3658,-15316,-3967,66,3,203
58,504,766530,-3845,-15229,-3841,65,19,192
58,505,766535,-3897,-15170,-3592,60,21,188
58,506,766540,-3623,-15144,-3502,63,20,184
58,507,766545,-3342,-15258,-3389,67,41,171
58,508,766550,-3217,-15379,-3419,66,70,159
58,509,766555,-3296,-15346,-3466,64,70,151
58,510,766560,-3450,-15249,-3492,61,36,142
58,511,766565,-3498,-15158,-3694,59,14,131
58,512,766570,-3363,-15240,-3762,59,40,122
58,513,766575,-3380,-15211,-3459,55,100,104
58,514,766580,-3355,-15074,-3304,53,125,94
58,515,766585,-3085,-15032,-3260,56,108,90
58,516,766590,-2932,-15213,-3281,54,66,77
58,517,766595,-2982,-15304,-3221,56,33,61
58,518,766600,-2999,-15192,-3410,55,-2,51
58,519,766605,-3044,-15119,-3566,49,-31,32
58,520,766610,-3074,-15200,-3957,49,-69,17
58,521,766615,-2987,-15265,-4115,49,-84,5
58,522,766620,-3031,-15374,-4206,46,-63,-14
58,523,766625,-3092,-15495,-4295,46,-8,-37
58,524,766630,-3102,-15399,-4293,44,60,-58
58,525,766635,-2859,-15285,-4076,40,114,-77
58,526,766640,-2698,-15377,-3693,34,139,-98
58,527,766645,-2672,-15544,-3578,32,130,-120
58,528,766650,-2631,-15511,-3541,32,103,-137
58,529,766655,-2415,-15446,-3698,31,70,-149
58,530,766660,-2336,-15536,-3885,27,51,-165
58,531,766665,-2416,-15634,-3808,25,50,-187
58,532,766670,-2114,-15541,-3906,15,59,-213
58,533,766675,-1782,-15579,-4078,12,73,-234
58,534,766680,-1670,-15650,-3728,7,69,-255
58,535,766685,-1696,-15579,-3463,3,29,-271
58,536,766690,-1692,-15575,-3638,-1,-15,-283
58,537,766695,-1694,-15689,-3832,-4,-18,-299
58,538,766700,-1697,-15748,-3735,-8,5,-317
58,539,766705,-1675,-15822,-3561,-12,0,-331
58,540,766710,-1523,-15939,-3807,-19,-18,-344
58,541,766715,-1389,-16039,-4189,-24,-17,-362
58,542,766720,-1415,-15967,-4316,-32,16,-383
58,543,766725,-1540,-15824,-4131,-41,44,-401
58,544,766730,-1668,-15900,-4070,-45,34,-416
58,545,766735,-1593,-16053,-4082,-51,13,-429
58,546,766740,-1471,-16097,-4025,-56,12,-444
58,547,766745,-1491,-16052,-4009,-59,36,-462
58,548,766750,-1301,-15970,-3932,-66,44,-486
58,549,766755,-1215,-15909,-3802,-73,20,-502
58,550,766760,-1314,-15952,-3765,-78,-41,-516
58,551,766765,-1461,-15933,-3855,-83,-102,-529
58,552,766770,-1442,-15911,-4200,-87,-132,-538
58,553,766775,-1298,-15942,-4350,-91,-108,-553
58,554,766780,-846,-15978,-4264,-99,-67,-571
58,555,766785,-721,-15981,-3782,-108,-42,-591
58,556,766790,-759,-15986,-3657,-109,-69,-608
58,557,766795,-641,-16067,-4183,-113,-107,-615
58,558,766800,-449,-16243,-4608,-125,-97,-631
58,559,766805,-655,-16334,-4611,-137,-63,-654
58,560,766810,-816,-16259,-4672,-149,-48,-667
58,561,766815,-729,-16137,-5016,-160,-20,-682
58,562,766820,-651,-16335,-5237,-170,36,-706
58,563,766825,-641,-16525,-4708,-178,99,-732
58,564,766830,-748,-16544,-4040,-190,115,-748
58,565,766835,-873,-16541,-3948,-194,91,-760
58,566,766840,-639,-16607,-4322,-197,78,-775
58,567,766845,-446,-16690,-4282,-206,87,-793
58,568,766850,-515,-16707,-3773,-215,63,-812
58,569,766855,-503,-16630,-3627,-218,-21,-827
58,570,766860,-469,-16451,-3985,-225,-105,-837
58,571,766865,-234,-16512,-4305,-237,-149,-848
58,572,766870,-205,-16698,-4041,-250,-165,-864
58,573,766875,-77,-16934,-4052,-258,-209,-879
58,574,766880,40,-16993,-4668,-267,-241,-895
58,575,766885,-49,-17128,-5596,-278,-216,-911
58,576,766890,-472,-17200,-5846,-293,-144,-939
58,577,766895,-841,-17209,-5446,-312,-81,-964
58,578,766900,-1068,-17237,-4980,-320,-31,-980
58,579,766905,-1024,-17328,-4950,-327,38,-996
58,580,766910,-893,-17388,-4592,-333,131,-1021
58,581,766915,-818,-17510,-4005,-345,162,-1046
58,582,766920,-841,-17466,-3411,-348,99,-1064
58,583,766925,-876,-17393,-3631,-349,-22,-1073
58,584,766930,-862,-17466,-4273,-357,-110,-1084
58,585,766935,-1001,-17663,-4457,-368,-131,-1105
58,586,766940,-1142,-17781,-4106,-382,-148,-1121
58,587,766945,-1245,-17789,-4016,-387,-185,-1136
58,588,766950,-1436,-17805,-4242,-389,-206,-1148
58,589,766955,-1389,-17815,-4512,-397,-200,-1159
58,590,766960,-1237,-17980,-4728,-404,-180,-1174
58,591,766965,-1085,-18117,-5074,-411,-180,-1192
58,592,766970,-1573,-18102,-5001,-420,-175,-1213
58,593,766975,-2454,-17921,-4886,-427,-159,-1236
58,594,766980,-2713,-17768,-5217,-429,-106,-1240
58,595,766985,-2232,-17628,-5283,-433,8,-1247
58,596,766990,-1718,-17703,-4669,-433,123,-1267
58,597,766995,-1522,-17944,-3704,-435,148,-1283
58,598,767000,-2403,-11447,-4133,-437,76,-1300
58,599,767005,-4934,-10236,-3527,-398,5,-1234
58,600,767010,-14021,-4326,10350,-364,496,-1229
58,601,767015,6502,-14737,-13614,-228,-140,-158
58,602,767020,7473,-19750,-4339,-310,1559,-1017
58,603,767025,-3645,-18298,7490,-348,1110,-1333
58,604,767030,-3577,-17587,560,-219,-1499,-673
58,605,767035,-6289,-13382,-11588,-194,-1816,-725
58,606,767040,-1528,-19056,-8037,-451,1427,-991
58,607,767045,-3324,-15500,3803,-440,1858,-1149
58,608,767050,-1609,-16523,-431,-258,553,-917
58,609,767055,-1881,-17313,-6316,-194,-6,-874
58,610,767060,-2796,-16612,-7257,-259,346,-957
58,611,767065,-3141,-16073,-1917,-327,828,-1010
58,612,767070,-2420,-16052,-53,-326,643,-996
58,613,767075,-1125,-16732,-2562,-269,72,-922
58,614,767080,-643,-16972,-5848,-248,-152,-910
58,615,767085,-2048,-16911,-5227,-262,156,-958
58,616,767090,-2782,-16867,-2909,-270,443,-974
58,617,767095,-2227,-16676,-1904,-264,412,-957
58,618,767100,-1307,-16795,-2624,-261,179,-925
58,619,767105,-1135,-16900,-3127,-262,36,-922
58,620,767110,-1732,-16753,-2497,-267,30,-930
58,621,767115,-2221,-16472,-1991,-259,1,-921
58,622,767120,-2113,-16530,-2633,-241,-106,-893
58,623,767125,-1506,-16646,-4005,-236,-195,-872
58,624,767130,-1409,-16534,-4471,-245,-162,-876
58,625,767135,-1769,-16424,-4283,-253,-92,-880
58,626,767140,-2265,-16332,-4225,-254,-62,-875
58,627,767145,-2336,-16207,-4344,-251,-58,-867
58,628,767150,-2392,-16144,-4253,-244,-50,-856
58,629,767155,-2238,-16233,-4324,-242,-26,-849
58,630,767160,-2059,-16256,-3544,-241,29,-845
58,631,767165,-1693,-16121,-3412,-236,6,-832
58,632,767170,-1530,-16300,-3979,-229,-39,-819
58,633,767175,-1465,-16537,-4752,-227,-23,-814
58,634,767180,-1646,-16593,-4512,-230,79,-814
58,635,767185,-1814,-16468,-3787,-233,169,-812
58,636,767190,-1716,-16328,-3618,-228,199,-801
58,637,767195,-1427,-16244,-3541,-222,204,-790
58,638,767200,-1454,-16066,-2837,-227,189,-786
58,639,767205,-1271,-15889,-2331,-224,74,-766
58,640,767210,-946,-15841,-2339,-217,-98,-738
58,641,767215,-821,-15864,-2752,-208,-249,-717
58,642,767220,-936,-15981,-3464,-206,-343,-703
58,643,767225,-1248,-15984,-3947,-208,-374,-690
58,644,767230,-1336,-15781,-4095,-209,-381,-668
58,645,767235,-1163,-15704,-4603,-205,-381,-650
58,646,767240,-994,-15855,-5094,-198,-354,-637
58,647,767245,-1120,-15738,-4794,-200,-286,-634
58,648,767250,-1453,-15703,-4445,-197,-225,-624
58,649,767255,-1389,-15861,-4424,-190,-195,-607
58,650,767260,-1101,-15897,-4220,-193,-160,-597
58,651,767265,-734,-15849,-3987,-190,-150,-587
58,652,767270,-618,-15889,-3979,-186,-181,-572
58,653,767275,-887,-15993,-4069,-181,-226,-562
58,654,767280,-1039,-15954,-4281,-179,-247,-553
58,655,767285,-978,-15851,-4528,-179,-209,-539
58,656,767290,-670,-15752,-4551,-179,-143,-529
58,657,767295,-508,-15630,-4065,-178,-107,-520
58,658,767300,-572,-15552,-3889,-170,-133,-509
58,659,767305,-524,-15472,-4195,-161,-172,-490
58,660,767310,-469,-15378,-4466,-161,-176,-478
58,661,767315,-688,-15415,-4258,-164,-166,-472
58,662,767320,-825,-15567,-4009,-159,-189,-458
58,663,767325,-646,-15508,-3956,-156,-231,-441
58,664,767330,-482,-15400,-4391,-151,-244,-424
58,665,767335,-414,-15484,-4498,-149,-212,-416
58,666,767340,-284,-15451,-4046,-151,-187,-410
58,667,767345,-319,-15507,-3698,-144,-216,-397
58,668,767350,-361,-15619,-4190,-140,-275,-381
58,669,767355,-340,-15627,-4741,-137,-289,-367
58,670,767360,-450,-15497,-4700,-141,-262,-361
58,671,767365,-450,-15356,-4326,-143,-252,-354
58,672,767370,-289,-15264,-4135,-137,-286,-332
58,673,767375,127,-15396,-4267,-128,-335,-316
58,674,767380,311,-15416,-4503,-122,-350,-305
58,675,767385,166,-15402,-4909,-118,-343,-302
58,676,767390,-147,-15364,-5200,-115,-330,-292
58,677,767395,-296,-15323,-5560,-112,-315,-277
58,678,767400,-158,-15361,-5715,-110,-266,-269
58,679,767405,-75,-15421,-4665,-103,-135,-260
58,680,767410,78,-15391,-4287,-101,-133,-248
58,681,767415,423,-15220,-4292,-91,-163,-233
58,682,767420,663,-15122,-4418,-87,-181,-226
58,683,767425,492,-15157,-4375,-87,-186,-217
58,684,767430,156,-15166,-4421,-86,-212,-203
58,685,767435,218,-15053,-4485,-83,-242,-186
58,686,767440,412,-14980,-4435,-82,-242,-171
58,687,767445,704,-15034,-4354,-78,-228,-160
58,688,767450,881,-15080,-4289,-72,-231,-151
58,689,767455,864,-15016,-4484,-70,-263,-139
58,690,767460,737,-14961,-4852,-66,-301,-121
58,691,767465,664,-15077,-5430,-63,-295,-112
58,692,767470,885,-15064,-5666,-63,-221,-105
58,693,767475,1087,-15211,-5412,-62,-137,-101
58,694,767480,1099,-15346,-4993,-61,-101,-98
58,695,767485,1117,-15306,-5008,-56,-113,-85
58,696,767490,1347,-15163,-5254,-51,-112,-73
58,697,767495,1385,-15059,-5125,-51,-78,-71
58,698,767500,1205,-15069,-4689,-50,-70,-71
58,699,767505,1215,-15243,-4727,-44,-121,-51
58,700,767510,1436,-15272,-5199,-34,-163,-35
58,701,767515,1607,-15156,-5385,-32,-145,-32
58,702,767520,1566,-15109,-5246,-33,-103,-26
58,703,767525,1570,-15092,-5174,-28,-85,-19
58,704,767530,1686,-15072,-5288,-26,-80,-9
58,705,767535,1802,-15094,-5339,-24,-51,-2
58,706,767540,1974,-15094,-5215,-23,-3,2
58,707,767545,1933,-15082,-5154,-22,27,8
58,708,767550,1912,-15066,-4938,-25,21,10
58,709,767555,1908,-14982,-4889,-24,-18,16
58,710,767560,1934,-14961,-5154,-14,-42,24
58,711,767565,2132,-14950,-5587,-11,-19,26
58,712,767570,2216,-14834,-5546,-16,33,24
58,713,767575,2092,-14854,-5389,-20,55,21
58,714,767580,2092,-14913,-5401,-16,32,25
58,715,767585,2110,-14952,-5396,-15,4,32
58,716,767590,2206,-15004,-5323,-17,4,30
58,717,767595,2243,-15055,-5332,-15,28,29
58,718,767600,2211,-15033,-5591,-18,41,27
58,719,767605,2053,-14983,-5479,-19,63,22
58,720,767610,2063,-15084,-5313,-18,61,27
58,721,767615,2263,-15106,-5365,-13,46,28
58,722,767620,2325,-15056,-5422,-7,39,26
58,723,767625,2203,-15038,-5390,-6,49,21
58,724,767630,2080,-15011,-5409,-10,46,25
58,725,767635,2295,-15004,-5624,-12,39,28
58,726,767640,2754,-15133,-5888,-11,45,30
58,727,767645,3058,-15378,-5805,-13,51,24
58,728,767650,3070,-15378,-5290,-11,39,19
58,729,767655,2894,-15238,-5216,-7,0,17
58,730,767660,2680,-15226,-5586,-9,-12,15
58,731,767665,2641,-15265,-5488,-16,19,15
58,732,767670,2886,-15339,-5121,-21,20,13
58,733,767675,2943,-15345,-5161,-18,-20,13
58,734,767680,2821,-15334,-5262,-14,-56,13
58,735,767685,2644,-15207,-5544,-16,-64,13
58,736,767690,2491,-15144,-5779,-18,-45,12
58,737,767695,2532,-15075,-5719,-20,-42,13
58,738,767700,2668,-14999,-5540,-20,-67,17
58,739,767705,2613,-15098,-5596,-15,-123,20
58,740,767710,2536,-15167,-6142,-11,-166,23
58,741,767715,2600,-15080,-6143,-12,-138,24
58,742,767720,2688,-15174,-5941,-14,-103,23
58,743,767725,2863,-15212,-6121,-10,-78,22
58,744,767730,3055,-15127,-6015,-10,-35,20
58,745,767735,2929,-15049,-6120,-9,-2,16
58,746,767740,2584,-15238,-6152,-11,12,15
58,747,767745,2588,-15258,-5958,-17,17,16
58,748,767750,2574,-15202,-5601,-17,31,17
58,749,767755,2574,-15218,-5680,-12,46,22
58,750,767760,2578,-15103,-5599,-10,76,21
58,751,767765,2668,-15059,-5701,-13,77,24
58,752,767770,2548,-15090,-5389,-16,42,30
58,753,767775,2414,-15010,-5498,-15,33,37
58,754,767780,2501,-14987,-5638,-14,50,43
58,755,767785,2550,-15013,-5372,-16,82,43
58,756,767790,2568,-15077,-5201,-19,76,47
58,757,767795,2694,-14978,-5331,-14,40,52
58,758,767800,2920,-14930,-5856,-10,8,59
58,759,767805,2806,-15013,-6069,-13,12,56
58,760,767810,2403,-15053,-5813,-19,24,54
58,761,767815,2281,-15087,-5807,-18,-4,61
58,762,767820,2325,-15124,-5994,-15,-15,63
58,763,767825,2272,-15180,-6059,-11,8,60
58,764,767830,2179,-15329,-5811,-11,47,59
58,765,767835,2169,-15409,-5649,-13,61,60
58,766,767840,2253,-15383,-5682,-11,54,60
58,767,767845,2270,-15316,-5805,-9,50,63
58,768,767850,2222,-15299,-5791,-6,51,67
58,769,767855,2267,-15249,-5753,-8,57,72
58,770,767860,2312,-15213,-5805,-6,59,73
58,771,767865,2254,-15245,-5927,0,56,74
58,772,767870,2270,-15282,-5879,2,60,77
58,773,767875,2489,-15296,-5729,2,63,76
58,774,767880,2570,-15331,-5561,4,58,75
58,775,767885,2472,-15281,-5408,5,40,75
58,776,767890,2413,-15236,-5417,5,4,75
58,777,767895,2368,-15299,-5673,9,-30,75
58,778,767900,2361,-15292,-5807,11,-41,78
58,779,767905,2388,-15205,-5805,10,-24,74
58,780,767910,2313,-15081,-5774,7,4,70
58,781,767915,2451,-15071,-5838,11,23,73
58,782,767920,2601,-15079,-5778,9,42,69
58,783,767925,2563,-15031,-5631,12,46,67
58,784,767930,2395,-15037,-5567,16,38,70
58,785,767935,2290,-15045,-5668,14,30,67
58,786,767940,2348,-15079,-5705,15,36,65
58,787,767945,2615,-15132,-5604,15,51,67
58,788,767950,2612,-15246,-5531,14,58,62
58,789,767955,2434,-15325,-5767,19,52,60
58,790,767960,2425,-15178,-5885,16,53,62
58,791,767965,2355,-15118,-5717,14,62,61
58,792,767970,2376,-15185,-5609,17,70,60
58,793,767975,2563,-15138,-5507,17,70,59
58,794,767980,2704,-15164,-5606,17,62,59
58,795,767985,2719,-15222,-5729,16,54,57
58,796,767990,2490,-15170,-5487,11,47,46
58,797,767995,2193,-15192,-5222,9,29,45
58,798,768000,2330,-15236,-5252,13,14,53
58,799,768005,2691,-15368,-5294,11,20,50
58,800,768010,2827,-15427,-5119,8,35,44
58,801,768015,2848,-15399,-5087,9,10,47
58,802,768020,2701,-15426,-5150,9,-40,47
58,803,768025,2658,-15449,-5790,10,-105,56
58,804,768030,2634,-15476,-5990,10,-99,54
58,805,768035,2690,-15470,-5865,2,-63,49
58,806,768040,2668,-15451,-5823,3,-47,49
58,807,768045,2680,-15384,-5837,5,-52,50
58,808,768050,2656,-15313,-5946,8,-51,52
58,809,768055,2682,-15310,-6064,6,-30,50
58,810,768060,2725,-15291,-6000,2,5,46
58,811,768065,2593,-15332,-5765,-1,35,39
58,812,768070,2502,-15222,-5631,-1,33,38
58,813,768075,2501,-15042,-5543,-3,18,38
58,814,768080,2325,-15030,-5559,2,18,37
58,815,768085,2259,-15050,-5704,4,35,39
58,816,768090,2387,-14977,-5772,3,59,38
58,817,768095,2498,-14997,-5798,0,70,35
58,818,768100,2516,-15084,-5531,-5,61,28
58,819,768105,2399,-15147,-5202,-5,31,24
58,820,768110,2327,-15173,-5254,1,-7,29
58,821,768115,2334,-15251,-5570,2,-16,29
58,822,768120,2414,-15224,-5625,-2,-1,27
58,823,768125,2459,-15211,-5497,-6,1,21
58,824,768130,2393,-15251,-5383,-3,-25,21
58,825,768135,2419,-15187,-5463,-4,-64,23
58,826,768140,2711,-15343,-5689,-3,-101,24
58,827,768145,2752,-15277,-5524,-6,-96,18
58,828,768150,2605,-15208,-5534,-5,-115,13
58,829,768155,2320,-15192,-5782,0,-136,18
58,830,768160,2317,-15131,-6129,5,-137,22
58,831,768165,2476,-15185,-6300,0,-105,18
58,832,768170,2463,-15148,-6119,-6,-52,11
58,833,768175,2405,-15138,-5693,-11,-6,4
58,834,768180,2169,-15183,-5388,-10,8,1
58,835,768185,2170,-15206,-5740,-3,-22,4
58,836,768190,2163,-15153,-5656,-4,-23,5
58,837,768195,2188,-15187,-5701,-2,-28,2
58,838,768200,2177,-15177,-5822,-1,-23,-1
58,839,768205,2187,-15175,-6019,0,-15,-3
58,840,768210,2141,-15269,-5992,0,-1,-6
58,841,768215,2206,-15232,-5781,-1,-6,-7
58,842,768220,2330,-15233,-5629,2,-17,-4
58,843,768225,2550,-15212,-5811,3,-30,-2
58,844,768230,2425,-15235,-5730,-2,-29,-6
58,845,768235,2307,-15263,-5484,-2,-51,-7
58,846,768240,2308,-15253,-5464,2,-92,2
58,847,768245,2430,-15225,-5806,5,-118,5
58,848,768250,2418,-15236,-6064,4,-97,4
58,849,768255,2327,-15184,-5720,3,-64,3
58,850,768260,2250,-15169,-5326,1,-61,4
58,851,768265,2282,-15098,-5349,1,-91,9
58,852,768270,2425,-15050,-5656,4,-115,17
58,853,768275,2296,-15109,-5737,3,-119,16
58,854,768280,2125,-15112,-5685,1,-120,15
58,855,768285,2108,-15023,-5759,2,-126,22
58,856,768290,2207,-14990,-5917,0,-120,25
58,857,768295,2289,-15045,-5948,-3,-89,23
58,858,768300,2353,-15121,-5820,-1,-48,24
58,859,768305,2358,-15151,-5769,-2,-24,24
58,860,768310,2325,-15176,-5879,-4,-16,27
58,861,768315,2285,-15194,-5773,-9,-10,25
58,862,768320,2221,-15130,-5505,-12,-11,25
58,863,768325,2150,-15070,-5399,-10,-28,30
58,864,768330,2165,-15068,-5426,-14,-50,33
58,865,768335,2240,-15080,-5386,-11,-73,38
58,866,768340,2166,-15145,-5377,-10,-95,38
58,867,768345,2098,-15127,-5458,-12,-111,42
58,868,768350,2052,-15141,-5623,-11,-120,48
58,869,768355,2062,-15133,-5727,-10,-117,47
58,870,768360,1965,-15094,-5862,-14,-98,46
58,871,768365,1972,-15099,-5870,-18,-83,50
58,872,768370,2084,-15067,-5893,-21,-76,53
58,873,768375,2124,-15045,-5760,-19,-80,56
58,874,768380,2150,-15056,-5722,-20,-93,55
58,875,768385,2167,-15025,-5689,-21,-105,56
58,876,768390,1972,-15016,-5765,-15,-107,58
58,877,768395,1849,-15029,-6065,-15,-99,61
58,878,768400,1905,-15059,-6285,-15,-70,65
58,879,768405,1927,-15134,-6227,-17,-31,60
58,880,768410,1994,-15154,-6009,-22,-2,57
58,881,768415,1947,-15103,-5625,-20,19,57
58,882,768420,1983,-15143,-5759,-15,10,63
58,883,768425,2056,-15136,-5748,-17,13,63
58,884,768430,2157,-15187,-5595,-20,12,65
58,885,768435,2020,-15330,-5512,-17,6,64
58,886,768440,1867,-15368,-5609,-12,-16,66
58,887,768445,1821,-15301,-5858,-11,-36,72
58,888,768450,1725,-15252,-5903,-16,-23,69
58,889,768455,1818,-15244,-5857,-15,-9,74
58,890,768460,1901,-15384,-5783,-14,0,76
58,891,768465,1908,-15448,-5489,-18,1,73
58,892,768470,2069,-15319,-5310,-14,-23,79
58,893,768475,2102,-15272,-5635,-7,-49,83
58,894,768480,2191,-15375,-6026,-4,-60,85
58,895,768485,1971,-15381,-5914,-8,-41,79
58,896,768490,1848,-15314,-5939,-8,-43,81
58,897,768495,1834,-15191,-6041,-10,-44,86
58,898,768500,1914,-15128,-6138,-11,-30,85
58,899,768505,1851,-15161,-5885,-4,10,85
58,900,768510,1842,-15102,-5889,-7,9,83
58,901,768515,1849,-15138,-5862,-4,-1,84
58,902,768520,1906,-15052,-5744,1,-10,85
58,903,768525,1817,-14987,-5683,3,-16,86
58,904,768530,1812,-14938,-5784,7,-20,85
58,905,768535,2012,-14924,-5795,7,-14,86
58,906,768540,2105,-14989,-5844,2,-9,84
58,907,768545,1981,-15104,-5867,7,-5,81
58,908,768550,1884,-15118,-5809,5,-3,78
58,909,768555,1875,-15020,-5770,3,-9,78
58,910,768560,1837,-15073,-5691,5,-17,76
58,911,768565,2021,-15107,-5642,6,-37,80
58,912,768570,2100,-15224,-5789,13,-56,81
58,913,768575,2020,-15366,-5866,14,-77,76
58,914,768580,2000,-15366,-5889,12,-88,74
58,915,768585,1965,-15287,-6021,14,-88,75
58,916,768590,1867,-15329,-6251,14,-78,71
58,917,768595,1905,-15311,-6216,12,-59,68
58,918,768600,1958,-15315,-6021,10,-40,66
58,919,768605,1936,-15367,-6082,13,-33,66
58,920,768610,1948,-15363,-6112,13,-18,64
58,921,768615,2014,-15311,-6028,11,6,60
58,922,768620,1967,-15270,-5913,13,25,59
58,923,768625,1995,-15284,-5903,15,24,59
58,924,768630,2047,-15221,-5868,14,18,60
58,925,768635,2080,-15197,-5723,11,3,57
58,926,768640,1995,-15244,-5649,10,-17,53
58,927,768645,1925,-15259,-5717,13,-32,53
58,928,768650,1908,-15259,-5919,10,-34,53
58,929,768655,2015,-15260,-6005,8,-12,51
58,930,768660,1904,-15257,-5725,5,15,44
58,931,768665,1759,-15304,-5487,1,17,40
58,932,768670,1772,-15236,-5295,-1,5,41
58,933,768675,1889,-15216,-5271,-2,-19,44
58,934,768680,1986,-15346,-5379,-3,-41,43
58,935,768685,1981,-15316,-5500,0,-64,44
58,936,768690,1974,-15299,-5689,-1,-90,45
58,937,768695,1926,-15392,-5906,-2,-101,45
58,938,768700,1962,-15425,-6130,-4,-84,45
58,939,768705,1937,-15321,-6167,-5,-51,42
58,940,768710,1885,-15306,-6033,-9,-22,39
58,941,768715,1930,-15310,-5948,-10,-16,35
58,942,768720,1880,-15267,-5878,-11,-24,33
58,943,768725,1823,-15285,-5907,-8,-30,34
58,944,768730,1888,-15224,-5989,-5,-34,36
58,945,768735,1903,-15151,-5967,-9,-26,33
58,946,768740,1842,-15192,-6017,-6,-12,30
58,947,768745,1767,-15222,-6041,-9,5,30
58,948,768750,1685,-15168,-5963,-9,23,28
58,949,768755,1711,-15148,-5840,-11,24,28
58,950,768760,1786,-15246,-5685,-13,15,30
58,951,768765,1797,-15230,-5627,-8,-10,32
58,952,768770,1725,-15201,-5733,-4,-28,32
58,953,768775,1652,-15156,-5888,-3,-30,30
58,954,768780,1704,-15173,-5979,0,-25,32
58,955,768785,1896,-15295,-5796,-3,-12,34
58,956,768790,2027,-15370,-5539,-5,-7,31
58,957,768795,2038,-15353,-5642,-2,-27,31
58,958,768800,1873,-15364,-5872,-3,-52,34
58,959,768805,1669,-15333,-5880,-7,-69,30
58,960,768810,1519,-15290,-5910,-4,-83,30
58,961,768815,1562,-15352,-6043,-1,-78,34
58,962,768820,1728,-15305,-6154,0,-49,34
58,963,768825,1752,-15271,-6007,-1,-19,30
58,964,768830,1645,-15278,-5764,0,-17,32
58,965,768835,1616,-15265,-5769,2,-39,36
58,966,768840,1679,-15245,-5857,4,-48,34
58,967,768845,1679,-15204,-5907,6,-33,31
58,968,768850,1494,-15239,-5857,5,-9,29
58,969,768855,1468,-15262,-5868,7,2,31
58,970,768860,1537,-15255,-5938,8,3,35
58,971,768865,1582,-15213,-6037,7,6,33
58,972,768870,1430,-15121,-5837,8,8,36
58,973,768875,1464,-15097,-5875,10,-1,41
58,974,768880,1570,-15082,-5820,8,1,40
58,975,768885,1569,-15161,-5535,6,6,37
58,976,768890,1475,-15293,-5425,8,-3,38
58,977,768895,1639,-15239,-5615,10,-20,42
58,978,768900,1568,-15148,-5731,8,-21,41
58,979,768905,1373,-15188,-5650,5,-16,39
58,980,768910,1388,-15219,-5620,5,-12,41
58,981,768915,1502,-15266,-5674,5,-6,47
58,982,768920,1631,-15362,-5686,4,7,45
58,983,768925,1625,-15452,-5667,3,15,39
58,984,768930,1440,-15409,-5582,-1,4,40
58,985,768935,1324,-15325,-5792,5,-19,47
58,986,768940,1359,-15335,-6020,5,-34,51
58,987,768945,1426,-15397,-6009,2,-20,52
58,988,768950,1534,-15416,-5890,0,-7,50
58,989,768955,1489,-15412,-5785,2,-8,48
58,990,768960,1460,-15391,-5864,4,-13,50
58,991,768965,1431,-15366,-5994,5,-12,53
58,992,768970,1421,-15329,-6102,4,6,52
58,993,768975,1537,-15333,-6115,1,24,52
58,994,768980,1531,-15296,-5896,-2,31,48
58,995,768985,1450,-15372,-5872,0,26,49
58,996,768990,1474,-15381,-5989,3,25,51
58,997,768995,1469,-15290,-5925,2,44,47
58,998,769000,1391,-15211,-5814,1,63,46
58,999,769005,1452,-15184,-5787,3,76,51
