event_id,seq,ts_ms,ax,ay,az,gx,gy,gz
28,0,1836360,-156,-16579,704,30,67,-2
28,1,1836365,-37,-16559,696,34,82,-9
28,2,1836370,114,-16523,747,37,94,-13
28,3,1836375,246,-16508,944,40,99,-8
28,4,1836380,369,-16515,1082,38,98,-5
28,5,1836385,428,-16431,1180,34,91,-3
28,6,1836390,493,-16405,1270,34,72,-3
28,7,1836395,494,-16413,1286,33,57,-5
28,8,1836400,473,-16401,1256,35,44,-2
28,9,1836405,504,-16379,1275,37,34,1
28,10,1836410,453,-16394,1211,32,21,4
28,11,1836415,407,-16388,1185,31,15,6
28,12,1836420,342,-16412,1178,31,12,6
28,13,1836425,260,-16435,1214,31,12,5
28,14,1836430,168,-16448,1212,30,11,4
28,15,1836435,108,-16437,1227,29,11,5
28,16,1836440,121,-16444,1212,24,13,4
28,17,1836445,89,-16474,1150,22,16,6
28,18,1836450,84,-16490,1087,21,21,5
28,19,1836455,53,-16510,1083,20,25,4
28,20,1836460,52,-16525,1078,19,24,3
28,21,1836465,68,-16520,1047,20,23,1
28,22,1836470,131,-16525,1031,19,24,1
28,23,1836475,123,-16491,1104,20,22,1
28,24,1836480,126,-16484,1197,19,12,2
28,25,1836485,104,-16513,1209,17,5,1
28,26,1836490,126,-16502,1195,19,-7,5
28,27,1836495,138,-16558,1207,15,-16,2
28,28,1836500,161,-16573,1166,14,-23,2
28,29,1836505,167,-16576,1158,16,-24,0
28,30,1836510,198,-16559,1157,12,-24,2
28,31,1836515,231,-16529,1201,12,-26,3
28,32,1836520,287,-16504,1248,12,-24,1
28,33,1836525,294,-16495,1262,9,-20,4
28,34,1836530,299,-16446,1255,3,-10,2
28,35,1836535,306,-16470,1187,3,-2,3
28,36,1836540,217,-16488,1141,0,8,5
28,37,1836545,122,-16482,1106,-1,19,3
28,38,1836550,18,-16494,1051,-5,30,5
28,39,1836555,-173,-16532,1008,-4,38,-1
28,40,1836560,-203,-16503,973,-4,40,-2
28,41,1836565,-195,-16467,1001,-2,38,-2
28,42,1836570,-142,-16455,1073,-1,32,-5
28,43,1836575,-12,-16412,1168,-4,23,-11
28,44,1836580,100,-16374,1186,-2,10,-11
28,45,1836585,145,-16375,1248,-2,-8,-10
28,46,1836590,206,-16358,1309,-6,-21,-8
28,47,1836595,241,-16330,1329,-7,-34,-6
28,48,1836600,233,-16280,1326,-6,-48,-4
28,49,1836605,245,-16243,1268,-3,-61,-2
28,50,1836610,252,-16244,1176,-8,-64,-6
28,51,1836615,256,-16237,1113,-10,-58,-5
28,52,1836620,236,-16262,1054,-9,-55,-7
28,53,1836625,193,-16267,1048,-9,-48,-6
28,54,1836630,73,-16301,999,-9,-35,-4
28,55,1836635,-54,-16364,969,-12,-22,-3
28,56,1836640,-152,-16404,974,-13,-9,-8
28,57,1836645,-237,-16441,906,-13,2,-10
28,58,1836650,-227,-16428,932,-15,14,-12
28,59,1836655,-145,-16415,869,-14,21,-15
28,60,1836660,-115,-16416,927,-13,28,-18
28,61,1836665,31,-16371,1001,-14,31,-22
28,62,1836670,95,-16348,1124,-10,33,-24
28,63,1836675,151,-16336,1286,-9,29,-23
28,64,1836680,141,-16304,1400,-12,18,-18
28,65,1836685,154,-16293,1385,-11,5,-16
28,66,1836690,123,-16337,1258,-17,-8,-20
28,67,1836695,107,-16339,1111,-19,-21,-19
28,68,1836700,145,-16328,1012,-19,-27,-19
28,69,1836705,179,-16341,918,-18,-31,-19
28,70,1836710,198,-16316,879,-15,-29,-20
28,71,1836715,220,-16342,923,-13,-30,-21
28,72,1836720,274,-16365,991,-13,-32,-19
28,73,1836725,283,-16402,1032,-16,-40,-18
28,74,1836730,299,-16440,1008,-17,-47,-16
28,75,1836735,318,-16479,891,-17,-53,-16
28,76,1836740,358,-16492,906,-16,-56,-15
28,77,1836745,387,-16459,903,-13,-58,-14
28,78,1836750,346,-16481,938,-10,-63,-10
28,79,1836755,293,-16529,962,-9,-67,-8
28,80,1836760,222,-16533,1050,-10,-73,-6
28,81,1836765,230,-16509,1095,-11,-81,-7
28,82,1836770,246,-16551,1033,-12,-86,-9
28,83,1836775,256,-16525,960,-12,-92,-9
28,84,1836780,323,-16512,921,-8,-91,-7
28,85,1836785,256,-16507,913,-6,-81,-3
28,86,1836790,326,-16480,906,-6,-71,-2
28,87,1836795,312,-16442,1034,-6,-62,-1
28,88,1836800,360,-16459,1088,-7,-55,-3
28,89,1836805,428,-16430,1112,-9,-45,-2
28,90,1836810,442,-16439,1114,-12,-38,-1
28,91,1836815,416,-16433,1079,-14,-25,4
28,92,1836820,367,-16464,1011,-9,-11,7
28,93,1836825,311,-16455,1033,-13,7,7
28,94,1836830,200,-16491,1009,-15,25,7
28,95,1836835,124,-16510,998,-14,38,7
28,96,1836840,50,-16505,1007,-13,45,5
28,97,1836845,5,-16507,1033,-16,57,7
28,98,1836850,-5,-16487,1021,-15,64,8
28,99,1836855,25,-16486,1003,-14,68,8
28,100,1836860,56,-16515,1024,-13,66,4
28,101,1836865,60,-16540,1073,-12,62,6
28,102,1836870,125,-16542,1124,-11,53,9
28,103,1836875,217,-16533,1118,-11,42,7
28,104,1836880,271,-16569,1134,-10,31,7
28,105,1836885,258,-16597,1146,-11,18,13
28,106,1836890,292,-16548,1104,-9,5,16
28,107,1836895,319,-16529,1082,-10,-8,17
28,108,1836900,302,-16574,1064,-10,-16,17
28,109,1836905,317,-16570,1117,-5,-23,20
28,110,1836910,322,-16560,1134,-7,-33,21
28,111,1836915,272,-16596,1122,-7,-35,22
28,112,1836920,160,-16587,1087,-7,-35,23
28,113,1836925,94,-16614,1075,-9,-33,21
28,114,1836930,9,-16636,1049,-8,-27,24
28,115,1836935,17,-16634,930,-9,-23,24
28,116,1836940,-15,-16609,905,-11,-11,22
28,117,1836945,-36,-16615,831,-8,1,20
28,118,1836950,-46,-16595,852,-6,8,18
28,119,1836955,-8,-16530,887,-5,16,16
28,120,1836960,4,-16491,959,-3,19,18
28,121,1836965,60,-16484,1016,-2,21,17
28,122,1836970,69,-16431,1065,-5,21,19
28,123,1836975,115,-16442,1096,-4,20,18
28,124,1836980,93,-16464,1061,-1,14,20
28,125,1836985,93,-16456,1016,-1,9,19
28,126,1836990,70,-16455,1050,-2,7,19
28,127,1836995,74,-16408,1052,3,3,18
28,128,1837000,107,-16400,1105,2,1,16
28,129,1837005,98,-16381,1127,2,-1,18
28,130,1837010,91,-16388,1117,1,-5,22
28,131,1837015,54,-16424,1098,2,-5,21
28,132,1837020,63,-16394,1037,4,-8,19
28,133,1837025,28,-16413,941,5,-7,17
28,134,1837030,0,-16470,902,7,-8,16
28,135,1837035,44,-16492,831,8,-4,13
28,136,1837040,-13,-16510,827,9,3,16
28,137,1837045,-14,-16508,768,9,5,15
28,138,1837050,-36,-16500,752,10,8,13
28,139,1837055,-73,-16551,823,15,12,10
28,140,1837060,-86,-16561,855,12,17,9
28,141,1837065,-49,-16522,879,14,15,6
28,142,1837070,10,-16493,893,17,11,8
28,143,1837075,78,-16461,982,19,8,7
28,144,1837080,104,-16475,1075,21,3,11
28,145,1837085,99,-16487,1124,20,-4,7
28,146,1837090,81,-16452,1232,20,-10,9
28,147,1837095,153,-16385,1252,20,-13,6
28,148,1837100,97,-16351,1254,20,-19,5
28,149,1837105,67,-16348,1226,16,-19,5
28,150,1837110,17,-16407,1124,17,-17,5
28,151,1837115,-38,-16430,1027,19,-12,6
28,152,1837120,-78,-16477,903,15,-5,3
28,153,1837125,-135,-16470,845,19,7,1
28,154,1837130,-169,-16487,800,20,24,-2
28,155,1837135,-150,-16522,835,20,34,-2
28,156,1837140,-165,-16592,895,21,43,-5
28,157,1837145,-185,-16553,962,18,51,-5
28,158,1837150,-173,-16545,972,17,51,-6
28,159,1837155,-119,-16561,957,18,51,-11
28,160,1837160,-77,-16542,1013,20,46,-11
28,161,1837165,12,-16490,1012,22,37,-12
28,162,1837170,109,-16467,1065,23,28,-14
28,163,1837175,164,-16407,1217,23,17,-13
28,164,1837180,202,-16343,1306,25,5,-10
28,165,1837185,232,-16344,1369,23,-11,-6
28,166,1837190,199,-16350,1365,21,-24,-3
28,167,1837195,152,-16318,1391,21,-36,-8
28,168,1837200,113,-16326,1325,21,-48,-6
28,169,1837205,80,-16351,1157,20,-52,-5
28,170,1837210,21,-16391,1055,19,-51,-4
28,171,1837215,18,-16415,1007,16,-40,-6
28,172,1837220,-20,-16474,943,16,-31,-7
28,173,1837225,-8,-16499,991,17,-17,-10
28,174,1837230,23,-16481,1050,17,-5,-11
28,175,1837235,68,-16484,1086,16,5,-13
28,176,1837240,100,-16469,1133,15,12,-14
28,177,1837245,169,-16462,1140,13,15,-16
28,178,1837250,210,-16430,1089,11,16,-16
28,179,1837255,135,-16441,1107,10,17,-13
28,180,1837260,112,-16484,1012,11,15,-10
28,181,1837265,71,-16505,962,12,16,-11
28,182,1837270,40,-16502,1006,15,17,-11
28,183,1837275,79,-16486,1063,12,15,-14
28,184,1837280,124,-16451,1145,13,11,-17
28,185,1837285,162,-16406,1237,13,9,-18
28,186,1837290,177,-16387,1364,9,1,-11
28,187,1837295,153,-16358,1358,8,-7,-10
28,188,1837300,135,-16390,1306,3,-17,-12
28,189,1837305,135,-16421,1219,3,-21,-14
28,190,1837310,126,-16377,1131,4,-20,-14
28,191,1837315,130,-16451,1078,1,-15,-12
28,192,1837320,69,-16503,1039,2,-6,-8
28,193,1837325,-22,-16557,977,0,-1,-6
28,194,1837330,-60,-16519,1004,-1,1,-8
28,195,1837335,-68,-16586,892,2,2,-11
28,196,1837340,12,-16562,962,0,5,-14
28,197,1837345,62,-16579,998,-2,1,-16
28,198,1837350,128,-16575,1033,2,-2,-15
28,199,1837355,163,-16581,1126,2,0,-14
28,200,1837360,92,-16563,1281,2,-5,-10
28,201,1837365,69,-16553,1277,1,-18,-10
28,202,1837370,101,-16539,1280,-1,-31,-12
28,203,1837375,100,-16503,1263,-3,-41,-12
28,204,1837380,111,-16449,1204,-2,-44,-10
28,205,1837385,130,-16417,1186,-4,-42,-8
28,206,1837390,128,-16424,1247,-5,-45,-9
28,207,1837395,101,-16367,1222,-5,-49,-11
28,208,1837400,78,-16358,1189,-5,-48,-7
28,209,1837405,56,-16419,1139,-7,-46,-8
28,210,1837410,42,-16373,1146,-7,-41,-7
28,211,1837415,-38,-16385,1102,-10,-37,-6
28,212,1837420,-39,-16401,1011,-8,-34,-7
28,213,1837425,-89,-16414,1043,-10,-30,-5
28,214,1837430,-134,-16426,1002,-10,-34,-7
28,215,1837435,-146,-16413,1002,-10,-37,-8
28,216,1837440,-92,-16440,995,-10,-42,-11
28,217,1837445,-59,-16462,1052,-6,-43,-12
28,218,1837450,0,-16460,1103,-5,-44,-13
28,219,1837455,90,-16508,1240,-6,-54,-8
28,220,1837460,138,-16559,1283,-3,-65,-9
28,221,1837465,168,-16546,1275,-6,-77,-6
28,222,1837470,240,-16562,1231,-9,-82,-2
28,223,1837475,328,-16544,1254,-10,-89,-1
28,224,1837480,365,-16515,1205,-12,-96,3
28,225,1837485,433,-16512,1167,-10,-95,3
28,226,1837490,450,-16457,1172,-11,-89,0
28,227,1837495,458,-16435,1245,-9,-84,7
28,228,1837500,474,-16453,1373,-15,-82,15
28,229,1837505,421,-16444,1296,-15,-77,13
28,230,1837510,371,-16421,1207,-15,-74,15
28,231,1837515,297,-16427,1202,-18,-61,19
28,232,1837520,176,-16472,1115,-20,-46,21
28,233,1837525,70,-16470,1007,-23,-35,23
28,234,1837530,-24,-16472,917,-25,-19,21
28,235,1837535,-127,-16456,909,-23,-5,22
28,236,1837540,-142,-16469,910,-24,12,22
28,237,1837545,-111,-16476,904,-22,22,21
28,238,1837550,-90,-16473,949,-23,34,19
28,239,1837555,-80,-16496,1029,-24,39,17
28,240,1837560,-24,-16466,1010,-22,39,17
28,241,1837565,38,-16435,1020,-20,37,20
28,242,1837570,61,-16455,1084,-21,30,23
28,243,1837575,49,-16451,1114,-23,19,23
28,244,1837580,89,-16424,1043,-17,1,25
28,245,1837585,115,-16421,999,-15,-10,26
28,246,1837590,166,-16474,1074,-17,-24,27
28,247,1837595,172,-16485,1161,-12,-36,30
28,248,1837600,135,-16447,1130,-9,-53,31
28,249,1837605,95,-16438,1176,-13,-67,36
28,250,1837610,88,-16459,1076,-12,-79,37
28,251,1837615,71,-16456,947,-14,-85,36
28,252,1837620,-35,-16473,865,-14,-91,41
28,253,1837625,-173,-16452,637,-11,-92,46
28,254,1837630,-362,-16480,443,-11,-87,48
28,255,1837635,-602,-16560,407,-8,-75,46
28,256,1837640,-675,-16571,341,-2,-65,44
28,257,1837645,-841,-16585,323,1,-60,37
28,258,1837650,-1006,-16571,494,4,-60,33
28,259,1837655,-1377,-16614,1059,14,-78,39
28,260,1837660,-1640,-16648,1430,21,-93,41
28,261,1837665,-1918,-16755,1893,19,-117,36
28,262,1837670,-2273,-16812,2442,19,-161,30
28,263,1837675,-2680,-16906,2719,21,-215,28
28,264,1837680,-3051,-17000,2685,19,-262,29
28,265,1837685,-3482,-16891,2830,13,-302,28
28,266,1837690,-3874,-16825,2976,5,-349,22
28,267,1837695,-4116,-16922,2672,8,-416,9
28,268,1837700,-4167,-16936,2275,12,-464,-9
28,269,1837705,-4069,-16894,2229,11,-478,-21
28,270,1837710,-4036,-16835,2397,12,-484,-30
28,271,1837715,-4086,-16835,2554,14,-492,-34
28,272,1837720,-4128,-16798,2750,16,-501,-42
28,273,1837725,-4180,-16684,2922,11,-497,-48
28,274,1837730,-4280,-16810,2903,3,-485,-57
28,275,1837735,-4340,-16756,2669,-7,-471,-71
28,276,1837740,-4442,-16723,2438,-14,-445,-81
28,277,1837745,-4543,-16717,1970,-16,-410,-86
28,278,1837750,-4624,-16651,1639,-18,-356,-95
28,279,1837755,-4835,-16572,1637,-16,-292,-110
28,280,1837760,-5047,-16482,1545,-15,-238,-124
28,281,1837765,-5226,-16393,1613,-18,-183,-139
28,282,1837770,-5365,-16398,1778,-20,-137,-149
28,283,1837775,-5352,-16390,1927,-22,-105,-160
28,284,1837780,-5393,-16347,2032,-23,-91,-171
28,285,1837785,-5347,-16328,2089,-23,-93,-187
28,286,1837790,-5140,-16364,2064,-23,-102,-196
28,287,1837795,-4928,-16388,2161,-20,-111,-208
28,288,1837800,-4748,-16362,2336,-19,-139,-212
28,289,1837805,-4448,-16306,2351,-16,-178,-215
28,290,1837810,-4048,-16381,2150,-18,-228,-219
28,291,1837815,-3568,-16531,1772,-18,-283,-220
28,292,1837820,-2983,-16693,1443,-16,-318,-221
28,293,1837825,-2415,-16805,1213,-11,-330,-221
28,294,1837830,-1907,-16824,1122,-2,-333,-215
28,295,1837835,-1553,-16816,1267,6,-322,-207
28,296,1837840,-1411,-16765,1635,8,-314,-192
28,297,1837845,-1518,-16765,1870,4,-325,-177
28,298,1837850,-1758,-16832,1669,5,-343,-165
28,299,1837855,-1972,-16898,1365,-1,-351,-156
28,300,1837860,-2207,-16854,1061,-4,-358,-148
28,301,1837865,-2381,-16731,671,2,-370,-142
28,302,1837870,-2484,-16735,509,12,-382,-134
28,303,1837875,-2531,-16748,583,26,-394,-125
28,304,1837880,-2510,-16783,872,38,-415,-121
28,305,1837885,-2290,-16821,1251,42,-449,-115
28,306,1837890,-2005,-16872,1548,44,-498,-109
28,307,1837895,-1694,-16918,1602,45,-549,-98
28,308,1837900,-1335,-16996,1614,48,-593,-84
28,309,1837905,-1122,-17002,1480,51,-620,-67
28,310,1837910,-968,-16993,1328,55,-647,-45
28,311,1837915,-748,-16904,1295,59,-665,-28
28,312,1837920,-484,-16731,1144,63,-690,-19
28,313,1837925,-50,-16601,1005,69,-705,-9
28,314,1837930,360,-16533,829,71,-708,3
28,315,1837935,717,-16479,496,74,-693,25
28,316,1837940,904,-16436,250,78,-672,58
28,317,1837945,846,-16405,197,80,-643,84
28,318,1837950,789,-16436,82,88,-607,100
28,319,1837955,807,-16523,19,97,-560,112
28,320,1837960,838,-16368,80,105,-510,119
28,321,1837965,877,-16442,219,103,-466,137
28,322,1837970,1046,-16294,96,103,-433,153
28,323,1837975,1210,-16203,159,106,-378,173
28,324,1837980,1253,-16185,276,111,-328,196
28,325,1837985,1322,-16198,463,120,-298,212
28,326,1837990,1487,-16159,577,123,-292,224
28,327,1837995,1592,-16061,668,130,-304,243
28,328,1838000,1680,-16095,614,133,-331,260
28,329,1838005,1738,-16110,600,134,-361,281
28,330,1838010,1718,-16000,595,144,-407,301
28,331,1838015,1718,-15815,535,155,-457,317
28,332,1838020,1911,-15666,565,170,-548,349
28,333,1838025,1924,-15623,481,170,-603,367
28,334,1838030,1899,-15664,472,181,-659,391
28,335,1838035,1787,-15747,335,192,-717,407
28,336,1838040,1617,-15825,356,202,-758,418
28,337,1838045,1520,-15862,564,216,-786,431
28,338,1838050,1308,-15946,889,229,-816,443
28,339,1838055,991,-15895,1183,232,-844,459
28,340,1838060,606,-15699,1391,229,-871,482
28,341,1838065,181,-16499,1279,233,-886,515
28,342,1838070,-396,-16252,1412,223,-878,470
28,343,1838075,-753,-16573,554,230,-931,483
28,344,1838080,-901,-16534,184,234,-931,470
28,345,1838085,-904,-16362,-375,245,-920,467
28,346,1838090,-820,-16084,-259,255,-883,466
28,347,1838095,-730,-15782,52,268,-860,457
28,348,1838100,-538,-15459,648,282,-859,455
28,349,1838105,-259,-15292,1110,292,-867,449
28,350,1838110,-111,-15191,1425,290,-871,445
28,351,1838115,-14,-15188,1642,282,-872,446
28,352,1838120,35,-15282,1437,274,-864,446
28,353,1838125,75,-15500,950,271,-823,442
28,354,1838130,-106,-15688,449,273,-741,431
28,355,1838135,-343,-15815,200,274,-629,424
28,356,1838140,-545,-15989,-99,270,-508,417
28,357,1838145,-709,-16151,-316,264,-392,406
28,358,1838150,-862,-16290,-519,258,-283,394
28,359,1838155,-696,-16391,-650,254,-189,380
28,360,1838160,-277,-16362,-449,258,-119,363
28,361,1838165,271,-16258,-112,269,-80,347
28,362,1838170,919,-16029,545,278,-72,333
28,363,1838175,1497,-15810,1274,282,-97,334
28,364,1838180,1779,-15567,2071,285,-140,349
28,365,1838185,1735,-15337,2570,278,-198,359
28,366,1838190,1450,-15119,2839,270,-261,376
28,367,1838195,1069,-14845,2715,260,-323,379
28,368,1838200,812,-14621,2281,249,-374,370
28,369,1838205,677,-14490,1792,242,-403,357
28,370,1838210,574,-14628,1397,239,-405,344
28,371,1838215,525,-15047,944,232,-379,343
28,372,1838220,483,-15540,844,225,-331,345
28,373,1838225,541,-15874,878,217,-291,341
28,374,1838230,899,-15956,1054,208,-262,321
28,375,1838235,1548,-16067,1267,205,-246,294
28,376,1838240,2272,-16206,1553,202,-236,279
28,377,1838245,2848,-16484,1735,190,-223,285
28,378,1838250,3196,-16892,1829,172,-224,310
28,379,1838255,3251,-17245,1686,148,-238,332
28,380,1838260,3126,-17395,1414,133,-255,331
28,381,1838265,3113,-17714,991,130,-264,311
28,382,1838270,3371,-18174,579,130,-238,290
28,383,1838275,3655,-18525,667,118,-183,285
28,384,1838280,3905,-18827,725,104,-122,294
28,385,1838285,3945,-18893,809,92,-55,305
28,386,1838290,3911,-18903,982,77,13,306
28,387,1838295,3950,-18790,1225,60,74,293
28,388,1838300,4206,-18647,1324,45,118,275
28,389,1838305,4588,-18464,1327,27,153,264
28,390,1838310,4994,-18249,1314,11,184,264
28,391,1838315,5265,-18110,1245,-4,204,274
28,392,1838320,5417,-18023,1255,-13,207,282
28,393,1838325,5461,-18022,1428,-18,178,281
28,394,1838330,5586,-18257,1316,-21,122,273
28,395,1838335,5843,-18355,1131,-29,59,268
28,396,1838340,6216,-18177,899,-33,-12,278
28,397,1838345,6579,-18458,662,-36,-68,294
28,398,1838350,6612,-18134,864,-41,-103,282
28,399,1838355,6528,-18134,735,-29,-180,301
28,400,1838360,6303,-17972,889,-27,-206,300
28,401,1838365,6123,-17879,1022,-30,-203,298
28,402,1838370,6061,-17848,1338,-43,-174,290
28,403,1838375,5949,-17768,1343,-61,-149,285
28,404,1838380,6042,-17694,801,-73,-113,279
28,405,1838385,6062,-17672,-269,-93,85,261
28,406,1838390,6000,-17690,-402,-96,221,254
28,407,1838395,5734,-17678,-301,-93,355,246
28,408,1838400,5488,-17761,-207,-98,464,238
28,409,1838405,5225,-17784,11,-109,553,229
28,410,1838410,4966,-17596,247,-118,611,222
28,411,1838415,4668,-17347,260,-118,641,208
28,412,1838420,4380,-17243,445,-114,661,199
28,413,1838425,3894,-17108,667,-112,664,190
28,414,1838430,3538,-17040,830,-113,644,193
28,415,1838435,3290,-16858,991,-114,605,186
28,416,1838440,3156,-16731,950,-113,546,166
28,417,1838445,3395,-16584,810,-107,490,142
28,418,1838450,3781,-16460,716,-101,454,125
28,419,1838455,4111,-16401,658,-98,439,125
28,420,1838460,4242,-16314,642,-100,440,129
28,421,1838465,4252,-16302,696,-99,449,136
28,422,1838470,3982,-16407,743,-99,465,132
28,423,1838475,3509,-16599,504,-95,494,123
28,424,1838480,2798,-16842,230,-97,547,119
28,425,1838485,1929,-17127,-200,-108,627,118
28,426,1838490,1115,-17334,-727,-117,718,117
28,427,1838495,386,-17417,-1115,-119,823,98
28,428,1838500,129,-17436,-1395,-108,921,61
28,429,1838505,336,-17376,-1383,-95,1010,19
28,430,1838510,782,-17240,-871,-88,1077,-5
28,431,1838515,1355,-17127,-505,-84,1101,-9
28,432,1838520,1796,-16997,10,-80,1097,-3
28,433,1838525,1937,-16861,447,-77,1070,-1
28,434,1838530,1974,-16777,665,-65,1019,-2
28,435,1838535,1759,-16712,842,-55,968,-10
28,436,1838540,1441,-16562,1206,-53,918,-16
28,437,1838545,1002,-16693,1279,-53,870,1
28,438,1838550,422,-16817,1370,-58,849,11
28,439,1838555,-210,-16975,1140,-62,830,5
28,440,1838560,-677,-17174,598,-64,815,-10
28,441,1838565,-961,-17131,-34,-64,815,-34
28,442,1838570,-911,-16977,-742,-60,829,-47
28,443,1838575,-730,-16760,-1018,-53,868,-57
28,444,1838580,-593,-16549,-967,-44,908,-64
28,445,1838585,-480,-16377,-871,-38,929,-67
28,446,1838590,-507,-16239,-724,-35,932,-73
28,447,1838595,-472,-16128,-629,-30,921,-75
28,448,1838600,-604,-16156,-299,-23,906,-82
28,449,1838605,-910,-16173,80,-6,890,-91
28,450,1838610,-1428,-16166,521,6,877,-93
28,451,1838615,-2120,-16370,1004,7,854,-90
28,452,1838620,-3039,-16585,1404,2,831,-92
28,453,1838625,-4089,-16769,1287,-3,799,-101
28,454,1838630,-4806,-16908,892,-14,778,-123
28,455,1838635,-5143,-16976,530,-16,770,-153
28,456,1838640,-5042,-16955,225,-8,773,-186
28,457,1838645,-4672,-16665,159,2,780,-217
28,458,1838650,-4185,-16339,247,10,780,-236
28,459,1838655,-3688,-16184,563,14,766,-243
28,460,1838660,-3251,-16066,670,10,725,-245
28,461,1838665,-2793,-15894,574,10,668,-253
28,462,1838670,-2397,-15735,289,20,611,-272
28,463,1838675,-2108,-15760,-35,28,567,-285
28,464,1838680,-2035,-15837,23,40,537,-288
28,465,1838685,-2408,-16101,48,52,520,-275
28,466,1838690,-3180,-16394,125,63,522,-266
28,467,1838695,-4189,-16577,74,63,540,-271
28,468,1838700,-5158,-16745,-85,56,566,-293
28,469,1838705,-5783,-16785,-563,57,595,-324
28,470,1838710,-5830,-16691,-1158,64,642,-354
28,471,1838715,-5408,-16561,-1134,74,716,-377
28,472,1838720,-4754,-16090,-883,83,783,-411
28,473,1838725,-3984,-15857,-134,98,837,-420
28,474,1838730,-3136,-15618,391,109,820,-421
28,475,1838735,-2249,-15474,818,112,777,-425
28,476,1838740,-1677,-15231,1159,110,719,-437
28,477,1838745,-1599,-15221,1341,121,662,-421
28,478,1838750,-2115,-15457,1381,131,621,-400
28,479,1838755,-4278,-16391,2233,137,520,-353
28,480,1838760,-5500,-16948,2124,135,457,-360
28,481,1838765,-6394,-17244,1372,122,437,-407
28,482,1838770,-6976,-17540,1104,110,497,-442
28,483,1838775,-7180,-17673,1048,104,559,-457
28,484,1838780,-7152,-17544,1084,108,595,-463
28,485,1838785,-7014,-17310,1346,116,610,-471
28,486,1838790,-6487,-16943,1609,123,618,-487
28,487,1838795,-5651,-16323,2151,121,646,-510
28,488,1838800,-4691,-15660,2788,107,644,-525
28,489,1838805,-3633,-15125,3193,99,574,-520
28,490,1838810,-2884,-14734,3248,96,470,-511
28,491,1838815,-2648,-14633,3239,100,374,-492
28,492,1838820,-2941,-14890,3333,103,304,-466
28,493,1838825,-3689,-15244,3598,96,258,-440
28,494,1838830,-4754,-15797,3672,83,216,-426
28,495,1838835,-5846,-16240,3423,70,177,-425
28,496,1838840,-6585,-16555,2693,60,159,-437
28,497,1838845,-6864,-16694,2271,46,190,-459
28,498,1838850,-6848,-16760,1863,39,245,-483
28,499,1838855,-6796,-16848,1395,37,319,-498
28,500,1838860,-6536,-16761,2103,25,426,-505
28,501,1838865,-5876,-16457,2249,19,419,-503
28,502,1838870,-5060,-16174,1827,18,377,-510
28,503,1838875,-4105,-15891,1676,8,384,-533
28,504,1838880,-3192,-15637,1877,2,382,-540
28,505,1838885,-2398,-15472,1436,5,312,-524
28,506,1838890,-1981,-15681,1287,7,270,-488
28,507,1838895,-2037,-15863,1780,7,233,-461
28,508,1838900,-2332,-16222,2159,24,175,-434
28,509,1838905,-2820,-16457,2693,27,131,-429
28,510,1838910,-3307,-16577,3228,17,82,-431
28,511,1838915,-3682,-16546,3340,2,23,-428
28,512,1838920,-4058,-16515,2710,-14,-20,-418
28,513,1838925,-4270,-16598,2331,-27,-25,-412
28,514,1838930,-4186,-16147,1818,-29,10,-427
28,515,1838935,-4254,-16506,2067,-24,93,-410
28,516,1838940,-4264,-16265,2097,-33,134,-414
28,517,1838945,-3863,-16030,2059,-46,175,-413
28,518,1838950,-3422,-16009,2311,-54,229,-413
28,519,1838955,-3063,-15962,2374,-60,241,-408
28,520,1838960,-2688,-15895,2424,-62,239,-408
28,521,1838965,-2574,-15906,2405,-67,230,-391
28,522,1838970,-2651,-16173,2390,-66,207,-365
28,523,1838975,-3037,-16403,2388,-69,202,-348
28,524,1838980,-3689,-16629,2527,-73,199,-331
28,525,1838985,-4469,-16736,2524,-76,185,-325
28,526,1838990,-5150,-16793,2400,-78,180,-321
28,527,1838995,-5606,-16828,2307,-82,194,-326
28,528,1839000,-5699,-16719,2630,-87,220,-331
28,529,1839005,-5518,-16544,2717,-86,212,-335
28,530,1839010,-5173,-16356,2842,-90,196,-344
28,531,1839015,-4604,-16223,2768,-95,171,-344
28,532,1839020,-4022,-16008,3030,-98,160,-341
28,533,1839025,-3332,-15856,2819,-99,114,-327
28,534,1839030,-2612,-15869,2463,-104,65,-315
28,535,1839035,-2073,-15971,2170,-103,32,-305
28,536,1839040,-1622,-16065,1934,-96,14,-290
28,537,1839045,-1333,-16212,1878,-89,3,-273
28,538,1839050,-1177,-16430,1821,-83,-3,-250
28,539,1839055,-1204,-16598,1767,-83,2,-230
28,540,1839060,-1244,-16677,1593,-85,15,-215
28,541,1839065,-1305,-16665,1483,-86,41,-206
28,542,1839070,-1396,-16650,1112,-83,73,-199
28,543,1839075,-1365,-16601,738,-83,116,-187
28,544,1839080,-1217,-16517,595,-80,163,-171
28,545,1839085,-1089,-16481,549,-73,202,-161
28,546,1839090,-847,-16503,505,-65,220,-153
28,547,1839095,-510,-16464,457,-59,215,-144
28,548,1839100,35,-16390,383,-51,191,-130
28,549,1839105,574,-16212,317,-41,159,-109
28,550,1839110,1004,-16091,383,-27,116,-87
28,551,1839115,1267,-16139,214,-9,55,-61
28,552,1839120,1114,-16274,819,14,-5,-9
28,553,1839125,849,-16342,797,21,-56,14
28,554,1839130,558,-16380,339,29,-70,34
28,555,1839135,467,-16319,259,30,-38,51
28,556,1839140,309,-16288,360,35,-15,61
28,557,1839145,331,-16293,279,48,-5,69
28,558,1839150,491,-16187,265,62,21,81
28,559,1839155,675,-16087,552,69,60,92
28,560,1839160,839,-15874,918,73,80,106
28,561,1839165,1039,-15711,1137,78,67,124
28,562,1839170,1298,-15590,1157,82,39,139
28,563,1839175,1601,-15548,1084,92,6,154
28,564,1839180,1801,-15553,1107,98,-13,167
28,565,1839185,1947,-15592,1139,103,-41,186
28,566,1839190,2063,-15688,1137,112,-69,205
28,567,1839195,2056,-15826,1154,120,-71,223
28,568,1839200,1824,-16037,1287,125,-58,237
28,569,1839205,1442,-16402,1130,125,-46,251
28,570,1839210,1149,-16729,808,120,1,268
28,571,1839215,806,-16902,622,118,85,274
28,572,1839220,399,-16950,372,118,163,275
28,573,1839225,129,-16994,241,121,231,276
28,574,1839230,-70,-17029,265,124,283,270
28,575,1839235,-81,-16913,409,131,313,270
28,576,1839240,-23,-16771,785,138,328,267
28,577,1839245,24,-16701,1011,142,310,269
28,578,1839250,205,-16558,1149,147,263,277
28,579,1839255,419,-16442,1300,151,197,280
28,580,1839260,601,-16379,1385,162,124,285
28,581,1839265,696,-16376,1435,171,50,289
28,582,1839270,661,-16385,1579,182,-6,298
28,583,1839275,475,-16412,1798,187,-44,309
28,584,1839280,64,-16459,2169,188,-74,318
28,585,1839285,-510,-16613,2416,187,-104,317
28,586,1839290,-946,-16723,2294,186,-125,310
28,587,1839295,-1104,-16687,2147,179,-127,299
28,588,1839300,-1146,-16613,1848,175,-101,286
28,589,1839305,-1146,-16463,1791,177,-46,273
28,590,1839310,-1229,-16299,1875,179,14,268
28,591,1839315,-1191,-16132,2166,175,76,266
28,592,1839320,-1223,-16000,2547,168,118,262
28,593,1839325,-1325,-16018,2599,160,134,242
28,594,1839330,-1180,-15964,2397,151,140,222
28,595,1839335,-849,-15914,2092,144,152,210
28,596,1839340,-532,-15848,1932,142,169,204
28,597,1839345,-7844,-13300,-1327,147,174,203
28,598,1839350,-25312,-16866,-17476,281,-660,176
28,599,1839355,-2748,-21207,3644,584,-485,-999
28,600,1839360,20456,-6374,20947,378,416,-1604
28,601,1839365,14738,-9827,21440,165,-355,284
28,602,1839370,7504,-19143,11387,178,-1295,1047
28,603,1839375,-1473,-17345,4410,65,-1322,264
28,604,1839380,-6006,-16429,-5265,76,-1499,-53
28,605,1839385,-7185,-15749,-6644,38,-989,-234
28,606,1839390,-5561,-16616,-7213,111,-365,-264
28,607,1839395,-766,-16839,-4207,184,262,-420
28,608,1839400,3096,-16114,501,242,670,-468
28,609,1839405,6350,-16860,4597,265,912,-375
28,610,1839410,7021,-16810,8641,163,1107,-308
28,611,1839415,6426,-16623,9151,51,1016,-204
28,612,1839420,4749,-17018,5887,-50,839,-122
28,613,1839425,1895,-17225,1079,-93,710,-97
28,614,1839430,-31,-17634,-2503,-60,688,-114
28,615,1839435,-1121,-18071,-3067,12,760,-122
28,616,1839440,-904,-18661,-654,83,795,-145
28,617,1839445,113,-18409,2689,113,677,-192
28,618,1839450,1777,-17820,5282,98,427,-201
28,619,1839455,3057,-17204,6981,50,140,-170
28,620,1839460,3413,-16822,6374,9,-201,-101
28,621,1839465,2863,-16650,4204,-20,-483,-36
28,622,1839470,1473,-16457,1960,-29,-625,18
28,623,1839475,-30,-16722,565,-16,-647,49
28,624,1839480,-1185,-16809,509,-2,-594,33
28,625,1839485,-837,-16463,1931,15,-501,-44
28,626,1839490,179,-16157,2182,2,-427,-56
28,627,1839495,1040,-15915,2917,-30,-282,-48
28,628,1839500,1261,-15712,3509,-61,-189,-20
28,629,1839505,868,-15876,2603,-76,-167,16
28,630,1839510,-6,-16165,1759,-87,-66,31
28,631,1839515,-1002,-16273,1523,-102,83,27
28,632,1839520,-1649,-16321,1262,-106,174,13
28,633,1839525,-1744,-16298,1279,-103,232,-8
28,634,1839530,-1395,-16200,1573,-96,278,-29
28,635,1839535,-837,-15976,2299,-90,304,-44
28,636,1839540,-208,-15827,2751,-84,279,-40
28,637,1839545,145,-15613,3305,-99,245,-26
28,638,1839550,227,-15476,3496,-106,164,-9
28,639,1839555,-12,-15440,3071,-106,67,7
28,640,1839560,-350,-15424,2488,-112,10,8
28,641,1839565,-690,-15440,2331,-117,0,6
28,642,1839570,-819,-15470,2044,-110,-43,8
28,643,1839575,-863,-15673,1685,-102,-63,5
28,644,1839580,-785,-15816,1870,-107,-20,-10
28,645,1839585,-704,-15871,2386,-106,19,-16
28,646,1839590,-552,-15927,2513,-107,7,-14
28,647,1839595,-442,-16060,2072,-109,-11,-11
28,648,1839600,-483,-16124,1909,-114,21,-8
28,649,1839605,-614,-16247,1947,-121,49,-7
28,650,1839610,-736,-16363,1796,-120,36,-11
28,651,1839615,-716,-16452,1483,-116,7,-13
28,652,1839620,-660,-16535,1263,-109,10,-21
28,653,1839625,-489,-16622,1418,-106,28,-27
28,654,1839630,-392,-16668,1555,-108,23,-32
28,655,1839635,-238,-16756,1386,-105,-2,-27
28,656,1839640,-51,-16855,1204,-100,-21,-26
28,657,1839645,80,-16950,1035,-99,-27,-27
28,658,1839650,134,-16950,944,-95,-19,-32
28,659,1839655,196,-16892,889,-87,-15,-33
28,660,1839660,305,-16845,931,-83,-7,-28
28,661,1839665,353,-16785,1025,-78,-3,-29
28,662,1839670,263,-16665,1198,-73,6,-26
28,663,1839675,233,-16580,1314,-71,2,-27
28,664,1839680,214,-16566,1321,-71,-8,-26
28,665,1839685,168,-16554,1258,-69,-19,-28
28,666,1839690,94,-16601,1153,-65,-23,-26
28,667,1839695,0,-16644,1093,-60,-16,-24
28,668,1839700,-44,-16626,1081,-55,-9,-25
28,669,1839705,-131,-16636,1192,-48,2,-26
28,670,1839710,-227,-16666,1352,-48,22,-32
28,671,1839715,-300,-16591,1391,-46,35,-32
28,672,1839720,-287,-16510,1417,-46,43,-32
28,673,1839725,-236,-16421,1451,-46,61,-36
28,674,1839730,-338,-16339,1455,-44,78,-42
28,675,1839735,-448,-16307,1390,-40,91,-41
28,676,1839740,-578,-16306,1499,-38,109,-37
28,677,1839745,-597,-16350,1673,-39,115,-39
28,678,1839750,-534,-16390,1817,-36,103,-47
28,679,1839755,-440,-16428,1841,-35,87,-57
28,680,1839760,-239,-16476,1851,-31,63,-61
28,681,1839765,-119,-16433,1919,-31,41,-55
28,682,1839770,-63,-16467,2003,-26,19,-48
28,683,1839775,-170,-16564,2034,-23,-3,-44
28,684,1839780,-246,-16654,2032,-24,-35,-45
28,685,1839785,-273,-16627,1990,-25,-65,-48
28,686,1839790,-246,-16572,1781,-24,-90,-52
28,687,1839795,-90,-16531,1643,-22,-102,-54
28,688,1839800,39,-16476,1621,-23,-97,-56
28,689,1839805,138,-16415,1640,-19,-90,-51
28,690,1839810,84,-16468,1692,-18,-80,-49
28,691,1839815,-10,-16479,1678,-19,-65,-45
28,692,1839820,-127,-16433,1696,-25,-48,-45
28,693,1839825,-133,-16382,1711,-28,-38,-50
28,694,1839830,-67,-16401,1592,-27,-31,-52
28,695,1839835,40,-16428,1407,-25,-21,-54
28,696,1839840,231,-16386,1502,-27,-7,-53
28,697,1839845,387,-16314,1575,-22,5,-49
28,698,1839850,537,-16372,1896,-20,-5,-44
28,699,1839855,544,-16450,1835,-21,-29,-43
28,700,1839860,508,-16522,1595,-24,-46,-37
28,701,1839865,470,-16511,1401,-25,-54,-34
28,702,1839870,352,-16511,1272,-23,-50,-30
28,703,1839875,200,-16503,1232,-16,-45,-26
28,704,1839880,53,-16563,1354,-15,-42,-23
28,705,1839885,-2,-16623,1476,-13,-42,-26
28,706,1839890,100,-16560,1616,-17,-41,-36
28,707,1839895,227,-16515,1666,-17,-46,-38
28,708,1839900,433,-16482,1615,-20,-49,-37
28,709,1839905,593,-16423,1500,-19,-49,-31
28,710,1839910,675,-16383,1415,-18,-38,-23
28,711,1839915,628,-16441,1474,-20,-28,-21
28,712,1839920,550,-16430,1513,-19,-28,-22
28,713,1839925,486,-16350,1479,-18,-40,-21
28,714,1839930,510,-16309,1438,-14,-47,-21
28,715,1839935,511,-16217,1622,-17,-41,-22
28,716,1839940,490,-16109,1661,-13,-43,-14
28,717,1839945,532,-16083,1824,-13,-47,-12
28,718,1839950,512,-16116,1933,-22,-65,-11
28,719,1839955,488,-16237,1908,-21,-89,-10
28,720,1839960,471,-16292,1778,-19,-104,-9
28,721,1839965,391,-16434,1713,-18,-107,-10
28,722,1839970,222,-16580,1644,-21,-99,-5
28,723,1839975,95,-16809,1685,-22,-98,0
28,724,1839980,-79,-16955,1693,-21,-113,3
28,725,1839985,-85,-17063,1519,-23,-142,-1
28,726,1839990,-115,-17105,1375,-20,-162,-11
28,727,1839995,-25,-17133,1249,-18,-182,-13
28,728,1840000,93,-17080,1182,-14,-191,-10
28,729,1840005,218,-16974,1279,-9,-192,-7
28,730,1840010,266,-16888,1437,-7,-191,-7
28,731,1840015,328,-16883,1505,-6,-191,-10
28,732,1840020,366,-16760,1516,-6,-175,-9
28,733,1840025,369,-16551,1474,-9,-139,-7
28,734,1840030,273,-16380,1386,-14,-85,-3
28,735,1840035,58,-16272,1389,-18,-26,-5
28,736,1840040,-177,-16195,1377,-22,29,-11
28,737,1840045,-303,-16245,1289,-24,86,-16
28,738,1840050,-372,-16333,1233,-26,141,-22
28,739,1840055,-378,-16381,1227,-28,188,-28
28,740,1840060,-360,-16382,1292,-31,221,-30
28,741,1840065,-386,-16425,1318,-27,235,-35
28,742,1840070,-418,-16518,1251,-25,234,-33
28,743,1840075,-416,-16584,1387,-24,215,-36
28,744,1840080,-398,-16546,1386,-21,181,-40
28,745,1840085,-344,-16430,1398,-15,131,-44
28,746,1840090,-150,-16290,1442,-8,73,-46
28,747,1840095,16,-16268,1464,-1,15,-47
28,748,1840100,178,-16239,1587,2,-35,-43
28,749,1840105,352,-16214,1641,3,-83,-39
28,750,1840110,469,-16203,1598,7,-123,-36
28,751,1840115,518,-16132,1487,10,-154,-35
28,752,1840120,533,-16103,1319,6,-164,-34
28,753,1840125,540,-16102,1262,7,-152,-29
28,754,1840130,426,-16108,1212,7,-121,-27
28,755,1840135,133,-16185,1188,6,-80,-28
28,756,1840140,-134,-16338,1213,2,-34,-30
28,757,1840145,-345,-16465,1159,-1,12,-32
28,758,1840150,-439,-16519,1099,-6,62,-39
28,759,1840155,-500,-16593,1118,-4,105,-46
28,760,1840160,-426,-16585,1213,-2,140,-55
28,761,1840165,-242,-16647,1342,-2,162,-56
28,762,1840170,-73,-16652,1631,0,168,-57
28,763,1840175,85,-16599,1844,0,159,-59
28,764,1840180,205,-16601,1882,2,129,-54
28,765,1840185,257,-16605,1821,-1,95,-52
28,766,1840190,390,-16538,1637,-5,60,-50
28,767,1840195,529,-16503,1533,-4,26,-50
28,768,1840200,621,-16475,1445,1,10,-47
28,769,1840205,708,-16433,1581,6,2,-45
28,770,1840210,687,-16430,1813,8,-4,-41
28,771,1840215,406,-16491,1993,-2,-6,-28
28,772,1840220,160,-16492,1898,-7,-3,-26
28,773,1840225,-1,-16484,1735,-12,7,-28
28,774,1840230,-133,-16482,1559,-15,25,-33
28,775,1840235,-246,-16594,1513,-16,44,-39
28,776,1840240,-255,-16620,1469,-15,55,-39
28,777,1840245,-177,-16638,1605,-14,68,-41
28,778,1840250,-152,-16621,1718,-13,71,-43
28,779,1840255,-71,-16600,1802,-13,63,-45
28,780,1840260,18,-16557,1794,-16,42,-48
28,781,1840265,110,-16537,1775,-19,16,-45
28,782,1840270,208,-16427,1707,-20,-10,-43
28,783,1840275,219,-16369,1634,-14,-27,-41
28,784,1840280,260,-16314,1675,-10,-41,-40
28,785,1840285,230,-16286,1785,-12,-53,-38
28,786,1840290,179,-16247,1832,-14,-62,-36
28,787,1840295,105,-16187,1826,-13,-66,-35
28,788,1840300,31,-16144,1848,-18,-61,-35
28,789,1840305,21,-16107,1767,-19,-51,-36
28,790,1840310,-33,-16114,1633,-22,-35,-41
28,791,1840315,-49,-16119,1470,-25,-11,-43
28,792,1840320,-103,-16069,1294,-27,21,-42
28,793,1840325,-99,-16088,1231,-31,49,-43
28,794,1840330,20,-16127,1213,-28,68,-46
28,795,1840335,119,-16145,1272,-26,76,-51
28,796,1840340,278,-16196,1293,-25,67,-51
28,797,1840345,429,-16242,1313,-23,51,-51
28,798,1840350,446,-16287,1315,-20,33,-45
28,799,1840355,403,-16362,1330,-19,16,-39
28,800,1840360,322,-16452,1422,-18,-6,-35
28,801,1840365,225,-16440,1437,-17,-30,-33
28,802,1840370,155,-16491,1350,-14,-50,-33
28,803,1840375,220,-16480,1277,-17,-59,-35
28,804,1840380,243,-16435,1322,-16,-60,-38
28,805,1840385,403,-16424,1333,-13,-57,-34
28,806,1840390,442,-16358,1410,-13,-48,-32
28,807,1840395,427,-16381,1413,-16,-37,-32
28,808,1840400,397,-16377,1458,-18,-21,-27
28,809,1840405,385,-16443,1505,-22,-5,-25
28,810,1840410,381,-16437,1460,-25,9,-29
28,811,1840415,369,-16454,1386,-27,14,-30
28,812,1840420,409,-16537,1364,-27,20,-30
28,813,1840425,443,-16607,1347,-21,26,-25
28,814,1840430,461,-16735,1336,-21,31,-22
28,815,1840435,410,-16845,1515,-27,30,-20
28,816,1840440,332,-16972,1563,-26,16,-18
28,817,1840445,208,-17004,1455,-24,9,-19
28,818,1840450,163,-17021,1418,-24,2,-16
28,819,1840455,166,-16982,1337,-29,4,-18
28,820,1840460,175,-16895,1282,-29,5,-20
28,821,1840465,204,-16776,1338,-27,5,-21
28,822,1840470,214,-16700,1400,-25,3,-21
28,823,1840475,275,-16591,1508,-26,2,-21
28,824,1840480,377,-16463,1577,-25,0,-20
28,825,1840485,525,-16354,1708,-24,-5,-20
28,826,1840490,646,-16262,1672,-25,-15,-18
28,827,1840495,736,-16218,1638,-27,-26,-18
28,828,1840500,748,-16199,1620,-28,-35,-15
28,829,1840505,786,-16174,1572,-28,-38,-9
28,830,1840510,686,-16223,1556,-29,-39,-6
28,831,1840515,544,-16312,1527,-29,-38,-2
28,832,1840520,409,-16406,1411,-31,-42,0
28,833,1840525,235,-16471,1329,-29,-43,-2
28,834,1840530,71,-16615,1225,-27,-38,-6
28,835,1840535,-19,-16651,1130,-28,-28,-5
28,836,1840540,-140,-16683,1034,-29,-16,-3
28,837,1840545,-203,-16687,1017,-25,-8,-7
28,838,1840550,-225,-16620,1004,-22,1,-11
28,839,1840555,-254,-16630,1117,-20,1,-19
28,840,1840560,-142,-16564,1199,-16,-3,-24
28,841,1840565,-35,-16457,1318,-16,-9,-27
28,842,1840570,105,-16391,1385,-12,-19,-25
28,843,1840575,209,-16307,1434,-10,-34,-24
28,844,1840580,207,-16263,1425,-10,-52,-25
28,845,1840585,243,-16316,1282,-6,-71,-24
28,846,1840590,235,-16349,1246,-5,-73,-24
28,847,1840595,251,-16399,1226,-4,-70,-26
28,848,1840600,353,-16447,1196,-3,-62,-30
28,849,1840605,358,-16454,1207,-2,-54,-32
28,850,1840610,349,-16481,1142,-1,-43,-33
28,851,1840615,347,-16442,1047,0,-28,-31
28,852,1840620,375,-16465,1038,2,-9,-31
28,853,1840625,389,-16473,1046,0,7,-35
28,854,1840630,469,-16463,1011,2,20,-38
28,855,1840635,536,-16417,1020,5,31,-38
28,856,1840640,717,-16386,1121,8,42,-41
28,857,1840645,852,-16324,1234,8,52,-39
28,858,1840650,938,-16359,1320,7,51,-37
28,859,1840655,1092,-16458,1318,8,44,-32
28,860,1840660,1137,-16570,1326,9,34,-30
28,861,1840665,1175,-16665,1299,7,24,-28
28,862,1840670,1178,-16768,1187,8,17,-26
28,863,1840675,1196,-16767,1102,10,13,-21
28,864,1840680,1163,-16800,1161,9,13,-17
28,865,1840685,1138,-16820,1205,11,5,-12
28,866,1840690,1105,-16913,1227,12,3,-14
28,867,1840695,1097,-16938,1245,10,-1,-10
28,868,1840700,1149,-16877,1198,9,-4,-7
28,869,1840705,1251,-16781,1217,10,-1,-4
28,870,1840710,1254,-16681,1219,11,-3,-2
28,871,1840715,1212,-16676,1311,10,-3,2
28,872,1840720,1201,-16614,1360,10,-4,9
28,873,1840725,1225,-16581,1454,10,-9,13
28,874,1840730,1093,-16567,1607,7,-8,13
28,875,1840735,988,-16564,1639,8,-11,17
28,876,1840740,902,-16581,1597,5,-14,21
28,877,1840745,796,-16521,1588,1,-15,23
28,878,1840750,659,-16460,1532,-2,-3,23
28,879,1840755,481,-16423,1460,0,12,26
28,880,1840760,304,-16378,1457,-2,18,28
28,881,1840765,188,-16356,1423,-7,30,29
28,882,1840770,102,-16342,1431,-9,40,25
28,883,1840775,85,-16287,1426,-6,49,21
28,884,1840780,88,-16179,1379,-9,57,18
28,885,1840785,132,-16135,1331,-9,58,21
28,886,1840790,175,-16127,1333,-12,60,19
28,887,1840795,162,-16092,1316,-10,58,19
28,888,1840800,177,-16095,1321,-7,56,15
28,889,1840805,232,-16063,1376,-8,49,16
28,890,1840810,338,-16018,1367,-5,38,15
28,891,1840815,385,-16086,1352,-6,26,15
28,892,1840820,360,-16104,1348,-7,20,19
28,893,1840825,284,-16127,1257,-5,22,20
28,894,1840830,208,-16119,1250,-7,24,17
28,895,1840835,68,-16174,1187,-5,30,20
28,896,1840840,7,-16183,1155,-2,41,14
28,897,1840845,2,-16186,1123,-4,53,9
28,898,1840850,31,-16193,1085,-8,66,7
28,899,1840855,-41,-16193,1031,-3,80,4
28,900,1840860,-85,-16160,1090,-3,93,6
28,901,1840865,-20,-16147,1116,-1,106,-1
28,902,1840870,32,-16095,1202,-1,109,-5
28,903,1840875,103,-16062,1338,3,110,-13
28,904,1840880,172,-16070,1435,2,105,-13
28,905,1840885,240,-16124,1503,2,92,-10
28,906,1840890,332,-16160,1511,0,74,-12
28,907,1840895,420,-16274,1461,-1,47,-11
28,908,1840900,424,-16364,1418,2,22,-11
28,909,1840905,448,-16425,1333,4,0,-14
28,910,1840910,509,-16562,1323,8,-15,-14
28,911,1840915,525,-16651,1378,7,-28,-11
28,912,1840920,575,-16701,1377,6,-36,-8
28,913,1840925,547,-16744,1387,5,-43,-10
28,914,1840930,477,-16719,1366,5,-45,-10
28,915,1840935,450,-16754,1288,4,-41,-10
28,916,1840940,436,-16804,1163,1,-22,-14
28,917,1840945,452,-16763,1168,-1,6,-14
28,918,1840950,453,-16602,1308,-3,72,-14
28,919,1840955,511,-16594,1429,-5,101,-15
28,920,1840960,484,-16583,1624,-9,121,-15
28,921,1840965,466,-16618,1623,-18,133,-17
28,922,1840970,377,-16605,1572,-19,138,-15
28,923,1840975,302,-16600,1497,-18,135,-11
28,924,1840980,187,-16654,1477,-18,130,-8
28,925,1840985,121,-16655,1514,-20,120,-7
28,926,1840990,105,-16665,1530,-18,102,-4
28,927,1840995,145,-16586,1549,-18,71,-7
28,928,1841000,195,-16521,1571,-18,37,-7
28,929,1841005,303,-16468,1572,-16,2,-2
28,930,1841010,409,-16401,1635,-16,-29,3
28,931,1841015,432,-16391,1594,-14,-60,10
28,932,1841020,440,-16365,1501,-13,-84,13
28,933,1841025,422,-16396,1484,-11,-104,17
28,934,1841030,444,-16408,1410,-13,-112,21
28,935,1841035,361,-16470,1219,-14,-110,24
28,936,1841040,326,-16500,1114,-15,-103,25
28,937,1841045,236,-16513,949,-14,-86,29
28,938,1841050,56,-16588,733,-14,-56,31
28,939,1841055,-70,-16611,731,-15,-27,30
28,940,1841060,-157,-16611,714,-14,-5,30
28,941,1841065,-114,-16618,662,-11,15,30
28,942,1841070,-7,-16533,721,-10,35,24
28,943,1841075,175,-16403,820,-3,51,19
28,944,1841080,388,-16274,1002,-3,61,20
28,945,1841085,565,-16182,1122,1,64,27
28,946,1841090,660,-16117,1269,1,60,33
28,947,1841095,691,-16089,1373,1,54,37
28,948,1841100,688,-16065,1330,0,46,41
28,949,1841105,677,-16054,1263,-3,38,40
28,950,1841110,649,-16130,1125,-4,38,44
28,951,1841115,580,-16216,1045,-2,50,48
28,952,1841120,495,-16324,1041,-1,67,50
28,953,1841125,338,-16486,1075,-2,86,54
28,954,1841130,162,-16652,1076,-4,104,56
28,955,1841135,10,-16753,978,-3,115,52
28,956,1841140,-88,-16826,881,-7,123,48
28,957,1841145,-157,-16839,816,-9,131,49
28,958,1841150,-176,-16796,770,-4,131,44
28,959,1841155,-47,-16631,889,-2,128,44
28,960,1841160,73,-16537,1143,1,108,42
28,961,1841165,215,-16521,1348,5,75,40
28,962,1841170,344,-16441,1502,8,33,44
28,963,1841175,445,-16320,1611,7,-17,47
28,964,1841180,439,-16257,1650,10,-65,50
28,965,1841185,425,-16207,1636,12,-106,54
28,966,1841190,342,-16251,1543,13,-140,57
28,967,1841195,281,-16280,1557,14,-157,59
28,968,1841200,228,-16316,1540,14,-165,57
28,969,1841205,145,-16362,1556,14,-155,53
28,970,1841210,15,-16348,1561,13,-138,53
28,971,1841215,17,-16348,1568,10,-112,50
28,972,1841220,29,-16351,1501,8,-83,46
28,973,1841225,73,-16391,1431,3,-43,43
28,974,1841230,104,-16457,1364,0,-2,36
28,975,1841235,147,-16540,1374,-3,45,32
28,976,1841240,153,-16585,1402,-7,88,30
28,977,1841245,130,-16611,1411,-9,125,28
28,978,1841250,105,-16706,1391,-8,149,24
28,979,1841255,51,-16757,1402,-10,166,24
28,980,1841260,-4,-16714,1465,-12,175,21
28,981,1841265,26,-16711,1425,-12,167,18
28,982,1841270,36,-16685,1383,-8,153,18
28,983,1841275,14,-16644,1520,-10,135,16
28,984,1841280,-37,-16643,1557,-7,105,16
28,985,1841285,-29,-16599,1573,-5,71,16
28,986,1841290,15,-16527,1609,-4,40,18
28,987,1841295,44,-16414,1588,-1,9,12
28,988,1841300,86,-16380,1585,0,-20,9
28,989,1841305,154,-16334,1561,0,-44,9
28,990,1841310,205,-16310,1545,0,-55,12
28,991,1841315,334,-16315,1486,-3,-62,12
28,992,1841320,366,-16390,1410,-4,-64,7
28,993,1841325,330,-16448,1271,-4,-60,8
28,994,1841330,276,-16504,1167,-6,-42,12
28,995,1841335,200,-16553,1100,-7,-16,14
28,996,1841340,148,-16576,1107,-7,6,10
28,997,1841345,80,-16544,1137,-6,23,2
28,998,1841350,27,-16558,1096,-6,34,-1
28,999,1841355,90,-16545,1056,-9,49,-2
