event_id,seq,ts_ms,ax,ay,az,gx,gy,gz
52,0,694090,-2243,-15652,-3950,0,-2,-5
52,1,694095,-2523,-15641,-4078,1,-28,-7
52,2,694100,-2572,-15692,-4117,1,-21,-5
52,3,694105,-2421,-15707,-4068,0,-3,-5
52,4,694110,-2377,-15662,-3963,-2,13,-7
52,5,694115,-2482,-15783,-3741,0,8,-10
52,6,694120,-2594,-15733,-3584,0,-14,-10
52,7,694125,-2645,-15674,-3763,3,-30,-3
52,8,694130,-2498,-15711,-3986,4,-25,-5
52,9,694135,-2437,-15802,-3946,0,-6,-9
52,10,694140,-2473,-15810,-3849,-3,2,-9
52,11,694145,-2462,-15728,-3923,1,-14,-6
52,12,694150,-2435,-15726,-4185,1,-23,-3
52,13,694155,-2553,-15804,-4291,0,-17,-7
52,14,694160,-2570,-15755,-4167,0,-7,-6
52,15,694165,-2572,-15686,-4006,-1,-8,-5
52,16,694170,-2545,-15733,-4033,-2,-21,-4
52,17,694175,-2431,-15789,-4009,-2,-14,-1
52,18,694180,-2354,-15677,-3841,-1,1,-5
52,19,694185,-2503,-15721,-3769,-1,0,-13
52,20,694190,-2606,-15695,-3807,0,-12,-10
52,21,694195,-2623,-15671,-3803,0,-17,-6
52,22,694200,-2573,-15696,-3883,1,-16,-7
52,23,694205,-2418,-15677,-3781,-1,-3,-6
52,24,694210,-2321,-15660,-3812,-1,-4,-10
52,25,694215,-2290,-15695,-3949,3,-12,-8
52,26,694220,-2342,-15682,-3941,2,-13,-6
52,27,694225,-2363,-15663,-3953,-3,-11,-7
52,28,694230,-2447,-15744,-3986,-1,-8,-6
52,29,694235,-2508,-15810,-4058,0,-6,-9
52,30,694240,-2519,-15777,-4121,0,-7,-9
52,31,694245,-2608,-15741,-4056,-3,-9,-9
52,32,694250,-2661,-15776,-3969,-3,-10,-8
52,33,694255,-2628,-15788,-3907,-4,-11,-8
52,34,694260,-2519,-15818,-3884,-2,-13,-8
52,35,694265,-2531,-15767,-3935,-1,-13,-6
52,36,694270,-2554,-15739,-3989,-2,-17,-5
52,37,694275,-2514,-15749,-4001,-4,-17,-5
52,38,694280,-2452,-15764,-3945,-4,-9,-4
52,39,694285,-2463,-15723,-3908,2,-5,-4
52,40,694290,-2479,-15767,-4037,2,-4,-3
52,41,694295,-2385,-15744,-4070,-1,4,-2
52,42,694300,-2370,-15723,-3967,-4,6,-8
52,43,694305,-2392,-15761,-3875,-1,-2,-7
52,44,694310,-2422,-15746,-3852,-2,-12,-7
52,45,694315,-2398,-15713,-3866,-1,-23,-7
52,46,694320,-2232,-15670,-4000,-1,-25,-3
52,47,694325,-2171,-15737,-4123,-2,-19,-3
52,48,694330,-2233,-15677,-4172,0,-9,-7
52,49,694335,-2364,-15641,-4151,-1,-7,-9
52,50,694340,-2506,-15593,-4180,-1,-7,-8
52,51,694345,-2594,-15644,-4244,1,-2,-7
52,52,694350,-2528,-15714,-3915,-2,11,-6
52,53,694355,-2501,-15717,-3687,-4,6,-3
52,54,694360,-2504,-15721,-3791,4,-12,-3
52,55,694365,-2501,-15702,-4003,7,-25,-2
52,56,694370,-2482,-15688,-4141,2,-15,-4
52,57,694375,-2539,-15762,-4062,1,-4,-8
52,58,694380,-2561,-15800,-3914,-3,-3,-5
52,59,694385,-2441,-15740,-3870,-1,-5,-4
52,60,694390,-2307,-15762,-3956,1,-10,-3
52,61,694395,-2299,-15760,-4056,2,-10,-2
52,62,694400,-2361,-15713,-4074,2,-12,-2
52,63,694405,-2437,-15722,-4091,4,-14,-4
52,64,694410,-2488,-15735,-4099,-1,-12,-6
52,65,694415,-2501,-15689,-4093,-1,-2,-5
52,66,694420,-2469,-15713,-4005,1,4,-3
52,67,694425,-2496,-15734,-3840,1,0,-5
52,68,694430,-2512,-15736,-3842,2,-10,-7
52,69,694435,-2479,-15748,-3992,5,-12,-6
52,70,694440,-2391,-15756,-4074,3,1,-4
52,71,694445,-2376,-15724,-3947,2,5,-4
52,72,694450,-2411,-15744,-3961,-1,-14,-5
52,73,694455,-2411,-15758,-4029,1,-31,-2
52,74,694460,-2408,-15756,-4119,3,-13,-2
52,75,694465,-2528,-15746,-3957,1,4,-4
52,76,694470,-2591,-15790,-3876,0,-2,-1
52,77,694475,-2567,-15767,-3803,-1,-17,1
52,78,694480,-2468,-15785,-3775,1,-16,0
52,79,694485,-2402,-15774,-3768,3,-7,-3
52,80,694490,-2382,-15735,-3883,3,0,-5
52,81,694495,-2421,-15641,-3997,3,6,-6
52,82,694500,-2480,-15591,-4102,5,7,-5
52,83,694505,-2529,-15590,-4195,1,13,-8
52,84,694510,-2493,-15599,-4090,-3,31,-5
52,85,694515,-2473,-15636,-3923,-3,40,-7
52,86,694520,-2525,-15737,-3964,1,38,-7
52,87,694525,-2523,-15749,-4012,3,39,-7
52,88,694530,-2509,-15721,-3883,2,43,-7
52,89,694535,-2476,-15722,-3782,2,31,-6
52,90,694540,-2438,-15749,-3852,0,5,-3
52,91,694545,-2367,-15759,-3880,0,-22,-4
52,92,694550,-2430,-15759,-3869,-3,-36,-6
52,93,694555,-2587,-15788,-3808,-2,-42,-8
52,94,694560,-2633,-15764,-3950,-2,-47,-5
52,95,694565,-2546,-15783,-4039,0,-45,-7
52,96,694570,-2482,-15745,-4094,-3,-38,-7
52,97,694575,-2471,-15753,-4072,1,-31,-4
52,98,694580,-2562,-15795,-4047,3,-27,-3
52,99,694585,-2627,-15741,-4042,2,-26,-6
52,100,694590,-2631,-15687,-3988,-1,-27,-9
52,101,694595,-2583,-15694,-4014,3,-34,-4
52,102,694600,-2523,-15797,-4057,1,-32,-4
52,103,694605,-2533,-15726,-3970,1,-24,-5
52,104,694610,-2479,-15644,-3899,4,-18,-5
52,105,694615,-2469,-15666,-3979,6,-13,-6
52,106,694620,-2514,-15718,-4034,4,-5,-4
52,107,694625,-2507,-15757,-3854,3,2,-5
52,108,694630,-2479,-15758,-3686,-2,-2,-6
52,109,694635,-2418,-15748,-3620,-4,-9,-5
52,110,694640,-2369,-15690,-3670,-2,-15,-5
52,111,694645,-2344,-15585,-3681,-4,-23,-9
52,112,694650,-2432,-15633,-3691,-6,-37,-9
52,113,694655,-2459,-15701,-3767,-4,-53,-13
52,114,694660,-2484,-15674,-3766,-4,-65,-14
52,115,694665,-2545,-15654,-3762,-4,-71,-12
52,116,694670,-2547,-15702,-3803,-4,-78,-13
52,117,694675,-2499,-15697,-4020,-4,-85,-11
52,118,694680,-2521,-15724,-4072,-5,-83,-14
52,119,694685,-2630,-15724,-4066,-6,-85,-13
52,120,694690,-2735,-15706,-4090,-7,-86,-12
52,121,694695,-2692,-15741,-4109,-5,-86,-9
52,122,694700,-2631,-15762,-4071,-7,-72,-10
52,123,694705,-2603,-15785,-4021,-8,-64,-11
52,124,694710,-2481,-15774,-4019,-5,-60,-11
52,125,694715,-2483,-15711,-4036,-6,-60,-12
52,126,694720,-2439,-15684,-4081,-4,-58,-13
52,127,694725,-2402,-15718,-4077,-4,-50,-14
52,128,694730,-2396,-15706,-4092,-3,-37,-13
52,129,694735,-2406,-15754,-4061,-4,-29,-16
52,130,694740,-2427,-15742,-4091,-5,-21,-14
52,131,694745,-2362,-15756,-4085,-6,-10,-12
52,132,694750,-2377,-15776,-3981,-6,-5,-12
52,133,694755,-2357,-15801,-3925,-6,-7,-14
52,134,694760,-2293,-15756,-3940,-6,-2,-10
52,135,694765,-2310,-15739,-3845,-6,6,-12
52,136,694770,-2360,-15751,-3766,-7,8,-12
52,137,694775,-2425,-15722,-3694,-5,0,-11
52,138,694780,-2390,-15702,-3775,-3,-18,-10
52,139,694785,-2197,-15692,-4022,-5,-21,-8
52,140,694790,-2176,-15647,-4088,-4,-7,-8
52,141,694795,-2305,-15627,-3891,-6,4,-9
52,142,694800,-2375,-15605,-3842,-6,-11,-10
52,143,694805,-2266,-15660,-4031,-4,-25,-2
52,144,694810,-2192,-15662,-4188,-8,-18,1
52,145,694815,-2209,-15684,-4079,-7,0,-4
52,146,694820,-2330,-15749,-3901,-10,6,-7
52,147,694825,-2467,-15768,-3735,-9,2,-4
52,148,694830,-2394,-15759,-3824,-8,18,-4
52,149,694835,-2305,-15785,-3746,-9,31,-4
52,150,694840,-2356,-15771,-3779,-8,19,-5
52,151,694845,-2299,-15788,-3940,-5,-6,-3
52,152,694850,-2332,-15794,-4265,-5,-16,-2
52,153,694855,-2437,-15755,-4426,-4,-9,-5
52,154,694860,-2515,-15764,-4469,-8,-4,-5
52,155,694865,-2584,-15714,-4446,-12,-2,-1
52,156,694870,-2554,-15673,-4184,-11,1,-1
52,157,694875,-2510,-15748,-4051,-4,2,0
52,158,694880,-2505,-15701,-3926,-5,9,-2
52,159,694885,-2502,-15655,-3887,-5,8,-1
52,160,694890,-2338,-15653,-3974,-3,1,0
52,161,694895,-2283,-15724,-4110,-1,-5,-2
52,162,694900,-2379,-15730,-4154,-4,-6,-4
52,163,694905,-2508,-15679,-4163,-5,-5,-3
52,164,694910,-2615,-15694,-4204,-3,-5,-2
52,165,694915,-2636,-15692,-4221,-3,4,-3
52,166,694920,-2542,-15663,-4102,-4,13,-1
52,167,694925,-2432,-15714,-3944,-3,16,-2
52,168,694930,-2457,-15751,-3766,-6,10,-3
52,169,694935,-2564,-15744,-3793,-5,-7,-2
52,170,694940,-2544,-15766,-3941,0,-18,-1
52,171,694945,-2253,-15776,-4033,-1,-9,-1
52,172,694950,-2218,-15798,-3961,-3,5,-2
52,173,694955,-2445,-15745,-3871,-5,0,-3
52,174,694960,-2486,-15699,-4002,-5,-10,-2
52,175,694965,-2412,-15670,-4182,-2,-9,-4
52,176,694970,-2397,-15695,-4057,-5,8,-6
52,177,694975,-2492,-15724,-3884,-6,11,-5
52,178,694980,-2546,-15738,-3837,-1,-6,-2
52,179,694985,-2477,-15732,-3901,-3,-23,-2
52,180,694990,-2386,-15695,-3966,-5,-22,-4
52,181,694995,-2399,-15726,-3905,-7,-16,-4
52,182,695000,-2467,-15702,-3840,-4,-15,-2
52,183,695005,-2450,-15701,-3852,-1,-24,2
52,184,695010,-2358,-15725,-4109,0,-27,2
52,185,695015,-2484,-15761,-4211,-3,-13,1
52,186,695020,-2611,-15702,-4209,-1,-7,1
52,187,695025,-2545,-15717,-4290,-1,-9,4
52,188,695030,-2397,-15736,-4251,-3,-4,4
52,189,695035,-2377,-15719,-4137,1,0,1
52,190,695040,-2493,-15751,-4199,3,-1,-3
52,191,695045,-2586,-15715,-4202,2,-10,-1
52,192,695050,-2591,-15637,-4146,1,-14,-1
52,193,695055,-2644,-15795,-4098,1,-13,-2
52,194,695060,-2631,-15807,-4072,2,-14,-1
52,195,695065,-2541,-15719,-3961,1,-20,-1
52,196,695070,-2505,-15685,-3967,3,-32,-4
52,197,695075,-2478,-15683,-4013,4,-45,-7
52,198,695080,-2411,-15677,-4064,5,-60,-7
52,199,695085,-2368,-15670,-4073,4,-68,-3
52,200,695090,-2385,-15717,-4107,3,-72,-2
52,201,695095,-2400,-15719,-4216,9,-69,-1
52,202,695100,-2411,-15714,-4286,6,-45,2
52,203,695105,-2324,-15709,-4222,4,-14,1
52,204,695110,-2302,-15681,-4062,3,14,1
52,205,695115,-2353,-15676,-3943,5,21,0
52,206,695120,-2435,-15750,-3879,5,19,-1
52,207,695125,-2528,-15776,-3910,4,15,-3
52,208,695130,-2531,-15728,-3951,4,13,-2
52,209,695135,-2499,-15697,-4042,5,13,-1
52,210,695140,-2517,-15702,-4045,5,16,0
52,211,695145,-2415,-15731,-4040,5,13,-4
52,212,695150,-2533,-15774,-3974,2,10,-2
52,213,695155,-2641,-15758,-3914,-1,11,0
52,214,695160,-2542,-15744,-3778,1,14,4
52,215,695165,-2437,-15748,-3745,1,19,4
52,216,695170,-2295,-15794,-3796,4,22,3
52,217,695175,-2271,-15765,-3872,4,14,3
52,218,695180,-2393,-15674,-3964,3,-2,3
52,219,695185,-2457,-15667,-4082,4,-10,0
52,220,695190,-2503,-15698,-4118,2,-3,1
52,221,695195,-2620,-15676,-3918,-2,10,0
52,222,695200,-2518,-15695,-3907,0,8,1
52,223,695205,-2429,-15737,-3998,2,14,3
52,224,695210,-2437,-15790,-4077,3,18,1
52,225,695215,-2650,-15782,-4076,-2,11,-4
52,226,695220,-2791,-15759,-3939,-4,8,-4
52,227,695225,-2675,-15782,-3891,-2,8,-3
52,228,695230,-2557,-15768,-4000,0,24,-3
52,229,695235,-2514,-15796,-4043,0,49,-8
52,230,695240,-2548,-15822,-3919,-1,63,-10
52,231,695245,-2536,-15842,-3743,-1,52,-10
52,232,695250,-2509,-15844,-3671,-5,33,-7
52,233,695255,-2493,-15818,-3727,-4,22,-5
52,234,695260,-2470,-15771,-3742,-5,11,-5
52,235,695265,-2389,-15754,-3854,-4,-9,-4
52,236,695270,-2355,-15722,-3876,0,-31,0
52,237,695275,-2414,-15723,-3880,-1,-41,0
52,238,695280,-2482,-15689,-4039,1,-46,0
52,239,695285,-2467,-15744,-4178,0,-42,3
52,240,695290,-2451,-15731,-4036,-4,-39,1
52,241,695295,-2519,-15724,-4030,0,-45,0
52,242,695300,-2528,-15724,-4220,3,-55,1
52,243,695305,-2565,-15767,-4291,3,-52,1
52,244,695310,-2572,-15762,-4252,4,-47,2
52,245,695315,-2503,-15791,-4447,4,-37,-1
52,246,695320,-2492,-15752,-4583,4,-12,-3
52,247,695325,-2469,-15757,-4536,3,24,-4
52,248,695330,-2456,-15759,-4378,4,63,-9
52,249,695335,-2469,-15825,-4167,6,89,-11
52,250,695340,-2464,-15883,-4003,6,107,-10
52,251,695345,-2468,-15864,-3880,5,119,-13
52,252,695350,-2478,-15784,-3696,8,113,-13
52,253,695355,-2395,-15696,-3602,6,87,-8
52,254,695360,-2355,-15629,-3574,8,47,-6
52,255,695365,-2357,-15670,-3756,11,6,-1
52,256,695370,-2311,-15725,-3988,13,-11,0
52,257,695375,-2391,-15701,-3961,14,-11,0
52,258,695380,-2367,-15644,-3919,12,-11,-2
52,259,695385,-2305,-15623,-3804,12,-11,5
52,260,695390,-2321,-15696,-3763,10,-12,1
52,261,695395,-2257,-15698,-3816,11,-25,4
52,262,695400,-2196,-15693,-3775,13,-37,4
52,263,695405,-2154,-15696,-3716,12,-49,5
52,264,695410,-2113,-15788,-3746,13,-58,6
52,265,695415,-2258,-15861,-3895,14,-57,2
52,266,695420,-2436,-15771,-4022,11,-46,-2
52,267,695425,-2469,-15656,-4140,11,-30,-3
52,268,695430,-2506,-15574,-4235,10,-12,-3
52,269,695435,-2426,-15653,-4192,13,1,-1
52,270,695440,-2473,-15703,-4144,15,2,-1
52,271,695445,-2520,-15671,-4218,14,-2,-3
52,272,695450,-2586,-15652,-4189,14,-3,0
52,273,695455,-2492,-15609,-4047,9,0,0
52,274,695460,-2427,-15667,-3762,11,5,0
52,275,695465,-2386,-15722,-3829,15,0,-3
52,276,695470,-2408,-15735,-4174,18,3,-7
52,277,695475,-2370,-15775,-4272,14,20,-8
52,278,695480,-2349,-15852,-4005,11,29,-6
52,279,695485,-2320,-15870,-3805,9,19,-10
52,280,695490,-2405,-15837,-3854,13,11,-9
52,281,695495,-2478,-15772,-3979,11,16,-10
52,282,695500,-2525,-15630,-3879,9,33,-13
52,283,695505,-2493,-15615,-3831,7,24,-11
52,284,695510,-2475,-15732,-3765,5,-1,-7
52,285,695515,-2425,-15780,-3852,6,-34,-8
52,286,695520,-2379,-15707,-4094,9,-46,-9
52,287,695525,-2477,-15810,-4330,7,-41,-13
52,288,695530,-2759,-15811,-4343,2,-37,-15
52,289,695535,-2645,-15742,-4254,-6,-35,-11
52,290,695540,-2566,-15706,-4079,-3,-17,-9
52,291,695545,-2623,-15729,-4019,-1,10,-18
52,292,695550,-2653,-15696,-3964,-2,31,-19
52,293,695555,-2447,-15636,-3772,-3,25,-16
52,294,695560,-2271,-15695,-3689,-6,-18,-24
52,295,695565,-2389,-15693,-3752,-9,-39,-21
52,296,695570,-2485,-15682,-3939,-10,-51,-23
52,297,695575,-2505,-15506,-3868,-11,-41,-19
52,298,695580,-2483,-15478,-4025,-18,-31,-19
52,299,695585,-2494,-15516,-4011,-21,-10,-23
52,300,695590,-2530,-15435,-3838,-25,13,-27
52,301,695595,-2559,-15370,-3808,-23,17,-24
52,302,695600,-2593,-15384,-3813,-21,6,-18
52,303,695605,-2461,-15481,-3827,-28,-17,-19
52,304,695610,-2355,-15636,-3700,-28,-45,-15
52,305,695615,-2430,-15733,-3775,-29,-74,-17
52,306,695620,-2555,-15771,-3857,-31,-100,-18
52,307,695625,-2502,-15767,-3988,-36,-119,-17
52,308,695630,-2667,-15861,-3977,-36,-120,-19
52,309,695635,-2710,-15917,-3996,-32,-110,-21
52,310,695640,-2772,-15864,-4022,-32,-86,-21
52,311,695645,-2810,-15855,-4260,-32,-62,-23
52,312,695650,-2813,-15880,-4283,-33,-45,-24
52,313,695655,-2707,-15900,-4091,-36,-48,-24
52,314,695660,-2604,-15897,-4005,-32,-77,-20
52,315,695665,-2584,-15813,-4275,-32,-104,-14
52,316,695670,-2737,-15703,-4512,-28,-106,-15
52,317,695675,-2974,-15670,-4570,-27,-87,-19
52,318,695680,-3004,-15727,-4499,-26,-57,-14
52,319,695685,-2820,-15764,-4394,-23,-19,-13
52,320,695690,-2650,-15764,-4269,-20,24,-16
52,321,695695,-2522,-15751,-4132,-20,55,-17
52,322,695700,-2510,-15724,-3967,-19,50,-16
52,323,695705,-2628,-15665,-3739,-18,18,-14
52,324,695710,-2797,-15623,-3791,-18,-16,-11
52,325,695715,-2850,-15629,-4052,-12,-26,-8
52,326,695720,-2778,-15602,-4225,-14,-13,-3
52,327,695725,-2647,-15501,-3996,-13,-12,2
52,328,695730,-2768,-15593,-3596,-10,-37,2
52,329,695735,-2932,-15723,-3636,-1,-76,8
52,330,695740,-2778,-15718,-4137,6,-81,18
52,331,695745,-2770,-15665,-4264,2,-34,16
52,332,695750,-3011,-15560,-3878,0,-2,9
52,333,695755,-3184,-15476,-3683,2,-30,15
52,334,695760,-3185,-15413,-4050,7,-73,25
52,335,695765,-3057,-15555,-4589,11,-73,31
52,336,695770,-2980,-15542,-4480,7,-24,27
52,337,695775,-3195,-15555,-3936,6,13,23
52,338,695780,-3398,-15651,-3931,16,12,27
52,339,695785,-3402,-15639,-4333,22,34,31
52,340,695790,-3250,-15552,-4248,20,96,29
52,341,695795,-3148,-15542,-3801,19,118,34
52,342,695800,-3053,-15572,-3451,26,74,39
52,343,695805,-3105,-15664,-3514,30,11,46
52,344,695810,-3061,-15623,-3824,33,-2,52
52,345,695815,-2937,-15517,-3902,38,47,55
52,346,695820,-3064,-15441,-3623,41,85,52
52,347,695825,-3213,-15445,-3379,44,46,58
52,348,695830,-3258,-15536,-3446,47,-44,69
52,349,695835,-3209,-15535,-3817,51,-108,81
52,350,695840,-3186,-15587,-4185,51,-124,83
52,351,695845,-3390,-15577,-3880,47,-115,86
52,352,695850,-3552,-15572,-3606,52,-139,90
52,353,695855,-3551,-15618,-3887,62,-155,99
52,354,695860,-3535,-15690,-4148,61,-106,102
52,355,695865,-3371,-15576,-3583,56,-34,101
52,356,695870,-3240,-15615,-2984,57,-21,105
52,357,695875,-3275,-15835,-3088,66,-63,110
52,358,695880,-3423,-15859,-3631,73,-90,116
52,359,695885,-3505,-15742,-3992,68,-66,120
52,360,695890,-3545,-15651,-3934,64,-25,123
52,361,695895,-3465,-15529,-3813,64,-10,125
52,362,695900,-3532,-15468,-3854,64,-7,127
52,363,695905,-3814,-15550,-3891,68,15,128
52,364,695910,-3849,-15588,-3890,69,57,134
52,365,695915,-3576,-15640,-3557,65,109,136
52,366,695920,-3460,-15748,-3154,62,132,139
52,367,695925,-3328,-15759,-3028,64,104,144
52,368,695930,-3216,-15710,-3400,65,17,158
52,369,695935,-3462,-15803,-3187,65,-7,164
52,370,695940,-3722,-15741,-2955,64,-22,166
52,371,695945,-3730,-15529,-3185,70,-32,175
52,372,695950,-3586,-15493,-3669,73,-18,181
52,373,695955,-3444,-15529,-3905,73,-2,183
52,374,695960,-3506,-15449,-3579,71,-14,184
52,375,695965,-3739,-15442,-3714,76,-60,192
52,376,695970,-3916,-15529,-4585,79,-73,197
52,377,695975,-4034,-15614,-4941,73,2,193
52,378,695980,-3970,-15531,-4367,65,97,189
52,379,695985,-3852,-15512,-3544,66,134,190
52,380,695990,-3924,-15661,-3210,76,118,193
52,381,695995,-4064,-15768,-3197,78,99,198
52,382,696000,-4019,-15734,-3153,78,91,202
52,383,696005,-3758,-15661,-3034,77,76,206
52,384,696010,-3723,-15557,-2848,76,36,209
52,385,696015,-4054,-15560,-3042,82,-24,211
52,386,696020,-4391,-15643,-3560,86,-57,217
52,387,696025,-4376,-15651,-3601,80,-33,220
52,388,696030,-4224,-15660,-3370,81,14,224
52,389,696035,-3986,-15776,-3265,81,30,226
52,390,696040,-3953,-15877,-3127,76,16,225
52,391,696045,-4128,-15784,-3095,76,-20,224
52,392,696050,-4215,-15649,-3192,76,-58,231
52,393,696055,-4219,-15655,-3238,78,-83,237
52,394,696060,-4213,-15942,-3454,78,-82,240
52,395,696065,-4155,-16095,-3704,79,-49,241
52,396,696070,-4112,-15990,-3788,80,7,241
52,397,696075,-4071,-15857,-3616,78,53,246
52,398,696080,-4038,-15820,-3362,81,48,248
52,399,696085,-3975,-15809,-3346,85,4,255
52,400,696090,-4065,-15908,-3418,88,-28,260
52,401,696095,-4105,-15868,-3442,90,-17,263
52,402,696100,-4081,-15631,-3491,89,7,265
52,403,696105,-4037,-15428,-3572,95,21,268
52,404,696110,-4097,-15338,-3665,95,15,277
52,405,696115,-4176,-15355,-3687,99,11,282
52,406,696120,-4199,-15400,-3497,103,29,286
52,407,696125,-4192,-15416,-3387,106,50,292
52,408,696130,-4145,-15462,-3399,106,64,291
52,409,696135,-4130,-15419,-3294,105,59,293
52,410,696140,-4225,-15306,-3146,106,34,298
52,411,696145,-4216,-15329,-3250,113,0,307
52,412,696150,-4238,-15479,-3309,115,-5,312
52,413,696155,-4320,-15596,-3113,115,10,315
52,414,696160,-4280,-15682,-3116,117,25,316
52,415,696165,-4211,-15760,-3231,121,41,318
52,416,696170,-4182,-15700,-3274,121,50,323
52,417,696175,-4219,-15763,-3263,126,32,326
52,418,696180,-4264,-15834,-3195,128,8,331
52,419,696185,-4382,-15707,-3425,130,-3,333
52,420,696190,-4486,-15553,-3686,132,15,333
52,421,696195,-4539,-15456,-3570,133,34,339
52,422,696200,-4598,-15473,-3392,137,19,343
52,423,696205,-4659,-15525,-3500,141,-22,350
52,424,696210,-4637,-15477,-3709,146,-31,352
52,425,696215,-4649,-15432,-3590,143,-3,352
52,426,696220,-4833,-15452,-3248,142,28,350
52,427,696225,-4886,-15546,-3056,146,18,355
52,428,696230,-4701,-15584,-3065,150,-12,366
52,429,696235,-4362,-15628,-2999,148,-11,364
52,430,696240,-4234,-15634,-2821,151,-1,369
52,431,696245,-4371,-15687,-2671,150,-19,367
52,432,696250,-4533,-15735,-2785,151,-60,373
52,433,696255,-4532,-15715,-3232,148,-80,380
52,434,696260,-4523,-15664,-3370,145,-47,379
52,435,696265,-4541,-15638,-2992,141,-6,378
52,436,696270,-4699,-15639,-2768,144,-5,380
52,437,696275,-4740,-15714,-3322,150,-37,389
52,438,696280,-4768,-15822,-3656,147,-28,392
52,439,696285,-4761,-15725,-3380,140,11,391
52,440,696290,-4747,-15667,-3080,139,24,395
52,441,696295,-4944,-15707,-3488,141,9,395
52,442,696300,-5124,-15722,-3351,136,39,395
52,443,696305,-5115,-15646,-3055,133,68,396
52,444,696310,-4788,-15624,-2876,134,76,403
52,445,696315,-4454,-15670,-2786,135,69,406
52,446,696320,-4462,-15719,-2885,139,42,406
52,447,696325,-4633,-15732,-3010,139,7,411
52,448,696330,-4896,-15721,-3188,137,-12,414
52,449,696335,-4994,-15788,-3450,135,0,413
52,450,696340,-4843,-15800,-3329,133,45,410
52,451,696345,-4771,-15784,-3219,128,91,410
52,452,696350,-4694,-15697,-3177,131,107,410
52,453,696355,-4585,-15552,-3131,130,86,414
52,454,696360,-4652,-15520,-3110,129,43,413
52,455,696365,-4752,-15521,-3277,131,-6,417
52,456,696370,-4807,-15539,-3392,132,-29,419
52,457,696375,-4947,-15541,-3299,135,-28,416
52,458,696380,-4842,-15556,-3203,130,-25,420
52,459,696385,-4485,-15593,-3252,130,-29,424
52,460,696390,-4305,-15660,-3558,134,-35,420
52,461,696395,-4387,-15725,-3552,134,-46,418
52,462,696400,-4620,-15641,-3267,130,-70,416
52,463,696405,-4655,-15747,-3309,130,-88,415
52,464,696410,-4755,-15883,-3631,135,-53,412
52,465,696415,-4734,-15807,-3938,132,26,408
52,466,696420,-4803,-15655,-3634,127,108,399
52,467,696425,-5005,-15675,-3147,122,129,391
52,468,696430,-5115,-15707,-2996,122,101,395
52,469,696435,-5041,-15734,-3179,121,81,393
52,470,696440,-4940,-15764,-3234,119,98,388
52,471,696445,-4858,-15763,-3106,116,113,382
52,472,696450,-4917,-15692,-2901,112,98,376
52,473,696455,-4915,-15601,-3254,115,59,377
52,474,696460,-4910,-15572,-3448,115,50,373
52,475,696465,-4944,-15552,-3286,107,53,366
52,476,696470,-4863,-15528,-3007,104,23,361
52,477,696475,-4642,-15566,-3179,106,-39,361
52,478,696480,-4483,-15598,-3383,106,-78,357
52,479,696485,-4647,-15516,-3357,101,-87,346
52,480,696490,-4830,-15398,-3128,98,-94,338
52,481,696495,-4703,-15341,-3205,102,-110,338
52,482,696500,-4478,-15400,-3467,101,-103,335
52,483,696505,-4536,-15443,-3513,96,-65,324
52,484,696510,-4732,-15437,-3432,92,-38,315
52,485,696515,-4702,-15225,-3245,87,-34,312
52,486,696520,-4605,-15122,-3326,88,-35,310
52,487,696525,-4463,-15150,-3374,84,-17,304
52,488,696530,-4310,-15186,-3329,81,1,298
52,489,696535,-4279,-15111,-3254,80,2,292
52,490,696540,-4376,-15080,-3424,77,-9,284
52,491,696545,-4507,-15069,-3564,76,-13,279
52,492,696550,-4441,-15130,-3528,74,4,276
52,493,696555,-4218,-15138,-3488,67,25,269
52,494,696560,-4110,-15259,-3534,66,33,258
52,495,696565,-4186,-15301,-3547,62,33,249
52,496,696570,-4282,-15203,-3440,57,23,240
52,497,696575,-4308,-15095,-3111,52,9,234
52,498,696580,-4157,-15079,-3087,52,-11,235
52,499,696585,-4073,-15255,-3334,52,-23,224
52,500,696590,-4178,-15284,-3400,46,-26,211
52,501,696595,-4150,-15195,-3536,43,-41,206
52,502,696600,-3992,-15136,-3782,44,-46,204
52,503,696605,-3924,-15117,-3915,41,-28,194
52,504,696610,-3770,-15125,-3946,35,-9,185
52,505,696615,-3705,-15066,-3782,32,0,175
52,506,696620,-3766,-15093,-3516,29,-11,163
52,507,696625,-3860,-15116,-3283,27,-33,160
52,508,696630,-3584,-15132,-3363,30,-61,157
52,509,696635,-3281,-15185,-3507,27,-77,148
52,510,696640,-3159,-15289,-3695,21,-89,135
52,511,696645,-3340,-15428,-3893,18,-98,121
52,512,696650,-3655,-15368,-4119,12,-81,107
52,513,696655,-3674,-15186,-4384,6,-30,95
52,514,696660,-3439,-15025,-4167,0,122,65
52,515,696665,-3371,-15243,-3851,-3,145,52
52,516,696670,-3301,-15294,-3605,-7,124,41
52,517,696675,-3216,-15111,-3447,-9,102,29
52,518,696680,-3260,-15028,-3440,-12,83,18
52,519,696685,-3209,-15023,-3554,-14,47,6
52,520,696690,-3202,-15092,-3799,-16,6,-2
52,521,696695,-3157,-15212,-3946,-20,-10,-16
52,522,696700,-2955,-15285,-4162,-23,6,-31
52,523,696705,-2898,-15252,-4198,-28,47,-51
52,524,696710,-3030,-15242,-3984,-35,64,-74
52,525,696715,-3076,-15147,-3776,-37,44,-87
52,526,696720,-3026,-15066,-3848,-39,15,-100
52,527,696725,-2917,-15072,-3992,-44,15,-117
52,528,696730,-2693,-15200,-3772,-47,41,-131
52,529,696735,-2530,-15334,-3422,-54,39,-150
52,530,696740,-2362,-15297,-3252,-54,-7,-168
52,531,696745,-2378,-15215,-3323,-57,-61,-186
52,532,696750,-2506,-15303,-3798,-60,-96,-201
52,533,696755,-2547,-15377,-4144,-65,-99,-215
52,534,696760,-2533,-15279,-4355,-72,-85,-230
52,535,696765,-2460,-15238,-4657,-75,-56,-248
52,536,696770,-2466,-15258,-4812,-81,-1,-273
52,537,696775,-2426,-15277,-4588,-86,57,-293
52,538,696780,-2420,-15277,-4172,-90,84,-308
52,539,696785,-2255,-15384,-3745,-94,76,-329
52,540,696790,-2118,-15441,-3684,-95,56,-346
52,541,696795,-2044,-15548,-3688,-98,35,-363
52,542,696800,-2259,-15528,-3550,-102,7,-385
52,543,696805,-2369,-15414,-3742,-102,-41,-398
52,544,696810,-2192,-15283,-4143,-106,-67,-412
52,545,696815,-1901,-15268,-4394,-111,-57,-428
52,546,696820,-1571,-15301,-4390,-119,-53,-447
52,547,696825,-1451,-15445,-4316,-124,-86,-461
52,548,696830,-1413,-15648,-4496,-127,-129,-479
52,549,696835,-1525,-15688,-4582,-129,-132,-501
52,550,696840,-1628,-15705,-4494,-136,-98,-524
52,551,696845,-1534,-15878,-4272,-144,-58,-544
52,552,696850,-1402,-16065,-3896,-149,-38,-567
52,553,696855,-1388,-16077,-3924,-152,-42,-586
52,554,696860,-1343,-15993,-4121,-154,-28,-603
52,555,696865,-1431,-15939,-3956,-163,0,-626
52,556,696870,-1418,-15951,-3455,-172,-11,-642
52,557,696875,-1278,-15982,-3334,-172,-72,-650
52,558,696880,-1254,-16090,-4119,-168,-128,-661
52,559,696885,-1421,-16144,-4705,-175,-115,-681
52,560,696890,-1497,-16137,-4750,-186,-73,-701
52,561,696895,-1339,-16162,-4420,-195,-61,-716
52,562,696900,-1017,-16272,-4436,-195,-87,-729
52,563,696905,-653,-16408,-4946,-197,-111,-742
52,564,696910,-531,-16617,-5291,-202,-96,-763
52,565,696915,-784,-16690,-4989,-212,-60,-789
52,566,696920,-914,-16565,-4700,-216,-51,-809
52,567,696925,-992,-16590,-4972,-215,-43,-824
52,568,696930,-823,-16658,-5258,-215,18,-842
52,569,696935,-779,-16728,-4879,-225,105,-870
52,570,696940,-801,-16852,-4027,-231,131,-891
52,571,696945,-796,-16986,-3872,-226,81,-902
52,572,696950,-653,-17245,-4599,-220,44,-909
52,573,696955,-578,-17334,-4938,-227,92,-932
52,574,696960,-598,-17219,-4748,-235,172,-957
52,575,696965,-675,-17172,-4470,-236,191,-974
52,576,696970,-701,-17284,-4789,-237,155,-982
52,577,696975,-624,-17429,-5177,-238,137,-996
52,578,696980,-717,-17436,-5057,-242,162,-1011
52,579,696985,-841,-17281,-4462,-248,162,-1029
52,580,696990,-848,-17282,-4407,-245,93,-1041
52,581,696995,-729,-17584,-4908,-246,8,-1050
52,582,697000,-636,-17834,-4913,-253,-20,-1071
52,583,697005,-868,-17775,-4334,-261,-16,-1097
52,584,697010,-1137,-17690,-4090,-263,-36,-1113
52,585,697015,-1014,-17773,-4451,-262,-80,-1119
52,586,697020,-733,-18002,-4748,-266,-84,-1135
52,587,697025,-762,-18141,-4590,-276,-53,-1161
52,588,697030,-1260,-17846,-4524,-287,11,-1194
52,589,697035,-1354,-17765,-4892,-291,62,-1209
52,590,697040,-1382,-17807,-4712,-298,129,-1226
52,591,697045,-1390,-17805,-3989,-308,162,-1243
52,592,697050,-1334,-17726,-3412,-314,126,-1253
52,593,697055,-1092,-17726,-3275,-313,38,-1259
52,594,697060,-873,-17759,-3489,-314,-57,-1261
52,595,697065,-929,-17827,-3890,-318,-132,-1270
52,596,697070,-1246,-17864,-4464,-323,-169,-1277
52,597,697075,-1373,-17894,-5256,-330,-143,-1289
52,598,697080,-291,-9725,-7480,-349,-62,-1307
52,599,697085,-6158,-2703,-135,-353,-55,-1286
52,600,697090,-25172,-258,22092,-330,366,-1449
52,601,697095,8730,-17790,-26114,22,-2790,93
52,602,697100,15865,-24586,-23889,-158,661,-721
52,603,697105,-3356,-17328,7992,-495,3889,-1792
52,604,697110,-3144,-17415,14163,-341,909,-1188
52,605,697115,-6913,-15542,-697,-87,-1368,-775
52,606,697120,-3235,-17179,-16677,-99,-1473,-776
52,607,697125,658,-18841,-14631,-330,111,-960
52,608,697130,-2900,-16708,727,-451,1711,-1244
52,609,697135,-1056,-16837,3097,-315,1006,-1137
52,610,697140,-155,-17781,-3696,-181,-120,-976
52,611,697145,-263,-17298,-9971,-185,-245,-1019
52,612,697150,-1860,-17366,-7058,-281,451,-1111
52,613,697155,-2552,-16989,-1356,-357,821,-1182
52,614,697160,-1567,-16935,135,-333,405,-1134
52,615,697165,-38,-17309,-3946,-275,-196,-1068
52,616,697170,-538,-17153,-5959,-285,-188,-1106
52,617,697175,-1643,-16854,-4422,-308,126,-1153
52,618,697180,-1992,-16377,-1801,-314,238,-1158
52,619,697185,-1303,-16451,-2185,-300,-25,-1125
52,620,697190,-567,-16947,-4452,-297,-269,-1102
52,621,697195,-743,-17202,-5204,-320,-219,-1122
52,622,697200,-1476,-16793,-3869,-345,-44,-1154
52,623,697205,-1589,-16558,-2903,-332,-42,-1143
52,624,697210,-1112,-16479,-3373,-317,-150,-1123
52,625,697215,-801,-16556,-4011,-328,-211,-1117
52,626,697220,-793,-16663,-4352,-336,-193,-1118
52,627,697225,-720,-16759,-4128,-344,-142,-1112
52,628,697230,-659,-16901,-4198,-343,-125,-1107
52,629,697235,-674,-16962,-4420,-343,-130,-1102
52,630,697240,-803,-16919,-4665,-349,-136,-1095
52,631,697245,-835,-16973,-4748,-352,-132,-1089
52,632,697250,-931,-16972,-4387,-355,-84,-1088
52,633,697255,-895,-16800,-4015,-352,-53,-1082
52,634,697260,-630,-16689,-3933,-347,-59,-1069
52,635,697265,-388,-16495,-3992,-348,-83,-1058
52,636,697270,-273,-16435,-4077,-349,-139,-1046
52,637,697275,-347,-16448,-3939,-343,-187,-1032
52,638,697280,-306,-16295,-4186,-337,-222,-1014
52,639,697285,-477,-16187,-4442,-332,-202,-1001
52,640,697290,-689,-15996,-4408,-333,-149,-994
52,641,697295,-480,-15909,-4470,-329,-105,-975
52,642,697300,-398,-15860,-4375,-325,-73,-961
52,643,697305,-467,-15883,-4204,-324,-87,-944
52,644,697310,-441,-15854,-4025,-316,-132,-925
52,645,697315,-300,-15796,-4274,-306,-170,-901
52,646,697320,-279,-15842,-4474,-301,-172,-887
52,647,697325,-297,-15874,-4504,-294,-167,-869
52,648,697330,-356,-15745,-4677,-285,-189,-849
52,649,697335,-310,-15744,-5323,-271,-220,-829
52,650,697340,-351,-15793,-5476,-266,-199,-816
52,651,697345,-369,-15882,-5313,-262,-158,-805
52,652,697350,-449,-15877,-4999,-256,-116,-795
52,653,697355,-384,-15800,-4707,-252,-86,-783
52,654,697360,-343,-15729,-4516,-241,-72,-769
52,655,697365,-251,-15670,-4592,-230,-65,-756
52,656,697370,-59,-15585,-4548,-221,-39,-740
52,657,697375,186,-15550,-4451,-211,-27,-722
52,658,697380,250,-15537,-4403,-204,-30,-711
52,659,697385,175,-15403,-4201,-199,-42,-701
52,660,697390,123,-15292,-4352,-188,-82,-680
52,661,697395,1,-14985,-4627,-181,-115,-648
52,662,697400,280,-14788,-4774,-174,-111,-634
52,663,697405,298,-14795,-4894,-166,-88,-618
52,664,697410,64,-14952,-4730,-164,-62,-608
52,665,697415,25,-14969,-4327,-163,-56,-594
52,666,697420,219,-14991,-4052,-157,-63,-573
52,667,697425,420,-15039,-4307,-149,-81,-561
52,668,697430,503,-15057,-4512,-143,-89,-551
52,669,697435,532,-15004,-4492,-141,-117,-538
52,670,697440,666,-14970,-4445,-138,-159,-520
52,671,697445,524,-15097,-4734,-129,-184,-510
52,672,697450,511,-15083,-5079,-128,-180,-501
52,673,697455,539,-14920,-5103,-132,-155,-488
52,674,697460,564,-14899,-4898,-131,-148,-475
52,675,697465,610,-15004,-4769,-126,-161,-459
52,676,697470,794,-15043,-4640,-124,-178,-448
52,677,697475,819,-15027,-4388,-119,-185,-437
52,678,697480,663,-15041,-4405,-118,-202,-427
52,679,697485,530,-14989,-4755,-113,-235,-412
52,680,697490,556,-15080,-5361,-110,-263,-397
52,681,697495,506,-15072,-5510,-109,-247,-385
52,682,697500,531,-14972,-5485,-110,-208,-374
52,683,697505,823,-14885,-5419,-110,-149,-360
52,684,697510,1123,-14880,-5370,-107,-113,-354
52,685,697515,1335,-15000,-5286,-110,-111,-345
52,686,697520,1540,-14964,-4770,-117,-119,-336
52,687,697525,1789,-14927,-4619,-116,-144,-317
52,688,697530,1975,-15044,-5077,-109,-162,-300
52,689,697535,1942,-15003,-5128,-112,-147,-293
52,690,697540,1732,-14837,-4905,-116,-145,-280
52,691,697545,1674,-14831,-5208,-112,-177,-262
52,692,697550,1889,-14795,-5577,-115,-167,-246
52,693,697555,1932,-14800,-5522,-115,-111,-239
52,694,697560,1770,-14918,-5179,-115,-72,-233
52,695,697565,1825,-14704,-4761,-119,-80,-220
52,696,697570,1869,-14561,-4644,-121,-110,-208
52,697,697575,1706,-14526,-4846,-113,-144,-198
52,698,697580,1634,-14432,-5246,-108,-175,-180
52,699,697585,1617,-14386,-5390,-111,-188,-170
52,700,697590,1711,-14378,-5625,-114,-197,-160
52,701,697595,2036,-14421,-5867,-114,-190,-143
52,702,697600,2193,-14529,-5785,-110,-160,-139
52,703,697605,2231,-14689,-5579,-111,-138,-134
52,704,697610,2317,-14603,-5319,-109,-140,-122
52,705,697615,2593,-14602,-5505,-104,-174,-106
52,706,697620,2744,-14684,-6023,-102,-182,-100
52,707,697625,2770,-14744,-6022,-103,-163,-95
52,708,697630,2622,-14638,-5773,-102,-160,-88
52,709,697635,2521,-14587,-5870,-97,-165,-80
52,710,697640,2507,-14645,-6019,-93,-154,-70
52,711,697645,2578,-14697,-6126,-91,-137,-63
52,712,697650,2490,-14633,-5975,-88,-122,-59
52,713,697655,2386,-14510,-5937,-81,-133,-52
52,714,697660,2267,-14529,-6245,-74,-146,-45
52,715,697665,2368,-14569,-6371,-70,-123,-40
52,716,697670,2404,-14523,-6156,-70,-78,-38
52,717,697675,2518,-14465,-5874,-67,-31,-39
52,718,697680,2647,-14406,-5772,-63,4,-32
52,719,697685,2993,-14352,-5977,-57,26,-27
52,720,697690,3240,-14411,-5880,-55,37,-22
52,721,697695,3165,-14509,-5581,-55,-2,-19
52,722,697700,3122,-14519,-5614,-53,-59,-7
52,723,697705,3243,-14470,-5893,-47,-77,1
52,724,697710,3355,-14434,-6191,-43,-46,4
52,725,697715,3381,-14389,-5937,-42,3,5
52,726,697720,3527,-14400,-5360,-44,8,10
52,727,697725,3640,-14446,-5475,-39,-39,18
52,728,697730,3617,-14487,-5905,-28,-51,23
52,729,697735,3616,-14517,-6143,-24,-3,28
52,730,697740,3466,-14515,-5847,-26,60,25
52,731,697745,3406,-14579,-5625,-27,76,28
52,732,697750,3610,-14570,-5711,-21,52,40
52,733,697755,3897,-14577,-5958,-19,31,45
52,734,697760,3953,-14705,-5935,-12,23,46
52,735,697765,3838,-14682,-6032,-6,3,49
52,736,697770,3745,-14626,-6086,-6,7,52
52,737,697775,3796,-14539,-5928,-5,18,52
52,738,697780,3704,-14599,-5847,2,8,52
52,739,697785,3606,-14701,-5893,13,-11,59
52,740,697790,3709,-14669,-6098,12,-11,61
52,741,697795,3749,-14626,-6255,14,20,60
52,742,697800,3703,-14634,-6275,15,47,55
52,743,697805,3564,-14584,-5974,17,67,53
52,744,697810,3628,-14625,-5930,24,71,56
52,745,697815,3806,-14693,-5876,29,87,57
52,746,697820,4121,-14766,-5709,26,110,58
52,747,697825,4289,-14815,-5449,28,127,54
52,748,697830,4236,-14849,-5486,34,119,55
52,749,697835,4119,-14818,-5902,33,99,51
52,750,697840,4120,-14755,-6238,35,79,51
52,751,697845,4081,-14740,-6243,35,86,46
52,752,697850,3886,-14657,-5740,34,110,38
52,753,697855,3923,-14581,-5600,36,109,42
52,754,697860,4153,-14556,-5478,38,96,46
52,755,697865,4283,-14639,-5235,41,52,44
52,756,697870,4218,-14793,-5276,45,-23,49
52,757,697875,4304,-14752,-5590,46,-77,55
52,758,697880,4392,-14719,-5836,47,-58,54
52,759,697885,4369,-14729,-5924,46,-1,46
52,760,697890,4317,-14774,-5952,46,30,45
52,761,697895,4328,-14803,-5944,46,26,43
52,762,697900,4208,-14818,-5918,46,20,42
52,763,697905,4208,-14764,-5988,47,33,40
52,764,697910,4161,-14683,-6099,48,59,35
52,765,697915,4097,-14622,-6078,45,81,29
52,766,697920,4187,-14649,-5893,42,70,32
52,767,697925,4304,-14721,-5643,41,44,33
52,768,697930,4397,-14892,-5777,45,25,34
52,769,697935,4546,-14931,-5765,42,35,30
52,770,697940,4455,-14915,-5635,40,44,26
52,771,697945,4377,-14900,-5560,39,35,22
52,772,697950,4445,-14838,-5588,40,14,25
52,773,697955,4501,-14864,-5812,40,10,26
52,774,697960,4506,-14949,-5847,38,33,25
52,775,697965,4617,-14819,-5643,35,64,18
52,776,697970,4548,-14842,-5710,35,68,17
52,777,697975,4534,-14902,-5879,35,54,18
52,778,697980,4640,-14836,-5970,36,34,17
52,779,697985,4644,-14817,-6027,35,11,18
52,780,697990,4593,-14824,-6142,34,-6,16
52,781,697995,4577,-14722,-6188,32,-1,12
52,782,698000,4464,-14767,-6411,34,17,12
52,783,698005,4502,-14769,-6582,32,35,10
52,784,698010,4471,-14658,-6199,24,46,4
52,785,698015,4235,-14677,-5783,23,42,-2
52,786,698020,4338,-14660,-5891,28,34,3
52,787,698025,4441,-14714,-5970,27,56,1
52,788,698030,4390,-14790,-5669,23,73,-9
52,789,698035,4136,-14729,-5451,20,45,-11
52,790,698040,4173,-14727,-5779,22,-10,-9
52,791,698045,4310,-14754,-6214,26,-28,-5
52,792,698050,4455,-14680,-6224,22,9,-12
52,793,698055,4373,-14687,-5999,18,49,-20
52,794,698060,4257,-14685,-5958,21,44,-22
52,795,698065,4224,-14656,-5867,17,18,-24
52,796,698070,4292,-14740,-5896,17,-12,-26
52,797,698075,4458,-14869,-6080,17,-49,-22
52,798,698080,4451,-14819,-5860,14,-65,-29
52,799,698085,4281,-14795,-5938,12,-88,-31
52,800,698090,4207,-14761,-6515,17,-98,-28
52,801,698095,4145,-14719,-6683,13,-49,-31
52,802,698100,4182,-14661,-6373,6,0,-37
52,803,698105,4169,-14707,-6022,3,26,-41
52,804,698110,4349,-14818,-6101,10,41,-40
52,805,698115,4405,-14738,-6162,13,67,-41
52,806,698120,4234,-14654,-6215,10,83,-51
52,807,698125,4092,-14716,-5939,7,55,-44
52,808,698130,4317,-14705,-6015,9,47,-42
52,809,698135,4560,-14705,-6382,13,62,-40
52,810,698140,4372,-14794,-6538,11,95,-48
52,811,698145,4028,-14705,-6241,5,96,-53
52,812,698150,3691,-14582,-5949,2,56,-53
52,813,698155,3687,-14517,-6094,7,18,-47
52,814,698160,3818,-14560,-6082,10,15,-48
52,815,698165,4121,-14671,-5780,8,9,-46
52,816,698170,4312,-14761,-5605,7,-28,-42
52,817,698175,4166,-14740,-5777,11,-90,-40
52,818,698180,4196,-14754,-6472,16,-129,-32
52,819,698185,4177,-14712,-6472,13,-73,-34
52,820,698190,4175,-14725,-6308,9,-12,-37
52,821,698195,4210,-14693,-6134,9,13,-38
52,822,698200,4234,-14694,-5991,6,8,-37
52,823,698205,4095,-14678,-5920,6,-17,-32
52,824,698210,4236,-14694,-6250,10,-42,-24
52,825,698215,4409,-14696,-6271,6,-32,-22
52,826,698220,4225,-14789,-6193,10,-22,-26
52,827,698225,4134,-14790,-6335,10,-15,-25
52,828,698230,4215,-14759,-6608,8,17,-25
52,829,698235,4286,-14747,-6631,7,70,-28
52,830,698240,4106,-14671,-6030,-1,107,-32
52,831,698245,3970,-14617,-5478,-3,85,-29
52,832,698250,4012,-14620,-5524,5,21,-16
52,833,698255,4093,-14669,-5784,4,-16,-9
52,834,698260,4071,-14703,-5754,4,-28,-5
52,835,698265,4097,-14750,-5650,2,-49,-6
52,836,698270,4086,-14800,-5677,4,-72,-5
52,837,698275,4084,-14808,-6044,6,-84,-4
52,838,698280,4078,-14660,-6177,1,-57,-5
52,839,698285,3886,-14686,-5967,-5,-24,-7
52,840,698290,3936,-14761,-5922,-7,-18,-1
52,841,698295,4237,-14751,-6144,-9,-28,7
52,842,698300,4285,-14911,-6408,-10,-23,2
52,843,698305,4155,-15011,-6532,-11,-5,-2
52,844,698310,3987,-14799,-6225,-12,25,-6
52,845,698315,3820,-14667,-6091,-10,56,-5
52,846,698320,4045,-14687,-6051,-11,99,-3
52,847,698325,4318,-14676,-5995,-14,143,-4
52,848,698330,4468,-14709,-5866,-12,139,-6
52,849,698335,4356,-14764,-5719,-13,84,-3
52,850,698340,4156,-14734,-5829,-11,5,-1
52,851,698345,3858,-14704,-6182,-7,-35,2
52,852,698350,3883,-14621,-6125,-9,-9,2
52,853,698355,3959,-14553,-5797,-10,36,4
52,854,698360,4105,-14669,-5711,-9,41,1
52,855,698365,4058,-14685,-5601,-9,7,0
52,856,698370,3986,-14690,-5718,-7,-47,1
52,857,698375,3797,-14692,-6062,-6,-85,3
52,858,698380,3760,-14695,-6530,-6,-80,4
52,859,698385,3725,-14631,-6190,-12,-34,-4
52,860,698390,3690,-14674,-6122,-9,-31,-5
52,861,698395,3668,-14720,-6043,-4,-34,-4
52,862,698400,3834,-14707,-6423,0,-44,-2
52,863,698405,4015,-14649,-6506,1,-26,-1
52,864,698410,3918,-14609,-6296,-3,-3,-11
52,865,698415,3709,-14564,-5945,-4,-2,-13
52,866,698420,3774,-14474,-6055,0,-18,-3
52,867,698425,3925,-14453,-6104,2,-11,-5
52,868,698430,4117,-14463,-5992,0,15,-7
52,869,698435,4118,-14414,-5608,-2,21,-6
52,870,698440,3940,-14478,-5609,2,-6,-1
52,871,698445,4027,-14470,-6106,4,-27,4
52,872,698450,4132,-14423,-6243,2,-10,3
52,873,698455,3958,-14436,-5925,-4,8,2
52,874,698460,3863,-14446,-5722,-5,-4,8
52,875,698465,3898,-14484,-6001,-2,-25,12
52,876,698470,4075,-14533,-6238,0,-19,13
52,877,698475,4100,-14673,-5949,-3,7,11
52,878,698480,3994,-14636,-5558,-11,13,10
52,879,698485,3946,-14578,-5661,-10,-25,17
52,880,698490,4030,-14585,-5976,-8,-64,27
52,881,698495,4033,-14692,-5822,-11,-65,31
52,882,698500,3953,-14693,-5796,-8,-73,33
52,883,698505,3927,-14723,-6019,-7,-78,37
52,884,698510,4011,-14727,-6141,-9,-65,45
52,885,698515,4055,-14750,-6001,-13,-46,44
52,886,698520,4149,-14855,-5978,-14,-46,48
52,887,698525,4198,-14955,-6078,-13,-57,50
52,888,698530,4241,-14867,-6232,-15,-58,47
52,889,698535,4126,-14775,-6179,-15,-42,53
52,890,698540,4024,-14794,-6272,-15,-16,52
52,891,698545,4043,-14784,-6412,-14,12,55
52,892,698550,4239,-14850,-6581,-15,40,58
52,893,698555,4336,-14769,-6237,-14,75,56
52,894,698560,4183,-14725,-5928,-14,92,54
52,895,698565,4126,-14644,-5982,-14,92,52
52,896,698570,4229,-14652,-6277,-10,88,62
52,897,698575,4291,-14636,-6283,-14,92,63
52,898,698580,4185,-14671,-6154,-10,87,63
52,899,698585,4116,-14684,-6130,-9,74,66
52,900,698590,4081,-14772,-6147,-10,68,65
52,901,698595,4079,-14812,-6061,-9,71,63
52,902,698600,4203,-14773,-5897,-11,71,63
52,903,698605,4179,-14858,-5850,-11,60,60
52,904,698610,4083,-14843,-5874,-4,33,58
52,905,698615,3917,-14763,-6006,-3,8,58
52,906,698620,3842,-14735,-6223,-2,2,58
52,907,698625,3856,-14737,-6259,-2,21,59
52,908,698630,4022,-14787,-6142,-3,44,56
52,909,698635,4124,-14848,-5944,-3,56,53
52,910,698640,4241,-14898,-5934,2,53,52
52,911,698645,4212,-14727,-5932,0,48,45
52,912,698650,4143,-14673,-5976,-1,40,44
52,913,698655,4253,-14764,-6064,1,32,43
52,914,698660,4281,-14813,-6041,-2,35,38
52,915,698665,4226,-14819,-5964,-3,43,37
52,916,698670,4171,-14768,-6028,1,48,34
52,917,698675,4051,-14817,-6057,0,53,29
52,918,698680,4022,-14773,-5973,-2,53,25
52,919,698685,4111,-14660,-5750,-2,46,23
52,920,698690,4101,-14689,-5676,0,23,23
52,921,698695,4206,-14757,-5703,3,-4,19
52,922,698700,4249,-14842,-5656,3,-32,21
52,923,698705,4346,-14878,-5849,5,-61,20
52,924,698710,4260,-14908,-5975,4,-76,12
52,925,698715,3970,-14880,-5998,2,-87,9
52,926,698720,3919,-14826,-6121,1,-93,11
52,927,698725,4038,-14757,-6220,-2,-76,9
52,928,698730,4222,-14724,-6253,-2,-53,6
52,929,698735,4253,-14775,-6062,-3,-46,5
52,930,698740,4240,-14812,-5895,-3,-62,0
52,931,698745,4096,-14774,-5986,-4,-75,-2
52,932,698750,4051,-14703,-6192,-2,-66,-5
52,933,698755,4082,-14689,-6244,-4,-26,-7
52,934,698760,4084,-14730,-5912,-9,2,-9
52,935,698765,4062,-14701,-5704,-11,3,-13
52,936,698770,4144,-14738,-5809,-9,-14,-11
52,937,698775,4157,-14750,-5863,-11,-23,-12
52,938,698780,4073,-14734,-5754,-14,-31,-14
52,939,698785,3970,-14710,-5732,-14,-42,-12
52,940,698790,4038,-14665,-5932,-13,-54,-12
52,941,698795,4113,-14686,-6037,-13,-53,-13
52,942,698800,4148,-14697,-5964,-15,-51,-9
52,943,698805,4183,-14708,-5861,-18,-58,-10
52,944,698810,4073,-14733,-5937,-17,-69,-8
52,945,698815,3947,-14681,-6108,-17,-65,-8
52,946,698820,3969,-14651,-6034,-19,-48,-11
52,947,698825,3935,-14578,-6031,-20,-31,-8
52,948,698830,3869,-14587,-6006,-21,-25,-6
52,949,698835,3809,-14583,-5795,-27,-30,-4
52,950,698840,3845,-14655,-5743,-22,-44,2
52,951,698845,4027,-14719,-5866,-23,-58,4
52,952,698850,4034,-14743,-5853,-22,-57,2
52,953,698855,3838,-14717,-5900,-21,-60,3
52,954,698860,4010,-14654,-6125,-22,-67,13
52,955,698865,4002,-14744,-6104,-18,-49,16
52,956,698870,4093,-14769,-6072,-20,-31,17
52,957,698875,4200,-14888,-6072,-20,-18,20
52,958,698880,4275,-15017,-6185,-16,-14,24
52,959,698885,4156,-15030,-6167,-19,-5,23
52,960,698890,3788,-14919,-5951,-20,-4,18
52,961,698895,3519,-14793,-5994,-13,-13,25
52,962,698900,3585,-14681,-6115,-14,-5,32
52,963,698905,3744,-14723,-6114,-14,15,37
52,964,698910,3697,-14857,-5846,-15,21,39
52,965,698915,3890,-14972,-5639,-14,1,40
52,966,698920,4064,-15226,-5550,-7,-22,44
52,967,698925,4135,-15220,-5850,-4,-28,47
52,968,698930,3806,-14933,-5949,-7,-2,43
52,969,698935,3430,-14744,-6084,-9,22,41
52,970,698940,3308,-14653,-6150,-10,31,44
52,971,698945,3476,-14572,-6038,-11,47,48
52,972,698950,3662,-14642,-5952,-12,56,52
52,973,698955,3725,-14619,-5807,-11,51,53
52,974,698960,3714,-14584,-5741,-11,28,52
52,975,698965,3663,-14560,-5762,-9,-10,56
52,976,698970,3716,-14574,-5814,-7,-28,59
52,977,698975,3837,-14645,-5962,-2,-22,61
52,978,698980,4053,-14875,-5944,1,-6,62
52,979,698985,4102,-15018,-5910,-3,6,61
52,980,698990,3955,-14914,-6055,0,1,57
52,981,698995,3636,-14735,-6470,0,2,51
52,982,699000,3225,-14642,-6581,2,34,52
52,983,699005,3174,-14638,-6356,1,75,54
52,984,699010,3498,-14640,-6121,3,108,54
52,985,699015,3735,-14719,-6099,9,115,53
52,986,699020,3790,-14732,-6046,12,97,51
52,987,699025,3691,-14647,-6019,16,59,49
52,988,699030,3579,-14659,-6163,18,18,52
52,989,699035,3626,-14689,-6288,18,4,54
52,990,699040,3655,-14676,-6214,16,25,51
52,991,699045,3699,-14744,-6098,15,51,51
52,992,699050,3782,-14863,-5744,15,56,49
52,993,699055,3973,-14858,-5446,17,27,52
52,994,699060,4102,-14919,-5671,24,-15,55
52,995,699065,3974,-14896,-6067,24,-32,49
52,996,699070,3795,-14846,-6135,25,-17,47
52,997,699075,3702,-14759,-6085,24,7,48
52,998,699080,3768,-14731,-6079,23,27,52
52,999,699085,3911,-14805,-6006,22,39,52
